time,seconds_elapsed,z,y,x
1771073611476663600,0.07666357421875,0,0,0
1771073611486591500,0.086591552734375,-0.020073890686035156,-0.0015339851379394531,0.022920627146959305
1771073611496520400,0.0965205078125,0.0007810592651367188,-0.011442899703979492,0.04625074192881584
1771073611526316000,0.12631591796875,0.2675514221191406,0.048294782638549805,0.08494673669338226
1771073611536252000,0.136251953125,0.3005838394165039,0.01955580711364746,0.10016877204179764
1771073611546189600,0.146189453125,0.20837974548339844,-0.023841381072998047,0.09079865366220474
1771073611556129800,0.1561298828125,0.14281272888183594,-0.08975434303283691,0.03263356536626816
1771073611566071800,0.16607177734375,0.10081195831298828,-0.1098940372467041,0.0022740736603736877
1771073611576015600,0.176015625,0.09202194213867188,-0.07962191104888916,-0.005734898149967194
1771073611585961200,0.185961181640625,0.18347644805908203,-0.03928172588348389,0.015293590724468231
1771073611595907800,0.195907958984375,0.2183694839477539,-0.013470888137817383,0.02412545680999756
1771073611605855700,0.205855712890625,0.1786651611328125,-0.029423952102661133,-0.009216636419296265
1771073611615804200,0.21580419921875,0.14908981323242188,-0.06391918659210205,-0.015622206032276154
1771073611625752800,0.2257529296875,0.1016988754272461,-0.08250558376312256,-0.01866554468870163
1771073611635699000,0.235698974609375,0.10011768341064453,-0.09045052528381348,-0.006983533501625061
1771073611645639000,0.245638916015625,0.21869564056396484,-0.08195865154266357,0.02132079005241394
1771073611655578400,0.255578369140625,0.27504634857177734,-0.06991565227508545,0.013038530945777893
1771073611665518000,0.26551806640625,0.256744384765625,-0.04825460910797119,-0.025809891521930695
1771073611675457800,0.275457763671875,0.1854839324951172,-0.03355860710144043,-0.023878194391727448
1771073611685397500,0.2853974609375,0.09994220733642578,-0.04639112949371338,0.0003190040588378906
1771073611695337200,0.295337158203125,-0.024834632873535156,-0.026059389114379883,0.026916757225990295
1771073611705277000,0.30527685546875,-0.13275814056396484,0.010760664939880371,0.06425690650939941
1771073611715216600,0.315216552734375,-0.13767433166503906,0.06422805786132812,0.0780489593744278
1771073611725156400,0.32515625,-0.1887350082397461,0.10462653636932373,0.1281740963459015
1771073611735096000,0.335095947265625,-0.28235435485839844,0.06945466995239258,0.12320105731487274
1771073611745035800,0.345035888671875,-0.17275524139404297,0.027022361755371094,0.07675106823444366
1771073611754975200,0.354975341796875,-0.03756999969482422,0.0021109580993652344,0.07474522292613983
1771073611764915000,0.3649150390625,0.009463310241699219,-0.004591107368469238,0.058825671672821045
1771073611774854700,0.374854736328125,0.0201263427734375,0.014702558517456055,0.059793755412101746
1771073611784794400,0.38479443359375,-0.013547897338867188,0.042296528816223145,0.06263607740402222
1771073611794734000,0.394734130859375,0.0236053466796875,0.04963350296020508,0.042886555194854736
1771073611804673800,0.404673828125,0.11102867126464844,0.032576560974121094,-0.018717288970947266
1771073611814613500,0.414613525390625,0.18009567260742188,0.010009169578552246,-0.0434487909078598
1771073611824553200,0.42455322265625,0.09641075134277344,0.03567802906036377,-0.021403774619102478
1771073611834493000,0.434492919921875,0.026846885681152344,0.06027841567993164,0.02064518630504608
1771073611844432600,0.4444326171875,-0.02221202850341797,0.04482829570770264,0.08308517932891846
1771073611854372400,0.454372314453125,-0.02350139617919922,0.01658499240875244,0.11949481070041656
1771073611864311800,0.464311767578125,0.014739036560058594,0.02037787437438965,0.11452582478523254
1771073611874251500,0.47425146484375,0.09395408630371094,0.038884520530700684,0.10719963908195496
1771073611884191200,0.484191162109375,0.12204265594482422,0.04159235954284668,0.0917123556137085
1771073611894131000,0.494130859375,0.16103649139404297,0.005301237106323242,0.11111384630203247
1771073611914010400,0.51401025390625,0.192138671875,-0.0731271505355835,0.16702419519424438
1771073611923950000,0.5239501953125,0.16403579711914062,-0.09528827667236328,0.18762698769569397
1771073611933889800,0.533889892578125,0.1087026596069336,-0.08785414695739746,0.160580575466156
1771073611943829500,0.54382958984375,0.08067798614501953,-0.08690190315246582,0.1205645501613617
1771073611953769200,0.553769287109375,0.034839630126953125,-0.10636365413665771,0.05045190453529358
1771073611963708700,0.563708740234375,-0.02390575408935547,-0.11004281044006348,0.015701711177825928
1771073611973648400,0.5736484375,-0.03223228454589844,-0.11112785339355469,-0.014706194400787354
1771073611983588000,0.583588134765625,-0.0640115737915039,-0.10457611083984375,-0.047106191515922546
1771073611993527800,0.59352783203125,-0.06956005096435547,-0.1066673994064331,-0.10724487900733948
1771073612003467500,0.603467529296875,-0.028154373168945312,-0.1292884349822998,-0.16177308559417725
1771073612013407200,0.6134072265625,-0.036849021911621094,-0.11635744571685791,-0.1664060652256012
1771073612023347200,0.62334716796875,-0.040561676025390625,-0.08311951160430908,-0.11752914637327194
1771073612033287000,0.633286865234375,-0.09340953826904297,-0.07029879093170166,-0.11204855144023895
1771073612043226600,0.6432265625,-0.15695858001708984,-0.07038319110870361,-0.11355731636285782
1771073612053166300,0.653166259765625,-0.19585418701171875,-0.061470985412597656,-0.12458998709917068
1771073612063106000,0.66310595703125,-0.15408611297607422,-0.03624856472015381,-0.14114037156105042
1771073612073045800,0.673045654296875,-0.09186649322509766,0.0006201267242431641,-0.15581762790679932
1771073612082985500,0.6829853515625,-0.07788944244384766,-0.0001035928726196289,-0.18541060388088226
1771073612092925200,0.69292529296875,-0.026610374450683594,-0.02120673656463623,-0.22286845743656158
1771073612102865000,0.702864990234375,-0.021068572998046875,-0.036452531814575195,-0.20860472321510315
1771073612112804600,0.7128046875,0.007702827453613281,-0.04328358173370361,-0.15252074599266052
1771073612122744600,0.72274462890625,0.09704017639160156,-0.035179972648620605,-0.11293439567089081
1771073612132684300,0.732684326171875,0.13531875610351562,-0.012691736221313477,-0.08139167726039886
1771073612142624000,0.7426240234375,0.10230350494384766,0.02353811264038086,-0.04909609258174896
1771073612152563700,0.752563720703125,0.06285381317138672,0.04462838172912598,-0.019389912486076355
1771073612162503400,0.76250341796875,0.01713275909423828,0.06240570545196533,-0.028163224458694458
1771073612172443100,0.772443115234375,0.0029430389404296875,0.07683026790618896,-0.02577468752861023
1771073612182382800,0.7823828125,-0.015570640563964844,0.06451249122619629,-0.017297357320785522
1771073612192322600,0.792322509765625,-0.10676288604736328,0.06662106513977051,-0.01432579755783081
1771073612202262300,0.80226220703125,-0.15196990966796875,0.07233738899230957,0.009648635983467102
1771073612212202200,0.8122021484375,-0.06257152557373047,0.05600905418395996,0.02655959129333496
1771073612222142000,0.822141845703125,0.10275936126708984,0.017509937286376953,0.023751169443130493
1771073612232081700,0.83208154296875,0.19701671600341797,-0.010918021202087402,0.01100669801235199
1771073612242021400,0.842021484375,0.2568349838256836,0.0030192136764526367,0.0200585275888443
1771073612251961000,0.851961181640625,0.22397232055664062,-0.002902507781982422,-0.012062221765518188
1771073612261900800,0.86190087890625,0.10941600799560547,-0.019035935401916504,-0.049353837966918945
1771073612271840500,0.871840576171875,-0.007830619812011719,-0.04019975662231445,-0.04763898253440857
1771073612281780200,0.8817802734375,-0.09245586395263672,-0.04237091541290283,-0.018461808562278748
1771073612291720000,0.891719970703125,-0.05318737030029297,-0.037543535232543945,0.006078377366065979
1771073612301660000,0.901659912109375,-0.03800773620605469,-0.01436161994934082,-0.013365089893341064
1771073612311599600,0.911599609375,-0.05121803283691406,-0.020314574241638184,-0.028295785188674927
1771073612321539300,0.921539306640625,-0.059416770935058594,-0.02901136875152588,-0.03492230176925659
1771073612331479000,0.93147900390625,-0.1051177978515625,-0.02372574806213379,-0.03516046702861786
1771073612341418800,0.941418701171875,-0.12422561645507812,-0.015868186950683594,-0.0374351441860199
1771073612351358500,0.9513583984375,-0.07711124420166016,-0.012644529342651367,-0.05988707393407822
1771073612361298200,0.961298095703125,0.0305023193359375,-0.023689746856689453,-0.056529998779296875
1771073612371238000,0.97123779296875,0.07279109954833984,-0.036795616149902344,-0.058677494525909424
1771073612381177600,0.981177490234375,0.10257244110107422,-0.056334495544433594,-0.009556561708450317
1771073612391117600,0.99111767578125,0.07286453247070312,-0.05355191230773926,0.03728702664375305
1771073612401057300,1.001057373046875,0.010469436645507812,-0.052068233489990234,0.05264417827129364
1771073612410997000,1.0109970703125,-0.00396728515625,-0.03343081474304199,0.071438267827034
1771073612420936700,1.020936767578125,-0.02757740020751953,-0.0035431385040283203,0.09195995330810547
1771073612430876400,1.03087646484375,-0.05058479309082031,0.017578125,0.10472089052200317
1771073612440816000,1.040816162109375,-0.09409809112548828,0.05087137222290039,0.13532713055610657
1771073612450755800,1.050755859375,-0.18132877349853516,0.07513260841369629,0.17522606253623962
1771073612460695600,1.060695556640625,-0.2057504653930664,0.07953453063964844,0.19986532628536224
1771073612470635300,1.07063525390625,-0.09558296203613281,0.05098080635070801,0.1745636761188507
1771073612480575000,1.080574951171875,-0.055619239807128906,0.020938634872436523,0.126722052693367
1771073612490515000,1.090514892578125,-0.049429893493652344,0.008577108383178711,0.07740162312984467
1771073612500454700,1.10045458984375,-0.04592418670654297,0.025870084762573242,0.03955887258052826
1771073612510394400,1.110394287109375,-0.02864837646484375,0.013764142990112305,0.022718459367752075
1771073612520334000,1.120333984375,0.01629161834716797,-0.010865211486816406,0.029837533831596375
1771073612530273800,1.130273681640625,0.06964302062988281,-0.03633546829223633,0.03306138515472412
1771073612540213500,1.140213623046875,0.1220245361328125,-0.051764488220214844,0.04488714039325714
1771073612550153200,1.1501533203125,0.07704639434814453,-0.06027102470397949,0.06066279113292694
1771073612560093000,1.160093017578125,0.047149658203125,-0.039137840270996094,0.07727694511413574
1771073612570032600,1.17003271484375,-0.03145027160644531,-0.014761209487915039,0.07227404415607452
1771073612579972600,1.17997265625,-0.10155868530273438,-0.01719808578491211,0.031646788120269775
1771073612589912300,1.189912353515625,-0.1351757049560547,-0.04314470291137695,-0.0038311034440994263
1771073612599852000,1.19985205078125,-0.13066864013671875,-0.0634620189666748,-0.024508804082870483
1771073612609791700,1.209791748046875,-0.10286617279052734,-0.07323932647705078,-0.03973083198070526
1771073612619731500,1.2197314453125,-0.08042335510253906,-0.07725381851196289,-0.061721011996269226
1771073612629671200,1.229671142578125,-0.058508872985839844,-0.06157326698303223,-0.06253382563591003
1771073612639611000,1.23961083984375,-0.037120819091796875,-0.05712902545928955,-0.08236712217330933
1771073612649550600,1.249550537109375,-0.0632944107055664,-0.06157636642456055,-0.08080212771892548
1771073612659490300,1.259490234375,-0.0584564208984375,-0.04691362380981445,-0.051431044936180115
1771073612669430300,1.26943017578125,-0.09131908416748047,-0.035050392150878906,-0.0392085462808609
1771073612679370000,1.279369873046875,-0.13999176025390625,-0.01917576789855957,-0.023257076740264893
1771073612689309700,1.289309814453125,-0.07236289978027344,0.017116785049438477,-0.018100544810295105
1771073612699249400,1.29924951171875,0.022566795349121094,0.02846360206604004,-0.020569950342178345
1771073612709189000,1.309189208984375,0.07134056091308594,0.027054429054260254,-0.00857439637184143
1771073612719128800,1.31912890625,0.0652627944946289,0.01801133155822754,0.0014430135488510132
1771073612729068500,1.329068603515625,0.040421485900878906,0.011570930480957031,-0.0093773752450943
1771073612739008300,1.33900830078125,0.011271476745605469,0.012305259704589844,-0.0075906068086624146
1771073612748948000,1.348947998046875,-0.022161483764648438,0.034519076347351074,-0.01774570345878601
1771073612758888000,1.358887939453125,-0.015107154846191406,0.03803420066833496,-0.007122516632080078
1771073612768827600,1.36882763671875,0.09058570861816406,0.04925847053527832,0.0024455636739730835
1771073612778767400,1.378767333984375,0.21809005737304688,0.06020700931549072,0.0065454840660095215
1771073612788707000,1.38870703125,0.23058223724365234,0.06567609310150146,0.020111292600631714
1771073612798646800,1.398646728515625,0.15585994720458984,0.04465949535369873,0.021679311990737915
1771073612808586500,1.40858642578125,0.03302955627441406,0.04007101058959961,0.02767166495323181
1771073612818526200,1.418526123046875,-0.031188011169433594,0.05644261837005615,0.05952271819114685
1771073612828466000,1.4284658203125,-0.042441368103027344,0.08381032943725586,0.0721491128206253
1771073612838405600,1.438405517578125,0.014849662780761719,0.11257803440093994,0.05024704337120056
1771073612848345000,1.448344970703125,0.11830997467041016,0.11457908153533936,0.01659470796585083
1771073612858284800,1.458284912109375,0.1965808868408203,0.09947860240936279,-0.014406517148017883
1771073612868224500,1.468224609375,0.2383565902709961,0.04392063617706299,-0.09090287238359451
1771073612878164200,1.478164306640625,0.173675537109375,0.007333517074584961,-0.11042024940252304
1771073612888104000,1.48810400390625,0.07015609741210938,-0.010106563568115234,-0.08946982026100159
1771073612898043600,1.498043701171875,-0.050537109375,-0.0031151771545410156,-0.06008993834257126
1771073612907983400,1.5079833984375,-0.08699226379394531,0.009562134742736816,-0.0599483847618103
1771073612917923000,1.517923095703125,-0.0006074905395507812,0.03960597515106201,-0.0640578418970108
1771073612927862800,1.52786279296875,0.09837913513183594,0.041291236877441406,-0.05842013657093048
1771073612937802500,1.537802490234375,0.045096397399902344,0.028416156768798828,-0.034818246960639954
1771073612947742000,1.547741943359375,-0.00962066650390625,0.020153284072875977,0.011199116706848145
1771073612957681700,1.557681640625,-0.018602371215820312,0.013767838478088379,0.04889380931854248
1771073612967621400,1.567621337890625,-0.0013828277587890625,-0.0004813671112060547,0.0547993928194046
1771073612977561000,1.57756103515625,-0.02669048309326172,-0.027069926261901855,0.012645795941352844
1771073612987500800,1.587500732421875,-0.051468849182128906,-0.041947364807128906,-0.0051996707916259766
1771073612997440500,1.5974404296875,-0.031068801879882812,-0.05196857452392578,-0.01861637830734253
1771073613007380200,1.607380126953125,0.014791488647460938,-0.06131935119628906,-0.029795780777931213
1771073613017320000,1.61731982421875,0.010279655456542969,-0.055579423904418945,0.0015630871057510376
1771073613027259600,1.627259765625,0.022139549255371094,-0.0466763973236084,0.020444616675376892
1771073613037199400,1.637199462890625,0.02892589569091797,-0.051244497299194336,-0.003528282046318054
1771073613047139000,1.64713916015625,0.014347076416015625,-0.07426786422729492,-0.05764955282211304
1771073613057078500,1.65707861328125,-0.04473686218261719,-0.08738565444946289,-0.054627642035484314
1771073613067018200,1.667018310546875,-0.13812637329101562,-0.0673210620880127,-0.03425915539264679
1771073613076958000,1.6769580078125,-0.11698532104492188,-0.02374577522277832,0.00041428208351135254
1771073613086897700,1.686897705078125,-0.06560707092285156,0.0003705024719238281,0.015355929732322693
1771073613096837400,1.69683740234375,-0.06688785552978516,-0.020648479461669922,0.01889580488204956
1771073613106777000,1.706777099609375,-0.00455474853515625,-0.03680586814880371,-0.005098715424537659
1771073613116716800,1.716716796875,0.02390289306640625,-0.03690767288208008,-0.01802290976047516
1771073613126656500,1.726656494140625,-0.009129524230957031,-0.009756088256835938,-0.022830218076705933
1771073613136596200,1.73659619140625,-0.07680225372314453,0.016340255737304688,-0.013269588351249695
1771073613146536000,1.746535888671875,-0.1315622329711914,0.032579898834228516,-0.023337528109550476
1771073613156475600,1.7564755859375,-0.1126546859741211,0.040228843688964844,-0.04277575761079788
1771073613166415400,1.766415283203125,-0.11308956146240234,0.0298154354095459,-0.06634217500686646
1771073613176355000,1.77635498046875,-0.0925302505493164,0.020572662353515625,-0.0735546350479126
1771073613186294800,1.786294677734375,0.012396812438964844,0.023553848266601562,-0.0888044685125351
1771073613196234500,1.796234375,0.06860542297363281,0.03069615364074707,-0.07389083504676819
1771073613206174200,1.80617431640625,0.09347057342529297,0.043883323669433594,-0.050463415682315826
1771073613216114200,1.8161142578125,0.049869537353515625,0.04172945022583008,-0.03999445587396622
1771073613226054000,1.826053955078125,0.0000095367431640625,0.03460264205932617,-0.05176367610692978
1771073613235993600,1.83599365234375,0.000408172607421875,0.037111520767211914,-0.03783746063709259
1771073613245933300,1.845933349609375,0.0030460357666015625,0.025948762893676758,-0.01676073670387268
1771073613255873000,1.855873046875,0.06669139862060547,0.01096200942993164,-0.00938577950000763
1771073613265812700,1.865812744140625,0.09852313995361328,0.027431726455688477,0.003726974129676819
1771073613275752400,1.87575244140625,0.059113502502441406,0.04156970977783203,0.06482318043708801
1771073613285692200,1.885692138671875,0.07921028137207031,0.04133749008178711,0.08077256381511688
1771073613295632000,1.8956318359375,0.07546234130859375,0.024425029754638672,0.026388362050056458
1771073613305571800,1.90557177734375,0.022443771362304688,0.019074678421020508,-0.008438736200332642
1771073613315511600,1.915511474609375,-0.09784412384033203,0.039212703704833984,0.07884173095226288
1771073613325451300,1.925451171875,-0.16204261779785156,0.012317180633544922,0.11180447041988373
1771073613335391000,1.935390869140625,-0.14998245239257812,-0.01579451560974121,0.07377317547798157
1771073613345330700,1.94533056640625,-0.10540103912353516,-0.02361011505126953,0.023764118552207947
1771073613355270400,1.9552705078125,-0.03110504150390625,-0.014308929443359375,-0.018320530652999878
1771073613365210000,1.965210205078125,-0.040465354919433594,-0.0029952526092529297,-0.016245529055595398
1771073613375149800,1.97514990234375,-0.12491512298583984,0.021665334701538086,0.01409575343132019
1771073613385089500,1.985089599609375,-0.22905254364013672,0.04080796241760254,-0.010219186544418335
1771073613395029200,1.995029296875,-0.2208108901977539,0.03393268585205078,-0.09487941116094589
1771073613404969200,2.00496923828125,-0.15861034393310547,0.011094331741333008,-0.17068696022033691
1771073613414909000,2.014908935546875,-0.1611185073852539,0.012885332107543945,-0.18707087635993958
1771073613424848600,2.0248486328125,-0.18966197967529297,0.02516460418701172,-0.14824745059013367
1771073613434788400,2.034788330078125,-0.21094512939453125,0.04108691215515137,-0.08466295152902603
1771073613444728000,2.04472802734375,-0.24628543853759766,0.06293964385986328,0.009078234434127808
1771073613454667800,2.054667724609375,-0.2035818099975586,0.05971240997314453,0.02812480926513672
1771073613464607500,2.064607421875,-0.1194305419921875,0.043393731117248535,0.0248691588640213
1771073613474547200,2.074547119140625,-0.013226509094238281,0.04412209987640381,0.02163885533809662
1771073613484487000,2.08448681640625,0.051321983337402344,0.04403793811798096,0.03968328237533569
1771073613494427000,2.094427001953125,0.03266716003417969,0.044914841651916504,0.07988938689231873
1771073613504366600,2.10436669921875,0.02640819549560547,0.07253384590148926,0.09811985492706299
1771073613514306300,2.114306396484375,0.05820274353027344,0.08191680908203125,0.07058122754096985
1771073613524246000,2.12424609375,0.08963775634765625,0.07151937484741211,0.03362548351287842
1771073613534185700,2.134185791015625,0.059378623962402344,0.06336140632629395,0.04083232581615448
1771073613544125400,2.14412548828125,-0.02465534210205078,0.07468044757843018,0.049585968255996704
1771073613554065200,2.154065185546875,-0.07460689544677734,0.10123491287231445,0.05675216019153595
1771073613564004900,2.1640048828125,-0.11932086944580078,0.13119494915008545,0.054341286420822144
1771073613573944600,2.173944580078125,-0.09765338897705078,0.14095890522003174,0.03683081269264221
1771073613583884500,2.183884521484375,-0.06948280334472656,0.12105011940002441,0.00405508279800415
1771073613593824300,2.19382421875,0.04055500030517578,0.09010887145996094,-0.0008379220962524414
1771073613603764000,2.203763916015625,0.1441936492919922,0.08253693580627441,0.03696756064891815
1771073613613703700,2.21370361328125,0.19931888580322266,0.08066248893737793,0.06506578624248505
1771073613623643400,2.223643310546875,0.22323226928710938,0.07967519760131836,0.047488123178482056
1771073613633583000,2.2335830078125,0.17874813079833984,0.07740664482116699,-0.003671973943710327
1771073613643522800,2.243522705078125,0.080963134765625,0.08880221843719482,-0.0001891404390335083
1771073613653462500,2.253462646484375,0.015334129333496094,0.08863568305969238,0.047967225313186646
1771073613663402200,2.26340234375,0.033064842224121094,0.09377431869506836,0.08941377699375153
1771073613673342000,2.273342041015625,0.04331493377685547,0.11108827590942383,0.11775732040405273
1771073613683282000,2.283281982421875,0.020386695861816406,0.11182308197021484,0.08044500648975372
1771073613693221600,2.2932216796875,-0.0352020263671875,0.09184837341308594,0.04060204327106476
1771073613703161300,2.303161376953125,-0.04991340637207031,0.05857968330383301,0.0163077712059021
1771073613713101000,2.31310107421875,-0.007952690124511719,0.0240095853805542,0.04056195914745331
1771073613723040800,2.323040771484375,0.10631179809570312,0.004141807556152344,0.07528510689735413
1771073613732980500,2.33298046875,0.29416656494140625,-0.011484146118164062,0.06736932694911957
1771073613742920200,2.342920166015625,0.3614063262939453,-0.0516817569732666,0.021098539233207703
1771073613752860000,2.35285986328125,0.30768489837646484,-0.07366204261779785,0.017121702432632446
1771073613762799600,2.362799560546875,0.16552352905273438,-0.09126174449920654,0.027798116207122803
1771073613772739600,2.372739501953125,0.02578258514404297,-0.08287155628204346,0.021236449480056763
1771073613782679300,2.38267919921875,0.01788616180419922,-0.06294941902160645,-0.01406736671924591
1771073613792619000,2.392618896484375,0.03372669219970703,-0.04600703716278076,-0.03267991542816162
1771073613802558700,2.402558837890625,0.037573814392089844,-0.04837298393249512,-0.04186137765645981
1771073613812498400,2.41249853515625,0.053208351135253906,-0.0534440279006958,-0.015790730714797974
1771073613822438100,2.422438232421875,-0.023133277893066406,-0.05186271667480469,-0.004737913608551025
1771073613832377900,2.4323779296875,-0.095794677734375,-0.052860260009765625,-0.02068561315536499
1771073613842317600,2.442317626953125,-0.1907825469970703,-0.027840375900268555,0.006926402449607849
1771073613852257300,2.45225732421875,-0.26076221466064453,-0.016666412353515625,0.04724402725696564
1771073613862197200,2.462197265625,-0.2427082061767578,-0.0020340681076049805,0.07737049460411072
1771073613872137000,2.472136962890625,-0.1898965835571289,-0.01932048797607422,0.0700610876083374
1771073613882076700,2.48207666015625,-0.10042953491210938,-0.04279446601867676,0.0193556547164917
1771073613892016400,2.492016357421875,-0.15613365173339844,-0.06558215618133545,-0.05321088433265686
1771073613901956000,2.5019560546875,-0.19686317443847656,-0.05462944507598877,-0.04649582505226135
1771073613911895800,2.511895751953125,-0.19458961486816406,-0.029536843299865723,0.0035015642642974854
1771073613921835500,2.52183544921875,-0.13833141326904297,-0.01369178295135498,0.020697280764579773
1771073613931775200,2.531775146484375,0.010980606079101562,0.0027753114700317383,-0.020341232419013977
1771073613941715000,2.54171484375,0.14818954467773438,0.003481745719909668,-0.07857711613178253
1771073613951655000,2.551655029296875,0.1864910125732422,-0.018857955932617188,-0.14010831713676453
1771073613961594600,2.5615947265625,0.1393270492553711,-0.03795433044433594,-0.13071393966674805
1771073613971534300,2.571534423828125,0.1212472915649414,-0.026112079620361328,-0.10024179518222809
1771073613981474000,2.58147412109375,0.17664051055908203,0.0013266801834106445,-0.0592605322599411
1771073613991413800,2.591413818359375,0.28320789337158203,0.03161883354187012,0.014069229364395142
1771073614001353500,2.601353515625,0.3059988021850586,0.045270562171936035,0.049385443329811096
1771073614011293200,2.611293212890625,0.30051708221435547,0.040305376052856445,0.02965007722377777
1771073614021232600,2.621232666015625,0.21529865264892578,0.034125328063964844,0.0019880682229995728
1771073614031172400,2.63117236328125,0.15513134002685547,0.027355074882507324,0.02861124277114868
1771073614051051800,2.6510517578125,0.16930580139160156,0.04581940174102783,0.15942396223545074
1771073614060991500,2.660991455078125,0.1618366241455078,0.04675483703613281,0.05595313012599945
1771073614070931200,2.67093115234375,0.1262960433959961,0.02598857879638672,-0.027643024921417236
1771073614080871000,2.680870849609375,0.09376144409179688,0.0006694793701171875,-0.02383004128932953
1771073614090810600,2.690810546875,0.21014690399169922,-0.014898896217346191,-0.04093025624752045
1771073614100750300,2.700750244140625,0.28003883361816406,-0.03580653667449951,-0.05857512354850769
1771073614110690000,2.71068994140625,0.25476646423339844,-0.05490100383758545,-0.05763886868953705
1771073614120629500,2.72062939453125,0.09590911865234375,-0.04631936550140381,-0.05342558026313782
1771073614130569200,2.7305693359375,-0.05086326599121094,-0.04013264179229736,-0.041693150997161865
1771073614140509000,2.740509033203125,-0.1859111785888672,-0.026076316833496094,-0.0243358314037323
1771073614150448600,2.75044873046875,-0.22000408172607422,-0.023010969161987305,-0.01224963366985321
1771073614160388400,2.760388427734375,-0.15245628356933594,-0.023902058601379395,0.014684125781059265
1771073614170328000,2.770328125,-0.060169219970703125,-0.034200429916381836,0.03802146017551422
1771073614180267800,2.780267822265625,0.0282745361328125,-0.04709267616271973,-0.010817870497703552
1771073614190207500,2.79020751953125,0.03296661376953125,-0.04164457321166992,-0.02071826159954071
1771073614200147200,2.800147216796875,-0.021225929260253906,-0.05308127403259277,-0.016017138957977295
1771073614210087000,2.8100869140625,-0.10989093780517578,-0.08051466941833496,-0.013374239206314087
1771073614220026600,2.820026611328125,-0.14542007446289062,-0.11385786533355713,-0.010419324040412903
1771073614229966000,2.829966064453125,-0.07452011108398438,-0.09189844131469727,-0.00532318651676178
1771073614239905800,2.83990576171875,0.08001041412353516,-0.06109261512756348,0.0058853477239608765
1771073614249845500,2.849845458984375,0.13561058044433594,-0.041028380393981934,-0.0029567182064056396
1771073614259785200,2.85978515625,0.10094928741455078,-0.05957162380218506,-0.021852776408195496
1771073614269725000,2.869724853515625,0.0057086944580078125,-0.07810723781585693,-0.007373645901679993
1771073614279664600,2.87966455078125,-0.03392219543457031,-0.07454311847686768,-0.0018507689237594604
1771073614289604400,2.889604248046875,-0.016519546508789062,-0.05866742134094238,0.02098146080970764
1771073614299544000,2.8995439453125,0.0029010772705078125,-0.026380062103271484,0.046225666999816895
1771073614309483800,2.90948388671875,0.07385444641113281,-0.020833492279052734,0.04488813877105713
1771073614319423500,2.919423583984375,0.1297149658203125,-0.028258800506591797,0.033791735768318176
1771073614329363200,2.92936328125,0.18725013732910156,-0.06051051616668701,0.011528760194778442
1771073614339302400,2.939302490234375,0.12626934051513672,-0.0767512321472168,-0.013748615980148315
1771073614349242000,2.9492421875,-0.0066280364990234375,-0.06958246231079102,-0.009129732847213745
1771073614359181800,2.959181884765625,-0.14447975158691406,-0.05497419834136963,0.0055881887674331665
1771073614369121500,2.96912158203125,-0.30617523193359375,-0.015769124031066895,0.03436173498630524
1771073614379061200,2.979061279296875,-0.32192325592041016,0.010653138160705566,0.06921017169952393
1771073614389001000,2.9890009765625,-0.2929420471191406,0.02871108055114746,0.08403539657592773
1771073614398940700,2.998940673828125,-0.22226715087890625,0.009981513023376465,0.055203333497047424
1771073614408880400,3.00888037109375,-0.04456520080566406,-0.029033660888671875,-0.006934359669685364
1771073614418820400,3.0188203125,0.06194782257080078,-0.09123718738555908,-0.011171132326126099
1771073614428760000,3.028760009765625,0.13153839111328125,-0.11092269420623779,0.04358178377151489
1771073614438699800,3.03869970703125,0.14361190795898438,-0.1193075180053711,0.07876861095428467
1771073614448639500,3.048639404296875,0.12733936309814453,-0.09058713912963867,0.09565448760986328
1771073614458579200,3.0585791015625,0.050238609313964844,-0.04891645908355713,0.07310011982917786
1771073614468519000,3.068518798828125,-0.03957939147949219,-0.02757108211517334,0.052086859941482544
1771073614478458600,3.078458740234375,-0.15847492218017578,0.002547740936279297,0.07736419141292572
1771073614488398300,3.0883984375,-0.2683067321777344,0.03442108631134033,0.09996570646762848
1771073614498338000,3.098338134765625,-0.1857004165649414,0.07342708110809326,0.09295602142810822
1771073614508278000,3.108278076171875,-0.008024215698242188,0.060488224029541016,0.0007272064685821533
1771073614518217700,3.1182177734375,0.1288890838623047,0.006097078323364258,-0.08287636935710907
1771073614528157400,3.128157470703125,0.16689491271972656,-0.04441654682159424,-0.14700289070606232
1771073614538097200,3.13809716796875,0.1641855239868164,-0.08414900302886963,-0.1650836318731308
1771073614548036900,3.148036865234375,0.10970783233642578,-0.03579843044281006,-0.11434955894947052
1771073614557976600,3.1579765625,0.04438304901123047,0.004781484603881836,-0.049864545464515686
1771073614567916300,3.167916259765625,0.0014209747314453125,0.027898550033569336,-0.025468260049819946
1771073614577856000,3.17785595703125,-0.0076961517333984375,0.023827791213989258,0.0034683644771575928
1771073614587795700,3.187795654296875,-0.037689208984375,0.011750578880310059,0.040682703256607056
1771073614597735400,3.1977353515625,-0.08591079711914062,0.024954915046691895,0.020874470472335815
1771073614607675400,3.20767529296875,-0.11912155151367188,0.020849227905273438,0.007902547717094421
1771073614617615000,3.217614990234375,-0.07638835906982422,0.006988048553466797,-0.01299247145652771
1771073614627554800,3.227554931640625,-0.10498523712158203,0.01915919780731201,-0.016477122902870178
1771073614637494500,3.23749462890625,-0.15430927276611328,0.024163007736206055,-0.02231895923614502
1771073614647434200,3.247434326171875,-0.13229084014892578,0.017918109893798828,-0.05655282735824585
1771073614657374000,3.2573740234375,-0.03780174255371094,0.003171205520629883,-0.10709189623594284
1771073614667313700,3.267313720703125,0.0667409896850586,-0.019931793212890625,-0.11035610735416412
1771073614677253400,3.27725341796875,0.14826488494873047,-0.032721877098083496,-0.10711804032325745
1771073614687193000,3.287193115234375,0.1553792953491211,-0.047249674797058105,-0.09034620225429535
1771073614697133000,3.297133056640625,0.08934307098388672,-0.06358456611633301,-0.08392871916294098
1771073614707072800,3.30707275390625,-0.020416259765625,-0.06491470336914062,-0.1001841127872467
1771073614717012500,3.317012451171875,-0.036495208740234375,-0.05914950370788574,-0.09228692203760147
1771073614726952200,3.3269521484375,0.042016029357910156,-0.014150261878967285,-0.02438633143901825
1771073614736892000,3.336891845703125,0.01583099365234375,-0.01809549331665039,0.0032556354999542236
1771073614746831600,3.34683154296875,-0.02859973907470703,-0.06761538982391357,-0.022415518760681152
1771073614756771300,3.356771240234375,-0.08875560760498047,-0.06942009925842285,0.0007885545492172241
1771073614766711000,3.3667109375,-0.14557456970214844,-0.01940155029296875,0.06249372661113739
1771073614776650800,3.376650634765625,-0.18979644775390625,0.00682830810546875,0.08358260989189148
1771073614786590700,3.3865908203125,-0.13221263885498047,-0.011216163635253906,0.040312543511390686
1771073614796530400,3.396530517578125,-0.061539649963378906,-0.021391987800598145,0.013186931610107422
1771073614806470100,3.40647021484375,-0.0037851333618164062,-0.0056008100509643555,0.03996343910694122
1771073614816409900,3.416409912109375,-0.00348663330078125,0.007567167282104492,0.05643557012081146
1771073614826349600,3.426349609375,-0.007802009582519531,-0.01294410228729248,0.032610341906547546
1771073614836289300,3.436289306640625,-0.04269886016845703,-0.021140575408935547,0.002499490976333618
1771073614846229000,3.44622900390625,0.03825950622558594,-0.012311458587646484,-0.0055186450481414795
1771073614856168700,3.456168701171875,0.084808349609375,-0.0032205581665039062,0.0018234103918075562
1771073614866108400,3.4661083984375,0.07868003845214844,0.0203477144241333,0.007149174809455872
1771073614876048100,3.476048095703125,0.058483123779296875,0.02253425121307373,-0.0037941932678222656
1771073614885988000,3.485988037109375,-0.013170242309570312,0.008210062980651855,-0.026484817266464233
1771073614895927800,3.495927734375,-0.02479076385498047,0.013168096542358398,-0.019287437200546265
1771073614905867500,3.505867431640625,0.0038661956787109375,0.04138302803039551,0.010173425078392029
1771073614915807200,3.51580712890625,0.048638343811035156,0.04743766784667969,-0.011076569557189941
1771073614925747000,3.525746826171875,0.11632823944091797,0.036318063735961914,-0.02977663278579712
1771073614935686700,3.535686767578125,0.10766124725341797,0.034209489822387695,-0.03842681646347046
1771073614945626400,3.54562646484375,0.028583526611328125,0.03644704818725586,-0.025464534759521484
1771073614955566000,3.555566162109375,-0.011541366577148438,0.029426097869873047,-0.03652229905128479
1771073614965505800,3.565505859375,-0.003985404968261719,0.022924184799194336,-0.049869686365127563
1771073614975445800,3.57544580078125,0.04105091094970703,0.03566896915435791,0.0006320178508758545
1771073614985385500,3.585385498046875,0.038292884826660156,0.04093480110168457,0.0361052006483078
1771073614995325200,3.5953251953125,0.014422416687011719,0.043648600578308105,0.03772512078285217
1771073615005265000,3.605264892578125,0.007468223571777344,0.017957687377929688,-0.01329733431339264
1771073615015204600,3.61520458984375,0.03830528259277344,0.004477143287658691,-0.03787025809288025
1771073615025144300,3.625144287109375,0.033310890197753906,0.033512234687805176,0.03782758116722107
1771073615035084000,3.635083984375,-0.0140228271484375,0.05755507946014404,0.12668894231319427
1771073615045023700,3.645023681640625,-0.03470325469970703,0.0626453161239624,0.14720752835273743
1771073615054963500,3.65496337890625,-0.04099750518798828,0.028108954429626465,0.08699654042720795
1771073615064903400,3.6649033203125,-0.04964160919189453,-0.010068178176879883,0.05149151384830475
1771073615074843100,3.674843017578125,-0.046402931213378906,-0.0404510498046875,0.07607482373714447
1771073615084782800,3.684782958984375,0.0462493896484375,-0.03286612033843994,0.09238873422145844
1771073615094722600,3.69472265625,0.10686206817626953,-0.016891837120056152,0.07818691432476044
1771073615104662300,3.704662353515625,0.11016464233398438,-0.00003325939178466797,0.06330591440200806
1771073615114602000,3.71460205078125,0.09244441986083984,-0.022223591804504395,0.020322158932685852
1771073615124541700,3.724541748046875,0.09407901763916016,-0.06622707843780518,-0.0300462543964386
1771073615134481400,3.7344814453125,0.06995773315429688,-0.10548102855682373,-0.08083340525627136
1771073615144421000,3.744421142578125,0.006283760070800781,-0.1301426887512207,-0.08959518373012543
1771073615154361000,3.754361083984375,-0.06343650817871094,-0.10925686359405518,-0.0549178272485733
1771073615164300800,3.76430078125,-0.035645484924316406,-0.06417858600616455,-0.005216971039772034
1771073615174240500,3.774240478515625,-0.006130218505859375,-0.01670241355895996,0.022906750440597534
1771073615184180200,3.78418017578125,-0.09970855712890625,0.016648173332214355,0.013752251863479614
1771073615194120000,3.794119873046875,-0.16844654083251953,0.017773866653442383,0.00020216405391693115
1771073615204059600,3.8040595703125,-0.17032623291015625,-0.0036687850952148438,-0.005719080567359924
1771073615213999400,3.813999267578125,-0.1416606903076172,-0.033872127532958984,-0.012598231434822083
1771073615223939000,3.82393896484375,-0.07573127746582031,-0.045233964920043945,0.014674797654151917
1771073615233878800,3.833878662109375,-0.010636329650878906,-0.03896832466125488,0.020902961492538452
1771073615243818500,3.843818603515625,-0.023993492126464844,-0.027347326278686523,0.02463352680206299
1771073615253758500,3.853758544921875,-0.0698843002319336,-0.005062699317932129,0.004002079367637634
1771073615263698000,3.863697998046875,-0.07978439331054688,-0.015619993209838867,-0.03779192268848419
1771073615273637600,3.8736376953125,-0.045065879821777344,-0.02234518527984619,-0.0829397439956665
1771073615283577300,3.883577392578125,-0.013575553894042969,-0.015875577926635742,-0.1072259247303009
1771073615293517000,3.89351708984375,-0.01587390899658203,-0.01045989990234375,-0.10195977985858917
1771073615303456800,3.903456787109375,0.04518413543701172,-0.027476191520690918,-0.1294829547405243
1771073615313397500,3.9133974609375,0.10043621063232422,-0.03909611701965332,-0.14236152172088623
1771073615323336400,3.92333642578125,0.1289358139038086,-0.03198230266571045,-0.11278800666332245
1771073615333275400,3.933275390625,0.0982513427734375,-0.009102344512939453,-0.08727770298719406
1771073615343214300,3.94321435546875,0.058876991271972656,0.012492537498474121,-0.07089070975780487
1771073615353153300,3.9531533203125,0.034432411193847656,0.04724860191345215,-0.08191078156232834
1771073615363092500,3.963092529296875,0.008057594299316406,0.02481842041015625,-0.09957030415534973
1771073615373031700,3.97303173828125,-0.010837554931640625,-0.006648659706115723,-0.099418044090271
1771073615382971100,3.98297119140625,-0.041228294372558594,-0.0068814754486083984,-0.05603314936161041
1771073615392910600,3.99291064453125,-0.061763763427734375,0.012017607688903809,0.006022050976753235
1771073615402850300,4.002850341796875,-0.058506011962890625,0.0074503421783447266,0.00415569543838501
1771073615412790000,4.0127900390625,0.00348663330078125,-0.015575528144836426,-0.006598219275474548
1771073615422730000,4.02272998046875,0.14452552795410156,-0.028992056846618652,-0.026271387934684753
1771073615432670000,4.032669921875,0.18694400787353516,-0.024637818336486816,-0.05237989127635956
1771073615442610200,4.042610107421875,0.10416507720947266,-0.002912282943725586,-0.05724304914474487
1771073615452550400,4.05255029296875,-0.05003070831298828,0.02001357078552246,-0.04937686771154404
1771073615462490600,4.06249072265625,-0.16630840301513672,0.04021346569061279,-0.03414259850978851
1771073615472431000,4.07243115234375,-0.17012310028076172,0.04911315441131592,0.0070921629667282104
1771073615482371300,4.082371337890625,-0.042163848876953125,0.05150961875915527,0.03742329776287079
1771073615492311600,4.0923115234375,0.09307575225830078,0.04680764675140381,0.03229266405105591
1771073615502251500,4.10225146484375,0.1343231201171875,0.029914140701293945,-0.004516437649726868
1771073615512191200,4.112191162109375,0.04539299011230469,-0.003274202346801758,-0.04887363314628601
1771073615522131000,4.122130859375,-0.08923912048339844,-0.004896283149719238,-0.013804301619529724
1771073615532070700,4.132070556640625,-0.13236522674560547,0.018049001693725586,0.025188982486724854
1771073615542010400,4.14201025390625,-0.017121315002441406,0.029337406158447266,0.010959774255752563
1771073615551950000,4.1519501953125,0.14807701110839844,0.02826535701751709,0.008759289979934692
1771073615561889800,4.161889892578125,0.16952991485595703,0.00943446159362793,0.0042409151792526245
1771073615571829500,4.17182958984375,0.12258243560791016,-0.003124713897705078,0.015959933400154114
1771073615581769200,4.181769287109375,-0.03177165985107422,0.0005010366439819336,0.003701835870742798
1771073615591709000,4.191708984375,-0.15079593658447266,-0.02554309368133545,-0.003623560070991516
1771073615601648600,4.201648681640625,-0.08687591552734375,-0.014333128929138184,-0.012585669755935669
1771073615611588000,4.211588134765625,-0.0383453369140625,0.00936579704284668,0.03582043945789337
1771073615621527800,4.22152783203125,-0.06130409240722656,0.028260231018066406,0.038189440965652466
1771073615631467500,4.231467529296875,-0.0767984390258789,0.020939111709594727,0.022982880473136902
1771073615641407200,4.2414072265625,-0.0872650146484375,-0.0029408931732177734,0.04697667062282562
1771073615651347000,4.251346923828125,-0.05753135681152344,-0.009943842887878418,0.0798090398311615
1771073615661286700,4.26128662109375,-0.07544326782226562,-0.035372138023376465,0.09118692576885223
1771073615671226400,4.271226318359375,-0.020163536071777344,-0.05056953430175781,0.058144718408584595
1771073615681166000,4.281166015625,0.08361625671386719,-0.0608067512512207,0.024415776133537292
1771073615691105800,4.291105712890625,0.11746406555175781,-0.05488777160644531,0.025763243436813354
1771073615701045500,4.30104541015625,0.0684499740600586,-0.028567790985107422,0.033888429403305054
1771073615710985000,4.31098486328125,-0.07853984832763672,0.008491158485412598,0.05803677439689636
1771073615720924700,4.320924560546875,-0.16661834716796875,0.052190303802490234,0.05612434446811676
1771073615730864400,4.330864501953125,-0.06493663787841797,0.04611515998840332,-0.03206680715084076
1771073615740804000,4.34080419921875,0.07498550415039062,0.019556283950805664,-0.12086354196071625
1771073615750743800,4.350743896484375,0.1325092315673828,-0.0015418529510498047,-0.14008590579032898
1771073615760683500,4.36068359375,0.12550735473632812,-0.04798007011413574,-0.13576380908489227
1771073615770623200,4.370623291015625,0.1350688934326172,-0.07215285301208496,-0.1450209617614746
1771073615780563000,4.38056298828125,0.09264278411865234,-0.06510794162750244,-0.12156498432159424
1771073615790502700,4.390502685546875,0.010844230651855469,-0.025012850761413574,-0.066977858543396
1771073615800442400,4.4004423828125,-0.07431507110595703,0.030891776084899902,0.008927121758460999
1771073615810381800,4.4103818359375,-0.08733654022216797,0.0830005407333374,0.06557387113571167
1771073615820321500,4.420321533203125,-0.07876014709472656,0.07672595977783203,0.06330031156539917
1771073615830261200,4.43026123046875,-0.03008270263671875,0.05768299102783203,0.035427480936050415
1771073615840201000,4.440200927734375,-0.01726531982421875,0.0541454553604126,0.05280901491641998
1771073615850140700,4.450140625,-0.03274059295654297,0.06399965286254883,0.05052602291107178
1771073615860080400,4.460080322265625,-0.05730247497558594,0.0639798641204834,0.002988189458847046
1771073615870020000,4.47002001953125,-0.05324077606201172,0.06417596340179443,-0.011062681674957275
1771073615879959800,4.479959716796875,-0.03999137878417969,0.07224917411804199,0.045541971921920776
1771073615889899800,4.489899658203125,0.008153915405273438,0.09060907363891602,0.09603261947631836
1771073615899839500,4.499839599609375,0.11885833740234375,0.08611893653869629,0.06318025290966034
1771073615909779200,4.509779296875,0.1710662841796875,0.049542784690856934,0.011342227458953857
1771073615919719000,4.519718994140625,0.2505836486816406,0.004568219184875488,-0.049631208181381226
1771073615929658600,4.52965869140625,0.2652778625488281,-0.018856525421142578,-0.050116851925849915
1771073615939598300,4.539598388671875,0.2069864273071289,0.006360292434692383,0.013207748532295227
1771073615949538000,4.5495380859375,0.12171459197998047,0.05800056457519531,0.129349023103714
1771073615959477800,4.559477783203125,0.038116455078125,0.0816572904586792,0.1261274814605713
1771073615969417500,4.56941748046875,-0.043906211853027344,0.08987808227539062,0.09990094602108002
1771073615979357400,4.579357421875,-0.07036113739013672,0.0977482795715332,0.06934764981269836
1771073615989297200,4.589297119140625,-0.05875682830810547,0.09155631065368652,0.058698296546936035
1771073615999236900,4.59923681640625,-0.08745574951171875,0.07398271560668945,0.08957140147686005
1771073616009176600,4.609176513671875,-0.09228229522705078,0.05493283271789551,0.08809253573417664
1771073616019116300,4.6191162109375,-0.061855316162109375,0.06033587455749512,0.06385594606399536
1771073616029056000,4.629055908203125,-0.07914447784423828,0.08968806266784668,0.05496707558631897
1771073616038995700,4.63899560546875,-0.049241065979003906,0.09590029716491699,0.05293235182762146
1771073616048935400,4.648935302734375,0.06727886199951172,0.05256175994873047,0.031961143016815186
1771073616058875100,4.658875244140625,0.13022899627685547,0.01385951042175293,0.004454582929611206
1771073616068814800,4.66881494140625,0.1028280258178711,0.012770414352416992,0.021661147475242615
1771073616078754800,4.6787548828125,0.13959789276123047,0.011101007461547852,-0.00930255651473999
1771073616088694500,4.688694580078125,0.15696048736572266,0.002206087112426758,-0.05376221239566803
1771073616098634200,4.69863427734375,0.13630008697509766,-0.0016262531280517578,-0.06358799338340759
1771073616108574000,4.708573974609375,0.07591056823730469,-0.0076410770416259766,-0.06968514621257782
1771073616128453400,4.728453369140625,-0.006217002868652344,0.019800186157226562,-0.034869417548179626
1771073616138393000,4.73839306640625,-0.04742908477783203,0.05451560020446777,-0.0006306320428848267
1771073616148332800,4.748332763671875,-0.0808115005493164,0.03428912162780762,-0.041291043162345886
1771073616158272500,4.7582724609375,-0.11363410949707031,-0.04200243949890137,-0.1104229986667633
1771073616168212500,4.76821240234375,-0.1036367416381836,-0.07413840293884277,-0.0844954252243042
1771073616178152200,4.778152099609375,-0.06324100494384766,-0.05373692512512207,-0.03316807746887207
1771073616188092000,4.788091796875,-0.16239356994628906,-0.06673622131347656,-0.07233710587024689
1771073616198031600,4.798031494140625,-0.2551126480102539,0.00032806396484375,0.005688920617103577
1771073616207971300,4.807971435546875,-0.28524208068847656,0.07431674003601074,0.09227277338504791
1771073616217911000,4.8179111328125,-0.23973941802978516,0.03515338897705078,0.049278125166893005
1771073616227850800,4.827850830078125,-0.18822956085205078,-0.044541120529174805,-0.0009233951568603516
1771073616247730200,4.847730224609375,-0.19160938262939453,-0.06563186645507812,0.0731087177991867
1771073616257670100,4.857670166015625,-0.18865203857421875,-0.01638960838317871,0.11433428525924683
1771073616267609900,4.86760986328125,-0.16926956176757812,-0.024301528930664062,0.1277277022600174
1771073616277549600,4.877549560546875,-0.12662792205810547,-0.055643320083618164,0.1113114058971405
1771073616287489300,4.8874892578125,-0.08458900451660156,-0.0726461410522461,0.08199679851531982
1771073616297429000,4.897428955078125,-0.047921180725097656,-0.05189681053161621,0.053468525409698486
1771073616307368700,4.90736865234375,-0.11312294006347656,-0.024629831314086914,0.07969009876251221
1771073616317308400,4.917308349609375,-0.21747207641601562,-0.0018343925476074219,0.08874475955963135
1771073616327248100,4.927248046875,-0.1861553192138672,0.0005869865417480469,0.05787855386734009
1771073616337187800,4.937187744140625,0.03280162811279297,-0.005445003509521484,0.026128560304641724
1771073616347127800,4.9471279296875,0.3164052963256836,-0.04186367988586426,-0.0043777525424957275
1771073616357067500,4.957067626953125,0.5178804397583008,-0.09542322158813477,-0.011184662580490112
1771073616367007200,4.96700732421875,0.4385557174682617,-0.12631797790527344,-0.014740794897079468
1771073616376947000,4.976947021484375,0.22657489776611328,-0.09401702880859375,-0.04028712213039398
1771073616386886700,4.98688671875,0.046408653259277344,-0.026934385299682617,-0.026422619819641113
1771073616396826400,4.996826416015625,-0.07437896728515625,0.04198408126831055,0.03192064166069031
1771073616406766000,5.00676611328125,-0.09915637969970703,0.06325864791870117,0.06963735818862915
1771073616416705800,5.016705810546875,-0.0787954330444336,0.0722055435180664,0.05664220452308655
1771073616426645500,5.0266455078125,-0.0044155120849609375,0.0681300163269043,0.0072533488273620605
1771073616436585200,5.036585205078125,0.03371620178222656,0.05084872245788574,-0.024050116539001465
1771073616446525200,5.046525146484375,0.007976531982421875,0.04422736167907715,-0.010929197072982788
1771073616456465000,5.05646484375,-0.02192211151123047,0.049181222915649414,0.00495871901512146
1771073616466404600,5.066404541015625,-0.044348716735839844,0.059357404708862305,-0.013768643140792847
1771073616476344300,5.07634423828125,-0.0736837387084961,0.06801819801330566,-0.03925618529319763
1771073616486284000,5.086283935546875,-0.1311168670654297,0.07087135314941406,-0.03278520703315735
1771073616496223700,5.0962236328125,-0.11966705322265625,0.058689117431640625,-0.04929168522357941
1771073616506163500,5.10616357421875,-0.03331756591796875,0.04545021057128906,-0.0535748153924942
1771073616516103200,5.116103271484375,0.10796546936035156,0.049510955810546875,-0.060162678360939026
1771073616526043000,5.12604296875,0.17629718780517578,0.046251773834228516,-0.06630918383598328
1771073616535982800,5.13598291015625,0.12122726440429688,0.030478239059448242,-0.04358305037021637
1771073616545922600,5.145922607421875,0.0060977935791015625,0.018575191497802734,-0.03038850426673889
1771073616555862300,5.1558623046875,-0.081024169921875,0.020190000534057617,-0.024985462427139282
1771073616565802000,5.165802001953125,-0.04178047180175781,0.037743568420410156,-0.0204353928565979
1771073616575741700,5.17574169921875,-0.0007610321044921875,0.06646943092346191,-0.042090579867362976
1771073616585681400,5.185681396484375,0.025478363037109375,0.06400871276855469,-0.0707235336303711
1771073616595621000,5.19562109375,0.04421710968017578,0.04265785217285156,-0.0886891782283783
1771073616605560800,5.205560791015625,-0.0032806396484375,0.014503955841064453,-0.09606599807739258
1771073616615500500,5.21550048828125,-0.0217132568359375,-0.006217002868652344,-0.082131028175354
1771073616625440500,5.2254404296875,-0.03760719299316406,0.002252340316772461,-0.08047568798065186
1771073616635380200,5.235380126953125,0.021974563598632812,0.01824784278869629,-0.07440383732318878
1771073616645320000,5.24531982421875,0.042794227600097656,0.03919053077697754,-0.03583692014217377
1771073616655259600,5.255259765625,0.053829193115234375,0.026929140090942383,-0.026307672262191772
1771073616665199400,5.265199462890625,0.015275955200195312,0.012321949005126953,-0.019015610218048096
1771073616675139000,5.27513916015625,-0.06972885131835938,-0.020876169204711914,-0.02802717685699463
1771073616685078800,5.285078857421875,-0.14159202575683594,-0.01094508171081543,-0.039143577218055725
1771073616695018500,5.2950185546875,-0.17469024658203125,-0.003040313720703125,-0.015036165714263916
1771073616704958200,5.304958251953125,-0.12257575988769531,0.016991853713989258,0.010494202375411987
1771073616714898000,5.31489794921875,-0.05956268310546875,-0.003335714340209961,0.031111031770706177
1771073616724838000,5.324837890625,-0.021124839782714844,-0.02578115463256836,0.018545210361480713
1771073616734777600,5.334777587890625,0.03550529479980469,-0.05492353439331055,-0.007771939039230347
1771073616744717300,5.34471728515625,0.034648895263671875,-0.07170391082763672,-0.030744850635528564
1771073616754657000,5.354656982421875,-0.03923988342285156,-0.0644686222076416,-0.01257336139678955
1771073616764596700,5.3645966796875,-0.09560394287109375,-0.061267852783203125,-0.0036259591579437256
1771073616774536400,5.374536376953125,-0.11587715148925781,-0.03623461723327637,0.019672691822052002
1771073616784476200,5.38447607421875,-0.0840749740600586,-0.03966379165649414,0.031241774559020996
1771073616794415900,5.394415771484375,-0.08574104309082031,-0.0195920467376709,0.04036256670951843
1771073616804355600,5.40435546875,-0.17207908630371094,-0.007025480270385742,0.036434024572372437
1771073616814295600,5.414295654296875,-0.23818588256835938,-0.02008366584777832,0.04913264513015747
1771073616824235300,5.4242353515625,-0.23980045318603516,-0.0553891658782959,0.06658747792243958
1771073616834175000,5.434175048828125,-0.15210819244384766,-0.049105167388916016,0.10168084502220154
1771073616844114700,5.44411474609375,-0.07308101654052734,-0.035279273986816406,0.1062418520450592
1771073616854054400,5.454054443359375,-0.011991500854492188,-0.011970043182373047,0.0993744432926178
1771073616863994000,5.463994140625,-0.0250244140625,0.018017053604125977,0.08047965168952942
1771073616873933800,5.473933837890625,0.00441741943359375,0.024071216583251953,0.030089080333709717
1771073616883873500,5.48387353515625,0.08520317077636719,0.006296873092651367,-0.021405279636383057
1771073616893813200,5.493813232421875,0.22840213775634766,-0.021187543869018555,-0.04353833198547363
1771073616903753200,5.503753173828125,0.3272218704223633,-0.0025081634521484375,-0.04262101650238037
1771073616913693000,5.51369287109375,0.31418609619140625,-0.023488521575927734,0.0140189528465271
1771073616923632600,5.523632568359375,0.18862438201904297,-0.02853250503540039,0.005720317363739014
1771073616933572400,5.533572265625,0.05810070037841797,0.009089231491088867,-0.020752906799316406
1771073616943512000,5.543511962890625,-0.006855010986328125,0.06101560592651367,-0.04186315834522247
1771073616953451800,5.55345166015625,-0.030900001525878906,0.07275533676147461,-0.011434197425842285
1771073616963391500,5.5633916015625,0.02302074432373047,0.06811714172363281,0.013810545206069946
1771073616973331200,5.573331298828125,0.09736347198486328,0.060202598571777344,0.022625833749771118
1771073616983271000,5.58327099609375,0.10489845275878906,0.052880048751831055,0.04009002447128296
1771073616993211000,5.5932109375,0.018546104431152344,0.06025099754333496,0.03817841410636902
1771073617003150600,5.603150634765625,-0.02363300323486328,0.054219722747802734,-0.005089938640594482
1771073617013090300,5.61309033203125,-0.017897605895996094,0.0549466609954834,-0.04435664415359497
1771073617023030000,5.623030029296875,-0.061753273010253906,0.03722786903381348,-0.06985777616500854
1771073617032969700,5.6329697265625,-0.08630752563476562,0.025816679000854492,-0.043620675802230835
1771073617042909400,5.642909423828125,-0.10145854949951172,0.028361082077026367,-0.024925634264945984
1771073617052849200,5.65284912109375,-0.07445526123046875,0.009509563446044922,-0.05079798400402069
1771073617062788600,5.66278857421875,0.02234363555908203,-0.01910686492919922,-0.07065758109092712
1771073617072728300,5.672728271484375,0.0890960693359375,-0.037126779556274414,-0.0628405213356018
1771073617082668000,5.68266796875,0.0865030288696289,-0.04336881637573242,-0.047217145562171936
1771073617092607700,5.692607666015625,0.03702735900878906,-0.029022932052612305,-0.015688389539718628
1771073617102547500,5.70254736328125,0.04033184051513672,-0.015621423721313477,-0.022768273949623108
1771073617112487200,5.712487060546875,0.03670501708984375,-0.010415792465209961,-0.005963236093521118
1771073617122427000,5.722427001953125,-0.023193359375,-0.01787590980529785,0.00821143388748169
1771073617132366600,5.73236669921875,-0.12208366394042969,-0.025323152542114258,0.01704689860343933
1771073617142306300,5.742306396484375,-0.12297248840332031,-0.022345542907714844,-0.00997421145439148
1771073617152246000,5.75224609375,-0.051113128662109375,-0.03715968132019043,-0.033276259899139404
1771073617162185500,5.762185546875,-0.03949928283691406,-0.04857277870178223,-0.06208181381225586
1771073617172125200,5.772125244140625,-0.02827739715576172,-0.07066726684570312,-0.04971073567867279
1771073617182065000,5.78206494140625,-0.03152656555175781,-0.05637049674987793,-0.04615229368209839
1771073617192004600,5.792004638671875,-0.06073951721191406,-0.020519137382507324,-0.0023748278617858887
1771073617201944300,5.8019443359375,-0.07071495056152344,-0.0083085298538208,-0.016330033540725708
1771073617211884000,5.811884033203125,-0.09226226806640625,-0.022194504737854004,-0.05010387301445007
1771073617221823700,5.82182373046875,-0.054523468017578125,-0.03604459762573242,-0.03970058262348175
1771073617231763500,5.831763427734375,-0.05498027801513672,-0.059471845626831055,-0.05858112871646881
1771073617241703200,5.841703125,-0.04593658447265625,-0.04984009265899658,-0.030620992183685303
1771073617251643000,5.851642822265625,-0.0629110336303711,-0.03575491905212402,-0.0010134577751159668
1771073617261582600,5.86158251953125,-0.07725238800048828,-0.010029196739196777,0.03923341631889343
1771073617271522000,5.87152197265625,-0.049022674560546875,-0.0009115934371948242,0.038267433643341064
1771073617281461800,5.881461669921875,-0.02843952178955078,-0.0007622241973876953,0.01844210922718048
1771073617291401500,5.8914013671875,0.008179664611816406,-0.026007771492004395,-0.010032862424850464
1771073617301341200,5.901341064453125,0.04408740997314453,-0.052675485610961914,-0.021273910999298096
1771073617311281000,5.911281005859375,0.11707401275634766,-0.045926451683044434,-0.00888301432132721
1771073617321220600,5.921220703125,0.18192100524902344,-0.002307415008544922,-0.0012860000133514404
1771073617331160300,5.931160400390625,0.11648750305175781,0.022722840309143066,0.0409039705991745
1771073617341100000,5.94110009765625,0.028879165649414062,0.060173749923706055,0.09055386483669281
1771073617351039700,5.951039794921875,-0.11134624481201172,0.05902099609375,0.09416183829307556
1771073617360979500,5.9609794921875,-0.18817901611328125,0.0022644996643066406,0.04311639070510864
1771073617370919200,5.970919189453125,-0.12038612365722656,-0.002607583999633789,-0.0031056106090545654
1771073617380859100,5.980859130859375,0.01668834686279297,0.012547016143798828,-0.01984107494354248
1771073617390798800,5.990798828125,0.087890625,0.03677666187286377,0.02232268452644348
1771073617400738600,6.000738525390625,0.04736328125,0.03626203536987305,0.03774535655975342
1771073617410678300,6.01067822265625,0.026497840881347656,0.03720748424530029,0.023359835147857666
1771073617420618000,6.020617919921875,0.06972980499267578,0.020756006240844727,-0.012335553765296936
1771073617430557700,6.0305576171875,0.11943531036376953,0.03458690643310547,-0.031753674149513245
1771073617440497400,6.040497314453125,0.18257808685302734,0.038170576095581055,-0.0025865882635116577
1771073617450437000,6.05043701171875,0.06582927703857422,0.036777496337890625,-0.013777822256088257
1771073617460376800,6.060376953125,0.04279613494873047,0.02668142318725586,-0.0496927946805954
1771073617470316800,6.07031689453125,0.11419105529785156,0.006085634231567383,-0.052829936146736145
1771073617480256500,6.080256591796875,0.21027374267578125,0.0002663135528564453,-0.0146951824426651
1771073617490196200,6.0901962890625,0.16587543487548828,0.008467555046081543,0.056895822286605835
1771073617500136000,6.100135986328125,0.07048320770263672,0.004239797592163086,0.11502964794635773
1771073617510075600,6.11007568359375,0.056801795959472656,0.01357722282409668,0.12467244267463684
1771073617520015400,6.120015380859375,0.083465576171875,-0.015721797943115234,0.11523795127868652
1771073617529955000,6.129955078125,0.0627288818359375,-0.03131294250488281,0.10504195094108582
1771073617539894800,6.139894775390625,0.10609245300292969,-0.11835038661956787,-0.14949597418308258
1771073617549834500,6.14983447265625,-0.0065364837646484375,0.037896037101745605,0.08542051911354065
1771073617559774500,6.1597744140625,-0.09137439727783203,0.031607866287231445,0.09817856550216675
1771073617569714200,6.169714111328125,0.0206146240234375,-0.08766651153564453,-0.11960558593273163
1771073617579654000,6.17965380859375,-0.0858917236328125,-0.08472585678100586,-0.15235991775989532
1771073617589593600,6.189593505859375,-0.07766056060791016,0.015317201614379883,0.00601959228515625
1771073617599533300,6.199533203125,-0.03663063049316406,0.03394472599029541,-0.011086314916610718
1771073617609473000,6.20947314453125,-0.08117389678955078,-0.026971817016601562,-0.16001978516578674
1771073617619412700,6.219412841796875,-0.1722698211669922,-0.11357402801513672,-0.3111315071582794
1771073617629352400,6.2293525390625,-0.11853694915771484,-0.14957797527313232,-0.2570093870162964
1771073617639292200,6.239292236328125,-0.03299713134765625,-0.13389921188354492,-0.13153105974197388
1771073617649232100,6.249232177734375,-0.029125213623046875,-0.1666933298110962,-0.15412688255310059
1771073617659171800,6.259171875,-0.21149253845214844,-0.13392126560211182,-0.20603451132774353
1771073617669111600,6.269111572265625,-0.23790550231933594,-0.10271596908569336,-0.1726926565170288
1771073617679051300,6.27905126953125,-0.1767139434814453,-0.052664756774902344,-0.06530025601387024
1771073617688991000,6.288990966796875,-0.09767627716064453,0.044066667556762695,0.06712040305137634
1771073617698930700,6.2989306640625,0.0909566879272461,0.12147068977355957,0.19750255346298218
1771073617708870400,6.308870361328125,0.13313674926757812,0.08742153644561768,0.10372883081436157
1771073617718810000,6.31881005859375,0.13251686096191406,0.012181758880615234,-0.015430927276611328
1771073617728749800,6.328749755859375,0.3252077102661133,0.02830207347869873,0.04790681600570679
1771073617738689500,6.338689453125,1.5937471389770508,0.16569805145263672,0.5978842377662659
1771073617748629500,6.34862939453125,0.6436128616333008,0.012231111526489258,0.5239381790161133
1771073617758569200,6.3585693359375,0.0210723876953125,0.05170762538909912,0.25534191727638245
1771073617768509000,6.368509033203125,-0.14323043823242188,0.022967934608459473,-0.14561054110527039
1771073617778448600,6.37844873046875,0.006035804748535156,-0.13904976844787598,-0.3042558431625366
1771073617788388400,6.388388427734375,0.2982921600341797,-0.13864803314208984,-0.17169171571731567
1771073617798328000,6.398328125,0.10238456726074219,-0.04106748104095459,-0.023899495601654053
1771073617808267800,6.408267822265625,-0.032253265380859375,0.016748547554016113,-0.026523858308792114
1771073617818207500,6.41820751953125,-0.1208333969116211,0.05958545207977295,-0.03446272015571594
1771073617828147200,6.428147216796875,-0.10744285583496094,0.14585471153259277,0.03578615188598633
1771073617838087200,6.438087158203125,-0.04536724090576172,0.20554864406585693,0.11631560325622559
1771073617848027000,6.44802685546875,-0.012880325317382812,0.24247229099273682,0.18123683333396912
1771073617857966600,6.457966552734375,0.02843189239501953,0.23918044567108154,0.1763378083705902
1771073617867906300,6.46790625,0.13756370544433594,0.23495900630950928,0.13956516981124878
1771073617877846000,6.477845947265625,0.2124004364013672,0.22372651100158691,0.13719910383224487
1771073617887785700,6.48778564453125,0.19937801361083984,0.17942023277282715,0.15781092643737793
1771073617897725400,6.497725341796875,0.12341499328613281,0.12426865100860596,0.18930086493492126
1771073617907665200,6.5076650390625,0.0748281478881836,0.043080687522888184,0.14671626687049866
1771073617917604900,6.51760498046875,0.0884084701538086,-0.03286552429199219,0.05312305688858032
1771073617927544800,6.527544921875,0.0899953842163086,-0.07485330104827881,-0.05422377586364746
1771073617937484500,6.537484619140625,0.02789783477783203,-0.07839715480804443,-0.08941611647605896
1771073617947424300,6.54742431640625,-0.11097431182861328,-0.027464628219604492,-0.02311667799949646
1771073617957364000,6.557364013671875,-0.26888370513916016,0.03757321834564209,0.07565078139305115
1771073617967303700,6.5673037109375,-0.3348569869995117,0.12144923210144043,0.10840851068496704
1771073617977243400,6.577243408203125,-0.40224647521972656,0.1839081048965454,0.14882990717887878
1771073617987183000,6.58718310546875,-0.42625999450683594,0.19222283363342285,0.12792199850082397
1771073617997122800,6.597122802734375,-0.4217987060546875,0.1217045783996582,0.03715628385543823
1771073618007062500,6.6070625,-0.40111255645751953,0.023137927055358887,-0.03996583819389343
1771073618017002500,6.61700244140625,-0.357391357421875,-0.05362975597381592,-0.0520969033241272
1771073618026942200,6.626942138671875,-0.28401756286621094,-0.07805132865905762,-0.00005608797073364258
1771073618036882000,6.6368818359375,-0.1297159194946289,-0.07230091094970703,0.045813411474227905
1771073618046821600,6.646821533203125,0.0760955810546875,-0.05448257923126221,0.04394450783729553
1771073618056761300,6.65676123046875,0.2197561264038086,-0.07337713241577148,-0.0007314085960388184
1771073618066701000,6.666701171875,0.19649887084960938,-0.14819729328155518,-0.03483939170837402
1771073618076640800,6.676640869140625,0.013762474060058594,-0.2045128345489502,-0.03853657841682434
1771073618086580500,6.68658056640625,-0.16817474365234375,-0.20159423351287842,-0.04696241021156311
1771073618096520200,6.696520263671875,-0.2717628479003906,-0.16532301902770996,-0.05920267105102539
1771073618106460000,6.7064599609375,-0.2678098678588867,-0.09085190296173096,-0.10853450000286102
1771073618116399900,6.71639990234375,-0.20996475219726562,-0.051694393157958984,-0.1271514594554901
1771073618126339600,6.726339599609375,-0.20030879974365234,-0.02186870574951172,-0.04862597584724426
1771073618136279300,6.736279296875,-0.22625446319580078,0.02464890480041504,0.06640639901161194
1771073618146219000,6.746218994140625,-0.21178340911865234,0.09676468372344971,0.1501747965812683
1771073618156158700,6.75615869140625,-0.10577774047851562,0.17047548294067383,0.16578775644302368
1771073618166098400,6.766098388671875,0.03137493133544922,0.19386649131774902,0.1149446964263916
1771073618176038100,6.7760380859375,0.09792137145996094,0.13689064979553223,0.05656689405441284
1771073618185977900,6.785977783203125,0.09740352630615234,0.07144403457641602,0.026172399520874023
1771073618195917600,6.79591748046875,0.10393333435058594,0.02132701873779297,0.017717450857162476
1771073618205857500,6.805857421875,0.1315755844116211,0.01894068717956543,-0.03752106428146362
1771073618215797200,6.81579736328125,0.16832256317138672,0.006494045257568359,-0.09957438707351685
1771073618225737000,6.825737060546875,0.2093353271484375,0.010063409805297852,-0.15720871090888977
1771073618235676700,6.8356767578125,0.3205223083496094,0.0008448362350463867,-0.17555126547813416
1771073618245616400,6.845616455078125,0.4018745422363281,-0.012121200561523438,-0.14193348586559296
1771073618255556000,6.85555615234375,0.38558101654052734,-0.0124131441116333,-0.07005876302719116
1771073618265495800,6.865495849609375,0.32028865814208984,0.002383708953857422,-0.03773501515388489
1771073618275435500,6.875435546875,0.22789287567138672,0.030461430549621582,-0.05194920301437378
1771073618285375200,6.885375244140625,0.17471027374267578,0.055519819259643555,-0.08172047138214111
1771073618295315200,6.895315185546875,0.10120677947998047,0.06603860855102539,-0.11521854996681213
1771073618305255000,6.9052548828125,0.10666561126708984,0.05755126476287842,-0.11171239614486694
1771073618315194600,6.915194580078125,0.20398616790771484,0.06057476997375488,-0.13351665437221527
1771073618325134300,6.92513427734375,0.3211479187011719,0.04085850715637207,-0.1720755249261856
1771073618335074000,6.935073974609375,0.38251781463623047,0.005347251892089844,-0.17394180595874786
1771073618345013800,6.945013671875,0.3254051208496094,-0.03383004665374756,-0.15518340468406677
1771073618354953500,6.954953369140625,0.21518516540527344,-0.054418087005615234,-0.12791411578655243
1771073618364893200,6.96489306640625,0.1374368667602539,-0.0278778076171875,-0.10747474431991577
1771073618374833000,6.9748330078125,0.086883544921875,0.012348055839538574,-0.1273164004087448
1771073618384772600,6.984772705078125,0.051329612731933594,0.028464078903198242,-0.11970250308513641
1771073618394712600,6.994712646484375,0.047036170959472656,0.018522262573242188,-0.08130630850791931
1771073618404652300,7.00465234375,0.12053108215332031,-0.00526738166809082,0.004829138517379761
1771073618414592000,7.014592041015625,0.1456308364868164,-0.00009930133819580078,0.102271169424057
1771073618424531700,7.02453173828125,0.11366462707519531,0.05010199546813965,0.24971386790275574
1771073618434471400,7.034471435546875,-0.00039386749267578125,0.10031759738922119,0.38039687275886536
1771073618444411100,7.0444111328125,-0.12927722930908203,0.12029123306274414,0.3945577144622803
1771073618454350800,7.054350830078125,-0.1644268035888672,0.0659027099609375,0.2837817668914795
1771073618464290600,7.06429052734375,-0.20147228240966797,-0.05735492706298828,0.10837602615356445
1771073618474230300,7.074230224609375,-0.23788070678710938,-0.18540310859680176,-0.044498980045318604
1771073618484170200,7.084170166015625,-0.2736492156982422,-0.23808550834655762,-0.07207420468330383
1771073618494110000,7.09410986328125,-0.29705047607421875,-0.20714545249938965,-0.030165046453475952
1771073618504049700,7.104049560546875,-0.3037099838256836,-0.14745306968688965,0.04029184579849243
1771073618513989400,7.1139892578125,-0.2304210662841797,-0.1320939064025879,0.061537981033325195
1771073618523929000,7.12392919921875,-0.15380859375,-0.16318702697753906,0.02853524684906006
1771073618533868800,7.133868896484375,-0.1844625473022461,-0.22877740859985352,0.024232715368270874
1771073618543808500,7.14380859375,-0.1415729522705078,-0.27188026905059814,0.0226668119430542
1771073618553748200,7.153748291015625,-0.012169837951660156,-0.29808104038238525,-0.055751919746398926
1771073618563688000,7.16368798828125,0.08698272705078125,-0.34374845027923584,-0.16733385622501373
1771073618573628000,7.1736279296875,0.08805084228515625,-0.39223945140838623,-0.2341366857290268
1771073618583567600,7.183567626953125,-0.042593955993652344,-0.3779878616333008,-0.26356497406959534
1771073618593507300,7.19350732421875,-0.2723073959350586,-0.3127244710922241,-0.2310762107372284
1771073618603447000,7.203447021484375,-0.4394264221191406,-0.19878780841827393,-0.202921062707901
1771073618613386800,7.21338671875,-0.4579801559448242,-0.06690990924835205,-0.1842709183692932
1771073618623326500,7.223326416015625,-0.4905281066894531,0.0024389028549194336,-0.15808480978012085
1771073618633266200,7.23326611328125,-0.5014991760253906,-0.022860169410705566,-0.23484167456626892
1771073618643206000,7.243205810546875,-0.5265579223632812,-0.023604631423950195,-0.2548408806324005
1771073618653145600,7.2531455078125,-0.5466480255126953,0.02804708480834961,-0.28680604696273804
1771073618663085600,7.26308544921875,-0.7172307968139648,0.06784069538116455,-0.34324219822883606
1771073618673025300,7.273025390625,-0.9557952880859375,0.08294403553009033,-0.3833007216453552
1771073618682965000,7.282965087890625,-0.9104900360107422,0.14105761051177979,-0.3490535020828247
1771073618692904700,7.29290478515625,-0.4518003463745117,0.1355149745941162,-0.31855878233909607
1771073618702844400,7.302844482421875,0.2791614532470703,0.07123076915740967,-0.21967139840126038
1771073618712784100,7.3127841796875,0.8140506744384766,-0.02657341957092285,-0.07510095834732056
1771073618722723800,7.322723876953125,0.9677152633666992,-0.11584722995758057,-0.006534487009048462
1771073618732663600,7.33266357421875,0.7936334609985352,-0.1380770206451416,-0.036373287439346313
1771073618742603300,7.342603271484375,0.4363832473754883,-0.09202432632446289,-0.10500068962574005
1771073618752543000,7.35254296875,0.19109725952148438,0.021775007247924805,-0.16242638230323792
1771073618762483000,7.36248291015625,0.1902294158935547,0.10322654247283936,-0.13773678243160248
1771073618772422700,7.372422607421875,0.37324047088623047,0.12891530990600586,0.015030205249786377
1771073618782362400,7.3823623046875,0.5981807708740234,0.08257925510406494,0.21902868151664734
1771073618792302000,7.392302001953125,0.7749824523925781,0.03002142906188965,0.3523292541503906
1771073618802241800,7.40224169921875,0.857365608215332,0.03633987903594971,0.43475377559661865
1771073618812181500,7.412181396484375,0.6489543914794922,0.0421755313873291,0.46388956904411316
1771073618822121200,7.422121337890625,0.2933969497680664,0.06032764911651611,0.47953543066978455
1771073618832061000,7.43206103515625,-0.14325523376464844,0.13343679904937744,0.4300231635570526
1771073618851940600,7.451940673828125,-0.8220233917236328,0.16512644290924072,0.0905580073595047
1771073618861880300,7.46188037109375,-0.8911123275756836,0.16049635410308838,-0.017039403319358826
1771073618871820000,7.471820068359375,-0.8223953247070312,0.16105997562408447,-0.0038340091705322266
1771073618891699500,7.491699462890625,-0.34418201446533203,0.04277336597442627,0.005557522177696228
1771073618901639200,7.50163916015625,-0.0633859634399414,-0.0655142068862915,-0.06266888231039047
1771073618911579000,7.511578857421875,0.099639892578125,-0.21405017375946045,-0.12314759939908981
1771073618921518600,7.5215185546875,0.15389347076416016,-0.31022870540618896,-0.1447375863790512
1771073618931458300,7.531458251953125,0.14125442504882812,-0.3174464702606201,-0.1264040172100067
1771073618941398300,7.541398193359375,0.07925224304199219,-0.2483675479888916,-0.051197461783885956
1771073618951338000,7.551337890625,0.1287984848022461,-0.13939738273620605,0.03386950492858887
1771073618961277700,7.561277587890625,0.2881126403808594,-0.06469786167144775,0.1027711033821106
1771073618971217400,7.571217529296875,0.43071651458740234,-0.04354202747344971,0.10978296399116516
1771073618981157000,7.5811572265625,0.5358486175537109,-0.06672370433807373,0.06163389980792999
1771073618991096800,7.591096923828125,0.4983177185058594,-0.10860657691955566,-0.03032153844833374
1771073619001036500,7.60103662109375,0.2992820739746094,-0.1239461898803711,-0.09450889378786087
1771073619010976300,7.610976318359375,0.030757904052734375,-0.060186028480529785,-0.0842108353972435
1771073619020916000,7.620916015625,-0.19791507720947266,0.05891537666320801,-0.05319206416606903
1771073619030855700,7.630855712890625,-0.25339508056640625,0.18204569816589355,0.026794016361236572
1771073619040795600,7.640795654296875,-0.09387969970703125,0.26234865188598633,0.12876805663108826
1771073619050735400,7.6507353515625,0.17117023468017578,0.2905160188674927,0.22865550220012665
1771073619060675000,7.660675048828125,0.3964729309082031,0.23835861682891846,0.347581684589386
1771073619070614800,7.67061474609375,0.5473899841308594,0.16340982913970947,0.4285295009613037
1771073619080554500,7.680554443359375,0.6392240524291992,0.11333787441253662,0.4077818691730499
1771073619090494200,7.690494140625,0.6942262649536133,0.06583905220031738,0.3211216330528259
1771073619100434000,7.700433837890625,0.6659727096557617,0.02989339828491211,0.19594067335128784
1771073619110373600,7.71037353515625,0.4924163818359375,-0.002555370330810547,0.10094539821147919
1771073619120313300,7.720313232421875,0.13129520416259766,-0.015091419219970703,0.07136759161949158
1771073619130253300,7.73025341796875,-0.20482921600341797,0.042499661445617676,0.08572526276111603
1771073619140193000,7.740193115234375,-0.34700965881347656,0.16319584846496582,0.14063479006290436
1771073619150132700,7.7501328125,-0.3385457992553711,0.26845431327819824,0.17662400007247925
1771073619160072400,7.760072509765625,-0.27617645263671875,0.3234137296676636,0.18630439043045044
1771073619170012200,7.77001220703125,-0.24079513549804688,0.2907313108444214,0.18378514051437378
1771073619179951900,7.779951904296875,-0.2884988784790039,0.20738816261291504,0.12991061806678772
1771073619189891600,7.7898916015625,-0.3073110580444336,0.1405569314956665,0.06314544379711151
1771073619199831300,7.799831298828125,-0.3212423324584961,0.10635268688201904,0.009463965892791748
1771073619209771000,7.80977099609375,-0.3280067443847656,0.12071704864501953,0.014749757945537567
1771073619219711000,7.8197109375,-0.28296470642089844,0.13800334930419922,0.011239878833293915
1771073619229650700,7.829650634765625,-0.19866085052490234,0.13400936126708984,0.013285361230373383
1771073619239590400,7.83959033203125,-0.10628795623779297,0.10387551784515381,0.03340255469083786
1771073619249530000,7.849530029296875,-0.05303001403808594,0.07598888874053955,0.034210383892059326
1771073619259469800,7.8594697265625,0.0088653564453125,0.0525670051574707,0.025633737444877625
1771073619269409500,7.869409423828125,0.02269268035888672,0.040900588035583496,-0.012353114783763885
1771073619279349200,7.879349365234375,-0.015450477600097656,0.01960611343383789,-0.07271574437618256
1771073619289289000,7.8892890625,-0.055314064025878906,-0.029579997062683105,-0.15557605028152466
1771073619299228700,7.899228759765625,-0.10865402221679688,-0.06841397285461426,-0.20182421803474426
1771073619309168600,7.909168701171875,-0.12110519409179688,-0.09225857257843018,-0.18453827500343323
1771073619319108000,7.919108154296875,-0.10040950775146484,-0.05663275718688965,-0.13322892785072327
1771073619329047800,7.9290478515625,-0.03764057159423828,0.008809208869934082,-0.05314966291189194
1771073619338987500,7.938987548828125,0.03830528259277344,0.0772627592086792,-0.0031135082244873047
1771073619348927200,7.94892724609375,0.011807441711425781,0.09943521022796631,0.027747705578804016
1771073619358867000,7.958866943359375,-0.04018402099609375,0.09798455238342285,0.04824115335941315
1771073619368806700,7.968806640625,0.038064002990722656,0.10441529750823975,0.05861036479473114
1771073619378746400,7.978746337890625,0.10312557220458984,0.08779501914978027,0.02789890766143799
1771073619388686000,7.98868603515625,0.0751791000366211,0.06959736347198486,-0.004648953676223755
1771073619398625800,7.998625732421875,0.0005350112915039062,0.04032886028289795,-0.01880427449941635
1771073619408565500,8.0085654296875,-0.09645271301269531,0.025974631309509277,-0.03987164795398712
1771073619418505000,8.0185048828125,-0.1424407958984375,0.024129867553710938,-0.054787732660770416
1771073619428444700,8.028444580078125,-0.07236957550048828,0.0346904993057251,-0.05243207514286041
1771073619438384400,8.03838427734375,0.04363536834716797,0.05449318885803223,-0.04437576234340668
1771073619448324000,8.048323974609374,0.1460418701171875,0.07796823978424072,0.01557229459285736
1771073619458263800,8.058263916015624,0.18325424194335938,0.07689452171325684,0.07801777124404907
1771073619468203500,8.06820361328125,0.1728668212890625,0.06088995933532715,0.10081908106803894
1771073619478143200,8.078143310546874,0.1414642333984375,0.01913762092590332,0.04449869692325592
1771073619488083000,8.0880830078125,0.13405990600585938,-0.035648465156555176,-0.040793851017951965
1771073619498022700,8.098022705078124,0.1385517120361328,-0.10844337940216064,-0.15655170381069183
1771073619507962400,8.10796240234375,0.0724029541015625,-0.1404869556427002,-0.1822720617055893
1771073619517901800,8.11790185546875,-0.07496070861816406,-0.12069463729858398,-0.11147483438253403
1771073619527841500,8.127841552734376,-0.1445293426513672,-0.03285551071166992,-0.07604318112134933
1771073619537781200,8.13778125,-0.14231204986572266,0.030074477195739746,-0.04236752539873123
1771073619547721000,8.147720947265626,-0.11431121826171875,0.07136368751525879,-0.01740628480911255
1771073619557660700,8.15766064453125,-0.04203510284423828,0.05780673027038574,-0.010315299034118652
1771073619567600400,8.167600341796875,0.019652366638183594,-0.0075283050537109375,-0.0035255327820777893
1771073619577540000,8.1775400390625,0.06152534484863281,-0.07914280891418457,-0.02300434559583664
1771073619587479800,8.187479736328125,0.10984134674072266,-0.14064931869506836,-0.05670327693223953
1771073619597419500,8.19741943359375,0.15976524353027344,-0.17327511310577393,-0.10612361133098602
1771073619607359200,8.207359130859375,0.24425125122070312,-0.17298972606658936,-0.1165248304605484
1771073619617299200,8.21729931640625,0.22856426239013672,-0.14300012588500977,-0.08026808500289917
1771073619627239000,8.227239013671875,0.10257530212402344,-0.11421215534210205,-0.02894895151257515
1771073619637178600,8.2371787109375,-0.04957771301269531,-0.08815789222717285,-0.009191468358039856
1771073619647118300,8.247118408203125,-0.13101768493652344,-0.08066141605377197,-0.01623930037021637
1771073619657058000,8.25705810546875,-0.1546926498413086,-0.07022595405578613,-0.005504541099071503
1771073619666997800,8.266997802734375,-0.12862586975097656,-0.047484517097473145,0.008505195379257202
1771073619676937500,8.2769375,-0.04413318634033203,-0.020413517951965332,0.05964787304401398
1771073619686877200,8.286877197265625,-0.012762069702148438,0.019723176956176758,0.1225900650024414
1771073619696817000,8.29681689453125,-0.08773040771484375,0.06298267841339111,0.18770548701286316
1771073619706756900,8.3067568359375,-0.16612529754638672,0.11001336574554443,0.21862345933914185
1771073619716696600,8.316696533203125,-0.2103281021118164,0.10740780830383301,0.15606477856636047
1771073619726636300,8.32663623046875,-0.16208934783935547,0.044528961181640625,0.06209251284599304
1771073619736576000,8.336575927734375,-0.027650833129882812,-0.03533363342285156,0.010568961501121521
1771073619746515700,8.346515625,0.08800697326660156,-0.11345922946929932,-0.011617079377174377
1771073619756455400,8.356455322265624,0.15697479248046875,-0.1572132110595703,-0.008212760090827942
1771073619766395100,8.36639501953125,0.13767337799072266,-0.16266226768493652,0.002055242657661438
1771073619776334800,8.3763349609375,0.10929298400878906,-0.13760912418365479,0.0039555951952934265
1771073619786274600,8.386274658203124,0.07434940338134766,-0.07079088687896729,0.0037846639752388
1771073619796214300,8.39621435546875,0.044783592224121094,-0.02452099323272705,0.02249312400817871
1771073619806154200,8.406154296875,-0.02885723114013672,0.01045083999633789,0.047765813767910004
1771073619816094000,8.416093994140626,-0.14113903045654297,0.024992823600769043,0.09297206252813339
1771073619826033700,8.42603369140625,-0.2161731719970703,0.0507509708404541,0.12400104850530624
1771073619835973400,8.435973388671876,-0.22170066833496094,0.07401716709136963,0.12173835188150406
1771073619845913000,8.4459130859375,-0.1519298553466797,0.08847641944885254,0.0711231678724289
1771073619855852800,8.455852783203126,-0.059943199157714844,0.07319056987762451,0.024154938757419586
1771073619865792500,8.46579248046875,-0.0049648284912109375,0.016788125038146973,0.000553324818611145
1771073619875732200,8.475732177734375,0.00661468505859375,-0.021588563919067383,-0.0047958046197891235
1771073619885672000,8.485671875,-0.010334968566894531,-0.025859475135803223,-0.0066249072551727295
1771073619895612000,8.49561181640625,-0.0011529922485351562,-0.0015028715133666992,-0.012860968708992004
1771073619905551600,8.505551513671875,0.04082965850830078,0.05315577983856201,-0.036093197762966156
1771073619915491300,8.5154912109375,0.08694171905517578,0.07549023628234863,-0.02860591560602188
1771073619925431000,8.52543115234375,0.0924081802368164,0.07525062561035156,-0.0164472833275795
1771073619935370800,8.535370849609375,0.0649862289428711,0.05506479740142822,0.004927992820739746
1771073619945310500,8.545310546875,0.028696060180664062,0.039310336112976074,-0.01200665533542633
1771073619955250200,8.555250244140625,0.04244518280029297,0.023914337158203125,-0.10228785872459412
1771073619965190000,8.56518994140625,0.09595870971679688,-0.002787947654724121,-0.1652546525001526
1771073619975129600,8.575129638671875,0.10618972778320312,-0.02667713165283203,-0.12734481692314148
1771073619985069600,8.585069580078125,0.06438541412353516,-0.026215434074401855,-0.0325288400053978
1771073619995009300,8.59500927734375,0.025548934936523438,-0.015843510627746582,0.012232095003128052
1771073620004949000,8.604948974609375,0.015519142150878906,-0.016817569732666016,-0.03281179815530777
1771073620014888700,8.614888671875,0.08807849884033203,-0.04847919940948486,-0.16483426094055176
1771073620024828400,8.624828369140625,0.12427997589111328,-0.07599914073944092,-0.2174432873725891
1771073620034768100,8.63476806640625,0.08006000518798828,-0.07169914245605469,-0.1652725785970688
1771073620044707800,8.644707763671875,-0.057433128356933594,-0.01207125186920166,-0.07146506011486053
1771073620054647600,8.6546474609375,-0.18085861206054688,0.06303644180297852,-0.026577584445476532
1771073620064587300,8.664587158203124,-0.2552967071533203,0.11915981769561768,-0.06078832969069481
1771073620074527200,8.67452734375,-0.2322368621826172,0.12681806087493896,-0.09800316393375397
1771073620084467000,8.684467041015624,-0.13213729858398438,0.08211171627044678,-0.0793733075261116
1771073620094406700,8.69440673828125,0.04615592956542969,0.01591479778289795,-0.029086314141750336
1771073620104346400,8.704346435546874,0.2473468780517578,-0.07016873359680176,-0.0194321870803833
1771073620114286000,8.7142861328125,0.35345935821533203,-0.14610505104064941,-0.08397111296653748
1771073620124225800,8.724225830078124,0.3849811553955078,-0.19843292236328125,-0.15270280838012695
1771073620134165500,8.73416552734375,0.21128368377685547,-0.22027933597564697,-0.19018220901489258
1771073620144105200,8.744105224609376,0.15349578857421875,-0.2346862554550171,-0.2941562235355377
1771073620154045000,8.754044921875,0.20734882354736328,-0.21126532554626465,-0.2922297418117523
1771073620163984600,8.763984619140626,0.28865814208984375,-0.18421947956085205,-0.20842547714710236
1771073620173924600,8.773924560546876,0.30761051177978516,-0.20150816440582275,-0.11836247146129608
1771073620183864300,8.7838642578125,0.23472309112548828,-0.19943881034851074,-0.092181496322155
1771073620193804000,8.793803955078126,0.0809621810913086,-0.18785488605499268,-0.07997013628482819
1771073620203743700,8.80374365234375,-0.13115310668945312,-0.11727142333984375,-0.044753484427928925
1771073620213683500,8.813683349609375,-0.3420133590698242,-0.005887866020202637,0.035007767379283905
1771073620223623200,8.823623046875,-0.4577217102050781,0.1003493070602417,0.10097329318523407
1771073620233563000,8.83356298828125,-0.3999786376953125,0.1390683650970459,0.1376647651195526
1771073620243502600,8.843502685546875,-0.2752656936645508,0.10658156871795654,0.13557535409927368
1771073620253442300,8.8534423828125,-0.17171669006347656,0.052808403968811035,0.14626049995422363
1771073620263382300,8.86338232421875,-0.07948017120361328,0.01280975341796875,0.167469322681427
1771073620273322000,8.873322021484375,-0.017086029052734375,0.016156435012817383,0.1542643904685974
1771073620283261700,8.88326171875,-0.009847640991210938,0.049749135971069336,0.1448875367641449
1771073620293201400,8.893201416015625,-0.02854442596435547,0.07746648788452148,0.11738055944442749
1771073620303141000,8.90314111328125,-0.09386253356933594,0.07310569286346436,0.08291009813547134
1771073620313080800,8.913080810546875,-0.15796184539794922,0.05388438701629639,0.05284547060728073
1771073620323020500,8.9230205078125,-0.2303752899169922,0.046652913093566895,0.05005282908678055
1771073620332960300,8.932960205078125,-0.2238941192626953,0.06328654289245605,0.05021961033344269
1771073620342900000,8.94289990234375,-0.125762939453125,0.09662771224975586,0.06851577758789062
1771073620352840000,8.95283984375,-0.06462764739990234,0.12971508502960205,0.1412755846977234
1771073620362779600,8.962779541015625,-0.06579017639160156,0.15086579322814941,0.1972111165523529
1771073620372719400,8.97271923828125,-0.04819011688232422,0.15340697765350342,0.15868422389030457
1771073620382659000,8.9826591796875,-0.026312828063964844,0.114410400390625,0.07195648550987244
1771073620392598800,8.992598876953124,0.02569580078125,0.055670738220214844,-0.05604543536901474
1771073620402538500,9.00253857421875,0.11678409576416016,-0.020307421684265137,-0.1237802505493164
1771073620412478200,9.012478271484374,0.22759246826171875,-0.07175803184509277,-0.11766946315765381
1771073620422418000,9.02241796875,0.3178682327270508,-0.0715491771697998,-0.06212586164474487
1771073620432357600,9.032357666015624,0.36213207244873047,-0.05176186561584473,-0.03498685359954834
1771073620442297300,9.04229736328125,0.32818603515625,-0.040979623794555664,-0.009649693965911865
1771073620452237300,9.0522373046875,0.28083324432373047,-0.03148698806762695,-0.01238340139389038
1771073620462177000,9.062177001953126,0.24143123626708984,-0.02992081642150879,-0.010076463222503662
1771073620472116700,9.07211669921875,0.21921062469482422,-0.012305498123168945,-0.006900876760482788
1771073620482056400,9.082056396484376,0.15734386444091797,0.0070683956146240234,0.012350529432296753
1771073620491997200,9.0919970703125,-0.0047664642333984375,0.028470277786254883,0.03802384436130524
1771073620501937000,9.10193701171875,-0.21368885040283203,0.04058980941772461,0.08230990171432495
1771073620511876600,9.111876708984376,-0.33693504333496094,0.035266876220703125,0.07957679033279419
1771073620521816000,9.121816162109376,-0.3147268295288086,-0.005937099456787109,0.032314032316207886
1771073620531755800,9.131755859375,-0.1540699005126953,-0.08096528053283691,-0.02527526021003723
1771073620541695500,9.141695556640625,-0.012575149536132812,-0.15002071857452393,-0.08877089619636536
1771073620551635200,9.15163525390625,0.02307415008544922,-0.17182624340057373,-0.10901965200901031
1771073620561574700,9.16157470703125,-0.1088876724243164,-0.12383139133453369,-0.06101590394973755
1771073620571514400,9.171514404296875,-0.3045358657836914,-0.03445994853973389,-0.006951063871383667
1771073620581454000,9.1814541015625,-0.42881011962890625,0.04540300369262695,0.027306020259857178
1771073620591393500,9.1913935546875,-0.3252296447753906,0.08590948581695557,0.0599326491355896
1771073620601333200,9.201333251953125,-0.08940410614013672,0.0545501708984375,0.09707538783550262
1771073620611273000,9.21127294921875,0.1800088882446289,-0.02473926544189453,0.11056376993656158
1771073620621212400,9.22121240234375,0.3719491958618164,-0.12430822849273682,0.08432182669639587
1771073620631152000,9.231152099609375,0.3960151672363281,-0.20949208736419678,-0.022463053464889526
1771073620641091800,9.241091796875,0.29038047790527344,-0.24324429035186768,-0.13344073295593262
1771073620651031800,9.25103173828125,0.054871559143066406,-0.2356271743774414,-0.20120033621788025
1771073620660971500,9.260971435546875,-0.1883068084716797,-0.1490621566772461,-0.20562507212162018
1771073620670911200,9.2709111328125,-0.3402376174926758,-0.06637024879455566,-0.14991363883018494
1771073620680851200,9.280851318359375,-0.35546016693115234,0.024971842765808105,-0.049258992075920105
1771073620690791000,9.290791015625,-0.25752735137939453,0.10412061214447021,0.06118848919868469
1771073620700730600,9.300730712890624,-0.1001434326171875,0.12407207489013672,0.10797463357448578
1771073620710670600,9.310670654296874,0.04036521911621094,0.10424745082855225,0.10190719366073608
1771073620720610300,9.3206103515625,0.05601310729980469,0.07316231727600098,0.10369902849197388
1771073620730550000,9.330550048828124,-0.011119842529296875,0.06897711753845215,0.03931647539138794
1771073620740490000,9.340489990234374,-0.060753822326660156,0.05603635311126709,-0.028124511241912842
1771073620750429700,9.3504296875,-0.055487632751464844,0.05569314956665039,-0.07154683768749237
1771073620760369400,9.360369384765624,-0.005572319030761719,0.0485074520111084,-0.07346585392951965
1771073620770309000,9.37030908203125,0.09537315368652344,0.05772531032562256,-0.020488440990447998
1771073620780249000,9.3802490234375,0.2230396270751953,0.03988230228424072,0.0032828301191329956
1771073620790188800,9.390188720703126,0.28281497955322266,0.02573096752166748,-0.007104173302650452
1771073620800128500,9.40012841796875,0.2452249526977539,0.015110611915588379,-0.008011534810066223
1771073620810068500,9.410068359375,0.15185546875,0.041434288024902344,-0.014384448528289795
1771073620820008200,9.42000830078125,0.03883647918701172,0.06967377662658691,0.0013443976640701294
1771073620829948000,9.429947998046876,-0.048763275146484375,0.11165869235992432,0.011976107954978943
1771073620839888000,9.439887939453126,-0.08318901062011719,0.1300957202911377,-0.006853953003883362
1771073620849827600,9.44982763671875,-0.06532573699951172,0.10183429718017578,-0.035819992423057556
1771073620859767300,9.459767333984376,-0.01716327667236328,0.05070054531097412,-0.0582319051027298
1771073620869707300,9.469707275390626,0.053748130798339844,0.0027823448181152344,-0.06660690903663635
1771073620879647000,9.47964697265625,0.11408805847167969,-0.030404210090637207,-0.044195666909217834
1771073620889586700,9.489586669921875,0.15935230255126953,-0.013995528221130371,-0.010215044021606445
1771073620899526400,9.4995263671875,0.18507766723632812,-0.01709568500518799,-0.021043553948402405
1771073620909466000,9.509466064453125,0.19157028198242188,-0.013381600379943848,-0.028646543622016907
1771073620919406000,9.519406005859375,0.2191781997680664,-0.04298579692840576,-0.04968814551830292
1771073620929345800,9.529345703125,0.18992233276367188,-0.07288920879364014,-0.03416043519973755
1771073620939285500,9.539285400390625,0.11656761169433594,-0.08210277557373047,-0.006906628608703613
1771073620949225200,9.54922509765625,0.03987407684326172,-0.06381762027740479,0.002893894910812378
1771073620959165000,9.5591650390625,-0.021322250366210938,-0.04634559154510498,0.007045626640319824
1771073620969104600,9.569104736328125,-0.027297019958496094,-0.043489813804626465,-0.01353965699672699
1771073620979044400,9.57904443359375,-0.023748397827148438,-0.06656873226165771,-0.02699662744998932
1771073620988984000,9.588984130859375,-0.07442283630371094,-0.068062424659729,-0.006452977657318115
1771073620998923800,9.598923828125,-0.16436004638671875,-0.050182223320007324,0.05655290186405182
1771073621008863700,9.60886376953125,-0.2458782196044922,-0.0009883642196655273,0.14167802035808563
1771073621018803500,9.618803466796875,-0.21557903289794922,0.037009358406066895,0.17026416957378387
1771073621028743200,9.6287431640625,-0.10113811492919922,0.023366689682006836,0.12709254026412964
1771073621038683000,9.638682861328125,0.006693840026855469,-0.03488874435424805,0.06872551143169403
1771073621048622600,9.64862255859375,0.016338348388671875,-0.09317624568939209,0.035850510001182556
1771073621058562000,9.65856201171875,-0.09879493713378906,-0.11166954040527344,0.004670187830924988
1771073621068501800,9.668501708984374,-0.2755393981933594,-0.054709672927856445,0.001997724175453186
1771073621078441500,9.67844140625,-0.36235809326171875,0.0283048152923584,0.020814359188079834
1771073621088381200,9.688381103515624,-0.3113899230957031,0.09280085563659668,0.05082140862941742
1771073621108260600,9.708260498046876,-0.0046482086181640625,0.048445820808410645,0.14348185062408447
1771073621118200300,9.718200439453126,0.22571468353271484,-0.024376749992370605,0.1422135829925537
1771073621128140000,9.72814013671875,0.3840188980102539,-0.08256542682647705,0.07767181098461151
1771073621138079700,9.738079833984376,0.3915367126464844,-0.13902664184570312,-0.022476717829704285
1771073621148019500,9.74801953125,0.24851036071777344,-0.1541597843170166,-0.10682134330272675
1771073621157959000,9.757958984375,0.025640487670898438,-0.13255298137664795,-0.12568719685077667
1771073621167898600,9.767898681640625,-0.15811920166015625,-0.05753827095031738,-0.06987536698579788
1771073621177838300,9.77783837890625,-0.2752494812011719,0.028305649757385254,0.015603706240653992
1771073621187778000,9.787778076171875,-0.2633476257324219,0.0992889404296875,0.07798172533512115
1771073621197717800,9.7977177734375,-0.1528644561767578,0.12994873523712158,0.10934318602085114
1771073621207657500,9.807657470703125,-0.020743370056152344,0.10397255420684814,0.09112904965877533
1771073621217597200,9.81759716796875,0.031380653381347656,0.057624101638793945,0.03299134969711304
1771073621227537000,9.827536865234375,-0.03285694122314453,0.01490318775177002,-0.021346837282180786
1771073621237476600,9.8374765625,-0.1762866973876953,-0.009510636329650879,-0.07242884486913681
1771073621247416300,9.847416259765625,-0.31287670135498047,0.019994258880615234,-0.09447156637907028
1771073621257356000,9.85735595703125,-0.3202934265136719,0.053173184394836426,-0.1205441877245903
1771073621267295500,9.86729541015625,-0.2052593231201172,0.07964193820953369,-0.12958978116512299
1771073621277235200,9.877235107421875,-0.052077293395996094,0.07035183906555176,-0.11703535169363022
1771073621287175000,9.8871748046875,0.07987213134765625,0.029701709747314453,-0.09613150358200073
1771073621297115000,9.897114990234375,0.17450809478759766,-0.020993947982788086,-0.03779307007789612
1771073621307054600,9.9070546875,0.24185752868652344,-0.03448057174682617,-0.012786135077476501
1771073621316994300,9.916994384765625,0.26820850372314453,-0.041785478591918945,-0.036517173051834106
1771073621326934000,9.92693408203125,0.2753887176513672,-0.05683159828186035,-0.07064981013536453
1771073621336873700,9.936873779296874,0.2684040069580078,-0.07457304000854492,-0.09192930161952972
1771073621346813400,9.9468134765625,0.21923255920410156,-0.10201835632324219,-0.1074206531047821
1771073621356753200,9.956753173828124,0.1496906280517578,-0.09848082065582275,-0.08170358836650848
1771073621366692900,9.96669287109375,0.05539512634277344,-0.059671878814697266,-0.04388713091611862
1771073621376632600,9.976632568359374,-0.04203605651855469,0.006752371788024902,0.00506630539894104
1771073621386572500,9.986572509765624,-0.12607097625732422,0.08864951133728027,0.08054870367050171
1771073621396512300,9.99651220703125,-0.1498546600341797,0.17407727241516113,0.1556510627269745
1771073621406452000,10.006451904296876,-0.11908721923828125,0.2087167501449585,0.20253689587116241
1771073621416391700,10.0163916015625,-0.07469367980957031,0.1933075189590454,0.21987244486808777
1771073621426331400,10.026331298828126,-0.031032562255859375,0.13103675842285156,0.17559416592121124
1771073621436271000,10.03627099609375,0.007170677185058594,0.041632652282714844,0.050224125385284424
1771073621446210800,10.0462109375,-0.0024080276489257812,-0.06716668605804443,-0.0840378999710083
1771073621456150500,10.056150634765626,-0.00246429443359375,-0.13145029544830322,-0.13335709273815155
1771073621466090200,10.06609033203125,-0.03316974639892578,-0.13547396659851074,-0.1397358924150467
1771073621476030000,10.076030029296875,-0.0422210693359375,-0.09427666664123535,-0.1023644283413887
1771073621485970000,10.085969970703125,0.021834373474121094,-0.05110335350036621,-0.09503458440303802
1771073621495909600,10.09590966796875,0.10132217407226562,-0.022870898246765137,-0.09523694217205048
1771073621505849300,10.105849365234375,0.1465778350830078,-0.04729783535003662,-0.08549056202173233
1771073621515789000,10.1157890625,0.11582088470458984,-0.06956040859222412,-0.025922775268554688
1771073621525728800,10.125728759765625,0.09505176544189453,-0.06595730781555176,0.04227083921432495
1771073621535668500,10.13566845703125,0.11237335205078125,-0.041733741760253906,0.029226183891296387
1771073621545608200,10.145608154296875,0.110687255859375,-0.05403733253479004,-0.06566938757896423
1771073621555548000,10.1555478515625,0.06684303283691406,-0.08156001567840576,-0.0999290868639946
1771073621565487600,10.165487548828125,-0.03734111785888672,-0.05536937713623047,-0.06576597690582275
1771073621575427600,10.175427490234375,-0.11386680603027344,0.031499505043029785,0.00025357306003570557
1771073621585367300,10.1853671875,-0.1562814712524414,0.11075544357299805,0.050432056188583374
1771073621595307000,10.19530712890625,-0.13936328887939453,0.1667461395263672,0.09929114580154419
1771073621605246700,10.205246826171875,-0.06650543212890625,0.16955244541168213,0.11185634136199951
1771073621615186400,10.2151865234375,0.03315544128417969,0.11494672298431396,0.11534963548183441
1771073621625126100,10.225126220703125,0.10985755920410156,0.03830111026763916,0.09879401326179504
1771073621635065900,10.23506591796875,0.18534564971923828,-0.02580547332763672,0.05738183856010437
1771073621645005600,10.245005615234374,0.2456340789794922,-0.05483579635620117,-0.0015859156847000122
1771073621654945300,10.2549453125,0.22746944427490234,-0.06860518455505371,-0.04236045479774475
1771073621664885200,10.26488525390625,0.14156723022460938,-0.06491076946258545,-0.04664161801338196
1771073621674825000,10.274824951171874,0.019530296325683594,-0.054912447929382324,-0.017764881253242493
1771073621684764700,10.2847646484375,-0.03686714172363281,-0.03586316108703613,0.010111391544342041
1771073621694704400,10.294704345703124,-0.08292961120605469,-0.019282221794128418,0.020624414086341858
1771073621704644000,10.30464404296875,-0.10704421997070312,-0.009939193725585938,0.02820456027984619
1771073621714583800,10.314583740234376,-0.09777259826660156,-0.022042393684387207,0.018790289759635925
1771073621724523500,10.3245234375,-0.12161064147949219,-0.024628520011901855,0.007798150181770325
1771073621734463200,10.334463134765626,-0.23453617095947266,-0.020007014274597168,0.002201065421104431
1771073621744403000,10.34440283203125,-0.3174591064453125,0.008985757827758789,0.0009172111749649048
1771073621754343000,10.354343017578126,-0.33330440521240234,0.06499862670898438,0.03390805423259735
1771073621764282600,10.36428271484375,-0.2526102066040039,0.08420908451080322,0.06483247876167297
1771073621774222300,10.374222412109376,-0.0957632064819336,0.08330512046813965,0.08708049356937408
1771073621784162300,10.384162353515626,0.09136676788330078,0.04983937740325928,0.08341462910175323
1771073621794102000,10.39410205078125,0.18592357635498047,-0.00918269157409668,0.04603897035121918
1771073621804041700,10.404041748046875,0.21540260314941406,-0.08901751041412354,-0.05262685567140579
1771073621813981700,10.413981689453125,0.2091360092163086,-0.13985753059387207,-0.14560650289058685
1771073621823921400,10.42392138671875,0.1371631622314453,-0.16472876071929932,-0.16820016503334045
1771073621833861000,10.433861083984375,0.07592391967773438,-0.1333630084991455,-0.12746572494506836
1771073621843801000,10.443801025390625,0.048760414123535156,-0.07005047798156738,-0.05823370814323425
1771073621853740800,10.45374072265625,0.10927009582519531,-0.0013343095779418945,-0.03619585186243057
1771073621863680500,10.463680419921875,0.18066120147705078,0.03482174873352051,-0.026065215468406677
1771073621873620200,10.4736201171875,0.15446090698242188,0.010511636734008789,-0.023722857236862183
1771073621883560200,10.483560302734375,-0.0030765533447265625,0.011900186538696289,0.034427106380462646
1771073621893500000,10.4935,-0.14159107208251953,0.04436933994293213,0.07333774864673615
1771073621903439600,10.503439697265625,-0.24969863891601562,0.08446288108825684,0.03797140717506409
1771073621913379600,10.513379638671875,-0.3043813705444336,0.10400331020355225,0.010758578777313232
1771073621923319300,10.5233193359375,-0.2241344451904297,0.09401381015777588,0.007255628705024719
1771073621933259000,10.533259033203125,-0.03938865661621094,0.049778103828430176,0.013602018356323242
1771073621943199000,10.543198974609375,0.12579059600830078,-0.012555122375488281,0.03447124361991882
1771073621953138700,10.553138671875,0.24587631225585938,-0.03893435001373291,0.04254557192325592
1771073621963078400,10.563078369140625,0.23928451538085938,-0.07519018650054932,0.015170469880104065
1771073621973018400,10.573018310546875,0.16699790954589844,-0.07407140731811523,-0.003250718116760254
1771073621982958000,10.5829580078125,0.0748605728149414,-0.03384745121002197,0.016631558537483215
1771073621992897800,10.592897705078125,-0.015607833862304688,0.007257223129272461,0.058889538049697876
1771073622002837500,10.60283740234375,-0.07389545440673828,0.049723267555236816,0.05897000432014465
1771073622012777200,10.612777099609374,-0.07001113891601562,0.06342482566833496,0.053107500076293945
1771073622022717000,10.622717041015624,0.016173362731933594,0.05836021900177002,0.03728204965591431
1771073622032657000,10.632656982421874,0.09148693084716797,0.041608452796936035,0.0441175252199173
1771073622042596600,10.6425966796875,-0.0016412734985351562,0.02278292179107666,0.08374600112438202
1771073622052536300,10.652536376953124,-0.1497945785522461,0.04233860969543457,0.14731022715568542
1771073622062476000,10.66247607421875,-0.22971343994140625,0.06030547618865967,0.15013471245765686
1771073622072415700,10.672415771484374,-0.16953754425048828,0.04375112056732178,0.052071332931518555
1771073622082355500,10.68235546875,-0.011487007141113281,-0.002932429313659668,-0.0652044340968132
1771073622092295200,10.692295166015626,0.1393594741821289,-0.09446120262145996,-0.15949101746082306
1771073622102235000,10.70223486328125,0.123077392578125,-0.1458301544189453,-0.16555403172969818
1771073622112174600,10.712174560546876,-0.04346656799316406,-0.10796785354614258,-0.08486270904541016
1771073622122114600,10.722114501953126,-0.204925537109375,0.023742198944091797,0.013256371021270752
1771073622132054300,10.73205419921875,-0.2626485824584961,0.15691208839416504,0.06664907187223434
1771073622141994000,10.741993896484376,-0.24666404724121094,0.24246859550476074,0.13393625617027283
1771073622151933700,10.75193359375,-0.1157379150390625,0.24302363395690918,0.14610357582569122
1771073622161873400,10.761873291015625,0.07417011260986328,0.13093864917755127,0.10083907842636108
1771073622171813000,10.771813232421875,0.1903400421142578,-0.038552045822143555,0.019401639699935913
1771073622181752800,10.7817529296875,0.2881889343261719,-0.18237483501434326,-0.08101106435060501
1771073622191692500,10.791692626953125,0.3774690628051758,-0.2328660488128662,-0.1931041181087494
1771073622201632300,10.80163232421875,0.4042015075683594,-0.22718560695648193,-0.24017229676246643
1771073622211572200,10.811572265625,0.3035116195678711,-0.1898202896118164,-0.21147680282592773
1771073622221512000,10.821511962890625,0.12928390502929688,-0.14454925060272217,-0.17021921277046204
1771073622231451600,10.83145166015625,-0.08198833465576172,-0.10052776336669922,-0.1363603174686432
1771073622241391400,10.841391357421875,-0.22618675231933594,-0.024073481559753418,-0.0924963727593422
1771073622251331000,10.8513310546875,-0.26912403106689453,0.060828447341918945,-0.027884364128112793
1771073622261270800,10.861270751953125,-0.2948751449584961,0.1350952386856079,0.07383477687835693
1771073622271210500,10.87121044921875,-0.2731513977050781,0.20615935325622559,0.13676083087921143
1771073622281150200,10.881150146484375,-0.20482730865478516,0.2227768898010254,0.13170388340950012
1771073622291090000,10.89108984375,-0.14255905151367188,0.15800869464874268,0.04986096918582916
1771073622301030000,10.90102978515625,-0.112152099609375,0.04382646083831787,-0.04090353846549988
1771073622310969600,10.910969482421875,-0.09891223907470703,-0.036733388900756836,-0.07511018216609955
1771073622320909300,10.920909423828125,-0.07658576965332031,-0.08227694034576416,-0.07347162067890167
1771073622330849000,10.93084912109375,0.008899688720703125,-0.0561223030090332,-0.044536322355270386
1771073622340788700,10.940788818359374,0.11423873901367188,-0.0026497840881347656,-0.0006694644689559937
1771073622350728400,10.950728515625,0.26508522033691406,0.03704953193664551,0.041939981281757355
1771073622360668200,10.960668212890624,0.3336343765258789,0.017768025398254395,0.03559651970863342
1771073622370607900,10.97060791015625,0.30243492126464844,-0.0384218692779541,-0.0019458010792732239
1771073622380547600,10.980547607421874,0.18955612182617188,-0.08331072330474854,-0.018765054643154144
1771073622390487300,10.9904873046875,0.06451702117919922,-0.06448352336883545,-0.053525425493717194
1771073622400427300,11.00042724609375,-0.060851097106933594,-0.02437269687652588,-0.047776080667972565
1771073622410367000,11.010366943359376,-0.14892959594726562,0.008817791938781738,-0.07105640321969986
1771073622420306700,11.020306640625,-0.2098398208618164,0.019225239753723145,-0.05920054018497467
1771073622430246400,11.030246337890626,-0.24403095245361328,0.028416156768798828,0.012917786836624146
1771073622440186000,11.04018603515625,-0.22374343872070312,0.05554032325744629,0.08542998880147934
1771073622450125800,11.050125732421876,-0.14746952056884766,0.057514309883117676,0.07383858412504196
1771073622460065500,11.0600654296875,-0.027808189392089844,0.04582560062408447,0.0786115899682045
1771073622470005200,11.070005126953125,0.1016988754272461,0.05040550231933594,0.06177620589733124
1771073622489885000,11.089885009765625,0.08533859252929688,-0.04567849636077881,-0.018360771238803864
1771073622499824600,11.09982470703125,-0.05012321472167969,-0.06488895416259766,0.0002052411437034607
1771073622509764400,11.109764404296875,-0.13622570037841797,-0.01550137996673584,0.005135148763656616
1771073622519704000,11.1197041015625,-0.12207221984863281,0.02885758876800537,-0.00329706072807312
1771073622529643800,11.129643798828125,-0.061181068420410156,0.04738461971282959,-0.015048667788505554
1771073622539583500,11.13958349609375,-0.01793670654296875,0.010106086730957031,-0.038491636514663696
1771073622549523200,11.149523193359375,0.02911853790283203,-0.0348590612411499,-0.03498908132314682
1771073622559463000,11.159462890625,0.07519912719726562,-0.06854355335235596,-0.01787024736404419
1771073622569402600,11.169402587890625,0.0686197280883789,-0.04229903221130371,0.014908425509929657
1771073622579342600,11.179342529296875,0.040943145751953125,0.014216899871826172,0.031134411692619324
1771073622589282300,11.1892822265625,0.02558422088623047,0.0457385778427124,0.05354135483503342
1771073622599222000,11.199221923828125,0.022420883178710938,0.04275929927825928,0.0649874359369278
1771073622609161700,11.20916162109375,0.05476188659667969,-0.012774825096130371,0.030178792774677277
1771073622619101400,11.219101318359375,0.1314859390258789,-0.04269099235534668,-0.03774459660053253
1771073622629041200,11.229041259765625,0.12238788604736328,-0.08538079261779785,-0.10324876755475998
1771073622638980900,11.23898095703125,-0.0417938232421875,-0.06724190711975098,-0.12119930982589722
1771073622648920600,11.248920654296874,-0.2597780227661133,0.00966024398803711,-0.10549406707286835
1771073622658860300,11.2588603515625,-0.4154834747314453,0.10562705993652344,-0.05168429762125015
1771073622668800300,11.26880029296875,-0.3970918655395508,0.20260536670684814,0.040333397686481476
1771073622688679700,11.2886796875,0.09608745574951172,0.21079909801483154,0.14890745282173157
1771073622698619400,11.298619384765624,0.37618160247802734,0.09321343898773193,0.13495539128780365
1771073622708559000,11.30855908203125,0.5670757293701172,-0.03343915939331055,0.06679901480674744
1771073622718498800,11.318498779296876,0.6444616317749023,-0.1038815975189209,-0.006699919700622559
1771073622728438500,11.3284384765625,0.5655040740966797,-0.11208081245422363,-0.06409033387899399
1771073622738378200,11.338378173828126,0.3115272521972656,-0.0819162130355835,-0.09468427300453186
1771073622748318000,11.34831787109375,0.028909683227539062,-0.04107820987701416,-0.11028708517551422
1771073622758257700,11.358257568359376,-0.041756629943847656,0.008406519889831543,-0.10812483727931976
1771073622768197600,11.36819775390625,0.0018768310546875,0.04705512523651123,-0.06567640602588654
1771073622778137300,11.378137451171876,-0.03750324249267578,0.07964944839477539,0.07439218461513519
1771073622788077000,11.3880771484375,-0.0761260986328125,0.10873210430145264,0.1529989242553711
1771073622798016800,11.398016845703125,-0.13759708404541016,0.13701248168945312,0.1315252184867859
1771073622807956500,11.40795654296875,-0.20985794067382812,0.14863049983978271,0.07547885179519653
1771073622817896200,11.417896240234375,-0.28106021881103516,0.12574410438537598,0.03416536748409271
1771073622827836000,11.4278359375,-0.31368255615234375,0.08867287635803223,0.013652175664901733
1771073622837775600,11.437775634765625,-0.21656227111816406,0.04246175289154053,0.00856851041316986
1771073622847715300,11.44771533203125,-0.03174400329589844,-0.011382818222045898,0.028903216123580933
1771073622857655300,11.4576552734375,0.12177562713623047,-0.010479927062988281,0.07117946445941925
1771073622867595000,11.467594970703125,0.14104652404785156,0.00813138484954834,0.1117510050535202
1771073622877534700,11.47753466796875,0.12012958526611328,0.01824772357940674,0.09383399784564972
1771073622887474400,11.487474365234375,0.06436443328857422,0.0038329362869262695,0.029757022857666016
1771073622897414100,11.4974140625,0.014261245727539062,-0.022318005561828613,-0.035172536969184875
1771073622907353900,11.507353759765625,-0.06091117858886719,-0.06450426578521729,-0.07269742339849472
1771073622917293600,11.51729345703125,-0.15372753143310547,-0.08202886581420898,-0.08861842006444931
1771073622927233300,11.5272333984375,-0.20980453491210938,-0.058422207832336426,-0.09269699454307556
1771073622937173000,11.537173095703125,-0.24384021759033203,-0.02988910675048828,-0.069222591817379
1771073622947113000,11.547113037109375,-0.2279500961303711,0.020061612129211426,-0.003016069531440735
1771073622957052700,11.557052734375,-0.13706398010253906,0.053389668464660645,0.05108729004859924
1771073622966992400,11.566992431640625,0.022884368896484375,0.06300318241119385,0.056857988238334656
1771073622976932000,11.57693212890625,0.12131404876708984,0.020546317100524902,0.014021128416061401
1771073622986871800,11.586871826171874,0.15457534790039062,-0.07105100154876709,-0.04783719778060913
1771073622996811500,11.5968115234375,0.1284465789794922,-0.13551604747772217,-0.10753694921731949
1771073623006751200,11.606751220703124,0.09331417083740234,-0.13060998916625977,-0.13705575466156006
1771073623016691000,11.61669091796875,0.051697731018066406,-0.10692977905273438,-0.12357449531555176
1771073623026630700,11.626630615234374,0.010750770568847656,-0.05517375469207764,-0.09192471206188202
1771073623036570400,11.6365703125,0.045836448669433594,-0.004276633262634277,-0.030931338667869568
1771073623046510300,11.64651025390625,0.08277606964111328,0.04290950298309326,0.04527038335800171
1771073623056450000,11.656449951171876,0.04384040832519531,0.0487675666809082,0.07559417188167572
1771073623066389800,11.6663896484375,0.02911376953125,0.035573363304138184,0.04906444251537323
1771073623076329500,11.67632958984375,0.05227947235107422,0.003855466842651367,-0.016666695475578308
1771073623086269200,11.686269287109376,0.03973102569580078,-0.034386277198791504,-0.0689043402671814
1771073623096209000,11.696208984375,-0.019710540771484375,-0.06255924701690674,-0.0749441534280777
1771073623106148600,11.706148681640625,-0.06642341613769531,-0.07121491432189941,-0.061940863728523254
1771073623116088300,11.71608837890625,-0.053503990173339844,-0.03488194942474365,-0.038079679012298584
1771073623126028000,11.726028076171875,-0.033687591552734375,0.033606648445129395,0.015068724751472473
1771073623135968000,11.735968017578125,-0.01181793212890625,0.07730698585510254,0.08549228310585022
1771073623145907700,11.74590771484375,0.0049800872802734375,0.06611204147338867,0.13604740798473358
1771073623155847400,11.755847412109375,0.009685516357421875,0.01290273666381836,0.13700947165489197
1771073623165787100,11.765787109375,0.07082080841064453,-0.04659163951873779,0.04905755817890167
1771073623175726800,11.775726806640625,0.10514450073242188,-0.08009183406829834,-0.01706230640411377
1771073623185666600,11.78566650390625,-0.030506134033203125,-0.05986976623535156,-0.06344142556190491
1771073623195606300,11.795606201171875,-0.3098115921020508,0.006715059280395508,-0.06383764743804932
1771073623205546000,11.8055458984375,-0.5280771255493164,0.10390520095825195,-0.01967400312423706
1771073623215485700,11.815485595703125,-0.5616931915283203,0.19236481189727783,0.06431049108505249
1771073623225425700,11.82542578125,-0.37611961364746094,0.23730778694152832,0.19187743961811066
1771073623235365400,11.835365478515625,-0.014964103698730469,0.22706115245819092,0.2935229539871216
1771073623245305000,11.84530517578125,0.4531230926513672,0.13964247703552246,0.29532331228256226
1771073623255244800,11.855244873046875,0.7464017868041992,-0.006812453269958496,0.19820097088813782
1771073623265184500,11.8651845703125,0.7737798690795898,-0.15855038166046143,0.07332181930541992
1771073623275124200,11.875124267578125,0.5586137771606445,-0.23817026615142822,-0.05196310579776764
1771073623285064000,11.88506396484375,0.24616241455078125,-0.21545052528381348,-0.15006309747695923
1771073623295003600,11.895003662109374,-0.07493019104003906,-0.14042627811431885,-0.1918306052684784
1771073623304943400,11.904943359375,-0.27988529205322266,-0.04327404499053955,-0.1429975926876068
1771073623314883300,11.91488330078125,-0.2718935012817383,0.04356026649475098,-0.019429177045822144
1771073623324823000,11.924822998046874,-0.17940330505371094,0.09237563610076904,0.08623646199703217
1771073623334762800,11.9347626953125,-0.07451725006103516,0.08966302871704102,0.12286172807216644
1771073623344702500,11.944702392578124,-0.03044414520263672,0.05256235599517822,0.08876867592334747
1771073623354642200,11.95464208984375,-0.12150859832763672,0.02874159812927246,0.057954952120780945
1771073623364582000,11.964581787109376,-0.23477649688720703,0.04162299633026123,0.04257991909980774
1771073623374521600,11.974521484375,-0.2686033248901367,0.0412522554397583,0.0049756914377212524
1771073623384461300,11.98446142578125,-0.207733154296875,0.03686690330505371,0.005302786827087402
1771073623394401000,11.994401123046876,-0.015974044799804688,0.006743431091308594,0.0073996782302856445
1771073623404340700,12.0043408203125,0.2080373764038086,-0.07068216800689697,-0.012350797653198242
1771073623414280700,12.01428076171875,0.3272056579589844,-0.15263545513153076,-0.03926660120487213
1771073623424220400,12.024220458984376,0.3385295867919922,-0.20841872692108154,-0.05778948962688446
1771073623434160000,12.03416015625,0.26961231231689453,-0.20744657516479492,-0.12598630785942078
1771073623444099800,12.044099853515625,0.04168224334716797,-0.17370223999023438,-0.15858793258666992
1771073623454039600,12.05403955078125,-0.22252464294433594,-0.10733270645141602,-0.16840793192386627
1771073623463979300,12.063979248046875,-0.4423637390136719,-0.034287095069885254,-0.13288792967796326
1771073623473919000,12.0739189453125,-0.5149869918823242,0.03854513168334961,-0.06430195271968842
1771073623483858700,12.083858642578125,-0.428741455078125,0.11841130256652832,-0.003894239664077759
1771073623493798400,12.09379833984375,-0.20749378204345703,0.125038743019104,0.010511204600334167
1771073623503738400,12.10373828125,0.019359588623046875,0.07337558269500732,0.008959025144577026
1771073623513678000,12.113677978515625,0.1176004409790039,-0.01756000518798828,-0.010682940483093262
1771073623523617800,12.12361767578125,0.06578922271728516,-0.09275531768798828,-0.05727668106555939
1771073623533557500,12.1335576171875,-0.04886054992675781,-0.1284106969833374,-0.11080005764961243
1771073623543497200,12.143497314453125,-0.11227035522460938,-0.1130990982055664,-0.14834627509117126
1771073623553437000,12.15343701171875,-0.0028181076049804688,-0.04777252674102783,-0.13176313042640686
1771073623563376600,12.163376708984375,0.2226238250732422,-0.007463335990905762,-0.0723397433757782
1771073623573316400,12.17331640625,0.39507484436035156,-0.00464022159576416,0.0038471072912216187
1771073623583256000,12.183256103515625,0.36011409759521484,-0.013597488403320312,0.0680011659860611
1771073623593196000,12.193196044921875,0.14469623565673828,-0.019616007804870605,0.05126354098320007
1771073623603135700,12.2031357421875,-0.11890125274658203,0.0025136470794677734,-0.014115601778030396
