time,seconds_elapsed,z,y,x
1771073611486591500,0.086591552734375,0.007856319658458233,-0.1249021589756012,0.03328948840498924
1771073611496520400,0.0965205078125,0.01957421936094761,-0.08974846452474594,-0.012516847811639309
1771073611506450700,0.10645068359375,0.025965800508856773,-0.05992107838392258,-0.04767054691910744
1771073611526316000,0.12631591796875,0.03235738351941109,-0.06311687082052231,-0.05512739345431328
1771073611536252000,0.136251953125,0.03129211813211441,-0.06205160543322563,-0.03488738462328911
1771073611546189600,0.146189453125,0.02383527345955372,-0.0588558167219162,-0.011451584286987782
1771073611556129800,0.1561298828125,0.014247900806367397,-0.06311687082052231,0.005592633970081806
1771073611566071800,0.16607177734375,0.006791055668145418,-0.06418213248252869,0.013049479573965073
1771073611576015600,0.176015625,0.0025300011038780212,-0.06524740159511566,0.017310533672571182
1771073611585961200,0.185961181640625,-0.0017310534603893757,-0.06737792491912842,0.016245270147919655
1771073611595907800,0.195907958984375,-0.0070573715493083,-0.06418213248252869,0.017310533672571182
1771073611605855700,0.205855712890625,-0.012383690103888512,-0.0588558167219162,0.015180006623268127
1771073611615804200,0.21580419921875,-0.012383690103888512,-0.056725289672613144,0.007723161485046148
1771073611625752800,0.2257529296875,-0.009187898598611355,-0.04713791608810425,0.001331579522229731
1771073611635699000,0.235698974609375,-0.0070573715493083,-0.03435475379228592,-0.008255792781710625
1771073611645639000,0.245638916015625,-0.003861580742523074,-0.017310533672571182,-0.013582111336290836
1771073611655578400,0.255578369140625,-0.002796316985040903,-0.004527370445430279,-0.010386320762336254
1771073611665518000,0.26551806640625,-0.0006657897611148655,0.0050600022077560425,0.0002663159102667123
1771073611675457800,0.275457763671875,0.0025300011038780212,0.008255792781710625,0.0141147430986166
1771073611685397500,0.2853974609375,0.005725792143493891,0.003994738683104515,0.032224226742982864
1771073611695337200,0.295337158203125,0.00892158318310976,-0.007723161485046148,0.05033370852470398
1771073611705277000,0.30527685546875,0.009986846707761288,-0.029028434306383133,0.060986343771219254
1771073611715216600,0.315216552734375,0.011052110232412815,-0.04500738903880119,0.06418213248252869
1771073611725156400,0.32515625,0.011052110232412815,-0.04607265070080757,0.05992107838392258
1771073611735096000,0.335095947265625,0.006791055668145418,-0.05139897018671036,0.03968106955289841
1771073611745035800,0.345035888671875,0.005725792143493891,-0.05459476262331009,0.007723161485046148
1771073611754975200,0.354975341796875,0.007856319658458233,-0.04181159660220146,-0.015712639316916466
1771073611764915000,0.3649150390625,0.00892158318310976,-0.01837579719722271,-0.028495801612734795
1771073611774854700,0.374854736328125,0.011052110232412815,0.008255792781710625,-0.03169159218668938
1771073611784794400,0.38479443359375,0.012117373757064342,0.028495801612734795,-0.027430538088083267
1771073611794734000,0.394734130859375,0.00892158318310976,0.03488738462328911,-0.01784316636621952
1771073611804673800,0.404673828125,0.006791055668145418,0.027430538088083267,-0.007190529722720385
1771073611814613500,0.414613525390625,0.007856319658458233,0.0050600022077560425,0.007723161485046148
1771073611824553200,0.42455322265625,0.007856319658458233,-0.024767380207777023,0.02157158963382244
1771073611834493000,0.434492919921875,0.0035952648613601923,-0.05459476262331009,0.02583264373242855
1771073611844432600,0.4444326171875,-0.003861580742523074,-0.07590003311634064,0.023702116683125496
1771073611854372400,0.454372314453125,-0.010253162123262882,-0.08974846452474594,0.015180006623268127
1771073611864311800,0.464311767578125,-0.01664474420249462,-0.10040109604597092,0.004527370445430279
1771073611874251500,0.47425146484375,-0.02090579830110073,-0.10359688848257065,-0.003994738683104515
1771073611884191200,0.484191162109375,-0.024101590737700462,-0.09400951862335205,-0.014647374860942364
1771073611894131000,0.494130859375,-0.02197106182575226,-0.07483477145433426,-0.023169483989477158
1771073611914010400,0.51401025390625,-0.015579480677843094,-0.004527370445430279,-0.029561065137386322
1771073611923950000,0.5239501953125,-0.015579480677843094,0.030626330524683,-0.02210422046482563
1771073611933889800,0.533889892578125,-0.01664474420249462,0.05086633935570717,-0.008255792781710625
1771073611943829500,0.54382958984375,-0.019840534776449203,0.05512739345431328,0.008788425475358963
1771073611953769200,0.553769287109375,-0.02090579830110073,0.04980107396841049,0.02583264373242855
1771073611963708700,0.563708740234375,-0.01771000772714615,0.03701791167259216,0.036485280841588974
1771073611973648400,0.5736484375,-0.010253162123262882,0.027430538088083267,0.03435475379228592
1771073611983588000,0.583588134765625,-0.003861580742523074,0.02636527456343174,0.027963170781731606
1771073611993527800,0.59352783203125,0.0035952648613601923,0.02636527456343174,0.01837579719722271
1771073612003467500,0.603467529296875,0.012117373757064342,0.02636527456343174,0.011984216049313545
1771073612013407200,0.6134072265625,0.02277000993490219,0.024234747514128685,0.013049479573965073
1771073612023347200,0.62334716796875,0.028096329420804977,0.018908429890871048,0.019441060721874237
1771073612033287000,0.633286865234375,0.03129211813211441,0.01784316636621952,0.03009369783103466
1771073612043226600,0.6432265625,0.03129211813211441,0.019973693415522575,0.03968106955289841
1771073612053166300,0.653166259765625,0.03129211813211441,0.018908429890871048,0.04394212365150452
1771073612063106000,0.66310595703125,0.029161592945456505,0.008255792781710625,0.04394212365150452
1771073612073045800,0.673045654296875,0.0270310640335083,-0.0002663159102667123,0.040746334940195084
1771073612082985500,0.6829853515625,0.02383527345955372,-0.011984216049313545,0.03328948840498924
1771073612092925200,0.69292529296875,0.02383527345955372,-0.02583264373242855,0.024767380207777023
1771073612102865000,0.702864990234375,0.02383527345955372,-0.03328948840498924,0.016245270147919655
1771073612112804600,0.7128046875,0.024900536984205246,-0.036485280841588974,0.004527370445430279
1771073612122744600,0.72274462890625,0.02383527345955372,-0.026897907257080078,-0.002929474925622344
1771073612132684300,0.732684326171875,0.021704746410250664,-0.005592633970081806,-0.007190529722720385
1771073612142624000,0.7426240234375,0.017443692311644554,0.007190529722720385,-0.007190529722720385
1771073612152563700,0.752563720703125,0.012117373757064342,0.009321057237684727,-0.002929474925622344
1771073612162503400,0.76250341796875,0.007856319658458233,0.0050600022077560425,0.0034621069207787514
1771073612172443100,0.772443115234375,0.005725792143493891,-0.0034621069207787514,0.010918952524662018
1771073612182382800,0.7823828125,0.0025300011038780212,-0.0141147430986166,0.017310533672571182
1771073612192322600,0.792322509765625,0.0003994738799519837,-0.02157158963382244,0.016245270147919655
1771073612202262300,0.80226220703125,-0.002796316985040903,-0.023702116683125496,0.0023968431632965803
1771073612212202200,0.8122021484375,-0.002796316985040903,-0.019441060721874237,-0.014647374860942364
1771073612222142000,0.822141845703125,-0.0006657897611148655,-0.0002663159102667123,-0.02636527456343174
1771073612232081700,0.83208154296875,0.004660528618842363,0.019973693415522575,-0.02636527456343174
1771073612242021400,0.842021484375,0.009986846707761288,0.025300011038780212,-0.021038956940174103
1771073612251961000,0.851961181640625,0.012117373757064342,0.040213704109191895,-0.012516847811639309
1771073612261900800,0.86190087890625,0.014247900806367397,0.05512739345431328,-0.002929474925622344
1771073612271840500,0.871840576171875,0.01850895583629608,0.0636495053768158,0.0034621069207787514
1771073612281780200,0.8817802734375,0.021704746410250664,0.056192658841609955,0.005592633970081806
1771073612291720000,0.891719970703125,0.021704746410250664,0.03701791167259216,0.006657897960394621
1771073612301660000,0.901659912109375,0.021704746410250664,0.024234747514128685,0.010918952524662018
1771073612311599600,0.911599609375,0.02277000993490219,0.018908429890871048,0.016245270147919655
1771073612321539300,0.921539306640625,0.028096329420804977,0.030626330524683,0.02157158963382244
1771073612331479000,0.93147900390625,0.03448791056871414,0.048735812306404114,0.024767380207777023
1771073612341418800,0.941418701171875,0.03874896466732025,0.05299686640501022,0.02157158963382244
1771073612351358500,0.9513583984375,0.04301001876592636,0.03914843872189522,0.019441060721874237
1771073612361298200,0.961298095703125,0.049401599913835526,0.010386320762336254,0.020506324246525764
1771073612371238000,0.97123779296875,0.05472791939973831,-0.02157158963382244,0.019441060721874237
1771073612381177600,0.981177490234375,0.061119500547647476,-0.05139897018671036,0.015180006623268127
1771073612391117600,0.99111767578125,0.06431528925895691,-0.06631266325712204,0.006657897960394621
1771073612401057300,1.001057373046875,0.06431528925895691,-0.06737792491912842,-0.0050600022077560425
1771073612410997000,1.0109970703125,0.06218476593494415,-0.05352949723601341,-0.012516847811639309
1771073612420936700,1.020936767578125,0.05472791939973831,-0.03328948840498924,-0.010386320762336254
1771073612430876400,1.03087646484375,0.049401599913835526,-0.013049479573965073,0.0023968431632965803
1771073612440816000,1.040816162109375,0.045140545815229416,0.002929474925622344,0.019441060721874237
1771073612450755800,1.050755859375,0.03555317223072052,0.0050600022077560425,0.03435475379228592
1771073612460695600,1.060695556640625,0.02383527345955372,-0.0023968431632965803,0.040746334940195084
1771073612470635300,1.07063525390625,0.01318263728171587,-0.005592633970081806,0.03968106955289841
1771073612490515000,1.090514892578125,0.009986846707761288,0.0007989477599039674,0.027963170781731606
1771073612500454700,1.10045458984375,0.011052110232412815,-0.010918952524662018,0.015180006623268127
1771073612510394400,1.110394287109375,0.012117373757064342,-0.019441060721874237,-0.0007989477599039674
1771073612520334000,1.120333984375,0.0153131652623415,-0.017310533672571182,-0.015712639316916466
1771073612530273800,1.130273681640625,0.01850895583629608,-0.006657897960394621,-0.027430538088083267
1771073612540213500,1.140213623046875,0.01850895583629608,0.010386320762336254,-0.029561065137386322
1771073612550153200,1.1501533203125,0.01850895583629608,0.029561065137386322,-0.025300011038780212
1771073612560093000,1.160093017578125,0.01318263728171587,0.040213704109191895,-0.013582111336290836
1771073612570032600,1.17003271484375,0.005725792143493891,0.03701791167259216,-0.0018642114009708166
1771073612579972600,1.17997265625,0.0003994738799519837,0.03169159218668938,0.0034621069207787514
1771073612589912300,1.189912353515625,-0.002796316985040903,0.028495801612734795,0.0034621069207787514
1771073612599852000,1.19985205078125,-0.0070573715493083,0.028495801612734795,-0.0018642114009708166
1771073612609791700,1.209791748046875,-0.012383690103888512,0.03169159218668938,-0.010386320762336254
1771073612619731500,1.2197314453125,-0.014514217153191566,0.03169159218668938,-0.019973693415522575
1771073612629671200,1.229671142578125,-0.015579480677843094,0.027430538088083267,-0.028495801612734795
1771073612639611000,1.23961083984375,-0.015579480677843094,0.025300011038780212,-0.03701791167259216
1771073612649550600,1.249550537109375,-0.014514217153191566,0.024234747514128685,-0.04340949282050133
1771073612659490300,1.259490234375,-0.013448953628540039,0.019973693415522575,-0.04554001986980438
1771073612669430300,1.26943017578125,-0.014514217153191566,0.01784316636621952,-0.04340949282050133
1771073612679370000,1.279369873046875,-0.015579480677843094,0.009321057237684727,-0.03808317333459854
1771073612689309700,1.289309814453125,-0.019840534776449203,-0.0034621069207787514,-0.03275685757398605
1771073612699249400,1.29924951171875,-0.02090579830110073,-0.008788425475358963,-0.024234747514128685
1771073612709189000,1.309189208984375,-0.02090579830110073,-0.005592633970081806,-0.015712639316916466
1771073612719128800,1.31912890625,-0.019840534776449203,0.0007989477599039674,-0.009321057237684727
1771073612729068500,1.329068603515625,-0.02090579830110073,0.00612526573240757,-0.010386320762336254
1771073612739008300,1.33900830078125,-0.018775271251797676,0.013582111336290836,-0.010386320762336254
1771073612748948000,1.348947998046875,-0.01664474420249462,0.012516847811639309,-0.013582111336290836
1771073612758888000,1.358887939453125,-0.012383690103888512,0.007190529722720385,-0.018908429890871048
1771073612768827600,1.36882763671875,-0.008122635073959827,-0.001331579522229731,-0.02636527456343174
1771073612778767400,1.378767333984375,-0.002796316985040903,-0.006657897960394621,-0.025300011038780212
1771073612788707000,1.38870703125,0.001464737462811172,-0.004527370445430279,-0.018908429890871048
1771073612798646800,1.398646728515625,0.001464737462811172,-0.004527370445430279,-0.013582111336290836
1771073612808586500,1.40858642578125,-0.0006657897611148655,-0.007723161485046148,-0.009321057237684727
1771073612818526200,1.418526123046875,-0.003861580742523074,-0.007723161485046148,-0.00612526573240757
1771073612828466000,1.4284658203125,-0.005992108024656773,-0.006657897960394621,-0.0007989477599039674
1771073612838405600,1.438405517578125,-0.005992108024656773,0.003994738683104515,0.004527370445430279
1771073612848345000,1.448344970703125,-0.0017310534603893757,0.02636527456343174,0.008788425475358963
1771073612858284800,1.458284912109375,0.0035952648613601923,0.04980107396841049,0.015180006623268127
1771073612868224500,1.468224609375,0.009986846707761288,0.06258423626422882,0.02263685315847397
1771073612878164200,1.478164306640625,0.0153131652623415,0.05512739345431328,0.031158961355686188
1771073612888104000,1.48810400390625,0.017443692311644554,0.03169159218668938,0.03435475379228592
1771073612898043600,1.498043701171875,0.017443692311644554,-0.0002663159102667123,0.027963170781731606
1771073612907983400,1.5079833984375,0.0153131652623415,-0.031158961355686188,0.016245270147919655
1771073612917923000,1.517923095703125,0.0153131652623415,-0.05139897018671036,0.004527370445430279
1771073612927862800,1.52786279296875,0.012117373757064342,-0.0492684431374073,0.0002663159102667123
1771073612937802500,1.537802490234375,0.007856319658458233,-0.03328948840498924,0.004527370445430279
1771073612947742000,1.547741943359375,0.001464737462811172,-0.017310533672571182,0.007723161485046148
1771073612957681700,1.557681640625,-0.0070573715493083,0.0007989477599039674,0.0141147430986166
1771073612967621400,1.567621337890625,-0.012383690103888512,0.018908429890871048,0.023702116683125496
1771073612977561000,1.57756103515625,-0.01664474420249462,0.03382211923599243,0.032224226742982864
1771073612987500800,1.587500732421875,-0.019840534776449203,0.03382211923599243,0.03755054250359535
1771073612997440500,1.5974404296875,-0.02090579830110073,0.027430538088083267,0.03861580789089203
1771073613007380200,1.607380126953125,-0.018775271251797676,0.024234747514128685,0.03328948840498924
1771073613017320000,1.61731982421875,-0.012383690103888512,0.025300011038780212,0.024767380207777023
1771073613027259600,1.627259765625,-0.008122635073959827,0.024234747514128685,0.015180006623268127
1771073613037199400,1.637199462890625,-0.004926844500005245,0.023169483989477158,0.006657897960394621
1771073613047139000,1.64713916015625,-0.002796316985040903,0.024234747514128685,0.0034621069207787514
1771073613057078500,1.65707861328125,0.0003994738799519837,0.02210422046482563,0.0023968431632965803
1771073613067018200,1.667018310546875,0.0025300011038780212,0.007190529722720385,0.0023968431632965803
1771073613076958000,1.6769580078125,0.004660528618842363,-0.011984216049313545,-0.0007989477599039674
1771073613086897700,1.686897705078125,0.005725792143493891,-0.015180006623268127,-0.0018642114009708166
1771073613096837400,1.69683740234375,0.004660528618842363,-0.008788425475358963,-0.0018642114009708166
1771073613106777000,1.706777099609375,0.005725792143493891,-0.0002663159102667123,0.0002663159102667123
1771073613116716800,1.716716796875,0.007856319658458233,0.013582111336290836,0.007723161485046148
1771073613126656500,1.726656494140625,0.005725792143493891,0.02210422046482563,0.01837579719722271
1771073613136596200,1.73659619140625,0.0025300011038780212,0.023169483989477158,0.024767380207777023
1771073613146536000,1.746535888671875,-0.0006657897611148655,0.015712639316916466,0.024767380207777023
1771073613156475600,1.7564755859375,0.0003994738799519837,0.014647374860942364,0.013049479573965073
1771073613166415400,1.766415283203125,0.0025300011038780212,0.01784316636621952,0.0034621069207787514
1771073613176355000,1.77635498046875,0.0035952648613601923,0.012516847811639309,-0.007190529722720385
1771073613186294800,1.786294677734375,0.0035952648613601923,0.0007989477599039674,-0.010386320762336254
1771073613196234500,1.796234375,0.0035952648613601923,-0.006657897960394621,-0.0050600022077560425
1771073613206174200,1.80617431640625,0.001464737462811172,-0.0141147430986166,0.004527370445430279
1771073613216114200,1.8161142578125,0.001464737462811172,-0.02263685315847397,0.015180006623268127
1771073613226054000,1.826053955078125,0.0003994738799519837,-0.032224226742982864,0.01837579719722271
1771073613235993600,1.83599365234375,0.0003994738799519837,-0.036485280841588974,0.017310533672571182
1771073613245933300,1.845933349609375,-0.0006657897611148655,-0.03328948840498924,0.011984216049313545
1771073613255873000,1.855873046875,0.0003994738799519837,-0.024767380207777023,0.004527370445430279
1771073613265812700,1.865812744140625,0.0025300011038780212,-0.011984216049313545,-0.0018642114009708166
1771073613275752400,1.87575244140625,0.001464737462811172,-0.0002663159102667123,-0.0050600022077560425
1771073613285692200,1.885692138671875,-0.003861580742523074,0.0050600022077560425,-0.0050600022077560425
1771073613295632000,1.8956318359375,-0.0070573715493083,0.010386320762336254,-0.002929474925622344
1771073613305571800,1.90557177734375,-0.002796316985040903,0.009321057237684727,0.0023968431632965803
1771073613315511600,1.915511474609375,-0.002796316985040903,-0.0002663159102667123,0.007723161485046148
1771073613325451300,1.925451171875,-0.009187898598611355,-0.013049479573965073,0.0034621069207787514
1771073613335391000,1.935390869140625,-0.013448953628540039,-0.011984216049313545,-0.003994738683104515
1771073613345330700,1.94533056640625,-0.014514217153191566,0.003994738683104515,-0.014647374860942364
1771073613355270400,1.9552705078125,-0.009187898598611355,0.030626330524683,-0.019973693415522575
1771073613365210000,1.965210205078125,-0.0017310534603893757,0.06897582113742828,-0.01784316636621952
1771073613375149800,1.97514990234375,0.0025300011038780212,0.09560741484165192,-0.011451584286987782
1771073613385089500,1.985089599609375,0.0025300011038780212,0.09560741484165192,-0.007190529722720385
1771073613395029200,1.995029296875,0.0025300011038780212,0.07536740601062775,-0.009321057237684727
1771073613404969200,2.00496923828125,0.006791055668145418,0.05512739345431328,-0.013582111336290836
1771073613414909000,2.014908935546875,0.0153131652623415,0.024234747514128685,-0.021038956940174103
1771073613424848600,2.0248486328125,0.02277000993490219,-0.016245270147919655,-0.03275685757398605
1771073613434788400,2.034788330078125,0.025965800508856773,-0.04607265070080757,-0.048735812306404114
1771073613444728000,2.04472802734375,0.02383527345955372,-0.06524740159511566,-0.06471476703882217
1771073613454667800,2.054667724609375,0.016378428786993027,-0.0684431865811348,-0.0774979293346405
1771073613464607500,2.064607421875,0.007856319658458233,-0.05352949723601341,-0.08815056830644608
1771073613474547200,2.074547119140625,0.005725792143493891,-0.029028434306383133,-0.0913463607430458
1771073613484487000,2.08448681640625,0.0003994738799519837,-0.004527370445430279,-0.08282424509525299
1771073613494427000,2.094427001953125,-0.003861580742523074,0.008255792781710625,-0.0679105594754219
1771073613504366600,2.10436669921875,-0.008122635073959827,0.00612526573240757,-0.05193160101771355
1771073613514306300,2.114306396484375,-0.011318426579236984,-0.0023968431632965803,-0.03808317333459854
1771073613524246000,2.12424609375,-0.008122635073959827,-0.006657897960394621,-0.029561065137386322
1771073613534185700,2.134185791015625,-0.0017310534603893757,0.007190529722720385,-0.02636527456343174
1771073613544125400,2.14412548828125,0.004660528618842363,0.02636527456343174,-0.03169159218668938
1771073613554065200,2.154065185546875,0.00892158318310976,0.03701791167259216,-0.04554001986980438
1771073613564004900,2.1640048828125,0.011052110232412815,0.03701791167259216,-0.06151897460222244
1771073613573944600,2.173944580078125,0.012117373757064342,0.02636527456343174,-0.0774979293346405
1771073613583884500,2.183884521484375,0.014247900806367397,0.011451584286987782,-0.08921582996845245
1771073613593824300,2.19382421875,0.020639482885599136,0.002929474925622344,-0.09347688406705856
1771073613603764000,2.203763916015625,0.02383527345955372,0.00612526573240757,-0.08602003753185272
1771073613613703700,2.21370361328125,0.021704746410250664,0.009321057237684727,-0.07004108279943466
1771073613623643400,2.223643310546875,0.0153131652623415,0.002929474925622344,-0.0540621280670166
1771073613633583000,2.2335830078125,0.011052110232412815,-0.007723161485046148,-0.040213704109191895
1771073613643522800,2.243522705078125,0.00892158318310976,-0.011984216049313545,-0.03488738462328911
1771073613653462500,2.253462646484375,0.00892158318310976,-0.011984216049313545,-0.03914843872189522
1771073613663402200,2.26340234375,0.005725792143493891,-0.0002663159102667123,-0.04554001986980438
1771073613673342000,2.273342041015625,-0.0006657897611148655,0.016777902841567993,-0.05086633935570717
1771073613683282000,2.283281982421875,-0.008122635073959827,0.023169483989477158,-0.05299686640501022
1771073613693221600,2.2932216796875,-0.013448953628540039,0.013582111336290836,-0.05832318589091301
1771073613703161300,2.303161376953125,-0.013448953628540039,-0.0034621069207787514,-0.0636495053768158
1771073613713101000,2.31310107421875,-0.013448953628540039,-0.017310533672571182,-0.06897582113742828
1771073613723040800,2.323040771484375,-0.013448953628540039,-0.026897907257080078,-0.06897582113742828
1771073613732980500,2.33298046875,-0.014514217153191566,-0.023702116683125496,-0.060453712940216064
1771073613742920200,2.342920166015625,-0.011318426579236984,-0.006657897960394621,-0.04660528525710106
1771073613752860000,2.35285986328125,-0.005992108024656773,0.010386320762336254,-0.03275685757398605
1771073613762799600,2.362799560546875,-0.003861580742523074,0.015712639316916466,-0.025300011038780212
1771073613772739600,2.372739501953125,-0.004926844500005245,0.009321057237684727,-0.023169483989477158
1771073613782679300,2.38267919921875,-0.004926844500005245,0.002929474925622344,-0.02210422046482563
1771073613792619000,2.392618896484375,-0.0006657897611148655,-0.0002663159102667123,-0.018908429890871048
1771073613802558700,2.402558837890625,0.004660528618842363,-0.0023968431632965803,-0.016777902841567993
1771073613812498400,2.41249853515625,0.011052110232412815,-0.0034621069207787514,-0.012516847811639309
1771073613822438100,2.422438232421875,0.014247900806367397,-0.007723161485046148,-0.007190529722720385
1771073613832377900,2.4323779296875,0.0153131652623415,-0.017310533672571182,-0.0050600022077560425
1771073613842317600,2.442317626953125,0.017443692311644554,-0.032224226742982864,-0.00612526573240757
1771073613852257300,2.45225732421875,0.0153131652623415,-0.04287686198949814,-0.013582111336290836
1771073613862197200,2.462197265625,0.009986846707761288,-0.04500738903880119,-0.027430538088083267
1771073613872137000,2.472136962890625,0.0025300011038780212,-0.03861580789089203,-0.04127896577119827
1771073613882076700,2.48207666015625,-0.003861580742523074,-0.026897907257080078,-0.04767054691910744
1771073613892016400,2.492016357421875,-0.005992108024656773,-0.01837579719722271,-0.05086633935570717
1771073613901956000,2.5019560546875,-0.004926844500005245,-0.0141147430986166,-0.05512739345431328
1771073613911895800,2.511895751953125,-0.005992108024656773,-0.0034621069207787514,-0.05725792050361633
1771073613921835500,2.52183544921875,-0.011318426579236984,0.00612526573240757,-0.0636495053768158
1771073613931775200,2.531775146484375,-0.01771000772714615,0.014647374860942364,-0.0732368752360344
1771073613941715000,2.54171484375,-0.02090579830110073,0.024234747514128685,-0.08388951420783997
1771073613951655000,2.551655029296875,-0.01771000772714615,0.029561065137386322,-0.08921582996845245
1771073613961594600,2.5615947265625,-0.010253162123262882,0.023169483989477158,-0.09454214572906494
1771073613971534300,2.571534423828125,-0.003861580742523074,-0.0002663159102667123,-0.09454214572906494
1771073613981474000,2.58147412109375,0.0025300011038780212,-0.032224226742982864,-0.0870852991938591
1771073613991413800,2.591413818359375,0.001464737462811172,-0.056725289672613144,-0.07217161357402802
1771073614001353500,2.601353515625,-0.005992108024656773,-0.07376950979232788,-0.05086633935570717
1771073614011293200,2.611293212890625,-0.011318426579236984,-0.07803056389093399,-0.030626330524683
1771073614021232600,2.621232666015625,-0.009187898598611355,-0.06524740159511566,-0.016777902841567993
1771073614031172400,2.63117236328125,-0.004926844500005245,-0.04287686198949814,-0.009321057237684727
1771073614051051800,2.6510517578125,-0.003861580742523074,-0.0002663159102667123,0.001331579522229731
1771073614060991500,2.660991455078125,-0.011318426579236984,0.027430538088083267,0.006657897960394621
1771073614070931200,2.67093115234375,-0.009187898598611355,0.04554001986980438,0.011984216049313545
1771073614080871000,2.680870849609375,-0.003861580742523074,0.03488738462328911,0.0141147430986166
1771073614090810600,2.690810546875,0.0025300011038780212,0.014647374860942364,0.015180006623268127
1771073614100750300,2.700750244140625,0.009986846707761288,0.007190529722720385,0.024767380207777023
1771073614110690000,2.71068994140625,0.01850895583629608,0.002929474925622344,0.03435475379228592
1771073614120629500,2.72062939453125,0.024900536984205246,-0.010918952524662018,0.04394212365150452
1771073614130569200,2.7305693359375,0.025965800508856773,-0.03009369783103466,0.04287686198949814
1771073614140509000,2.740509033203125,0.028096329420804977,-0.04287686198949814,0.03328948840498924
1771073614150448600,2.75044873046875,0.03235738351941109,-0.04500738903880119,0.02263685315847397
1771073614160388400,2.760388427734375,0.03129211813211441,-0.0354200154542923,0.0141147430986166
1771073614170328000,2.770328125,0.028096329420804977,-0.019441060721874237,0.0141147430986166
1771073614180267800,2.780267822265625,0.02277000993490219,-0.007723161485046148,0.01837579719722271
1771073614190207500,2.79020751953125,0.01957421936094761,-0.0034621069207787514,0.02583264373242855
1771073614200147200,2.800147216796875,0.01318263728171587,-0.001331579522229731,0.029028434306383133
1771073614210087000,2.8100869140625,0.00892158318310976,0.0018642114009708166,0.02583264373242855
1771073614220026600,2.820026611328125,0.005725792143493891,0.0050600022077560425,0.01837579719722271
1771073614229966000,2.829966064453125,0.0035952648613601923,0.002929474925622344,0.011984216049313545
1771073614239905800,2.83990576171875,0.001464737462811172,-0.006657897960394621,0.0141147430986166
1771073614249845500,2.849845458984375,-0.002796316985040903,-0.01837579719722271,0.02263685315847397
1771073614259785200,2.85978515625,-0.003861580742523074,-0.026897907257080078,0.029028434306383133
1771073614269725000,2.869724853515625,-0.003861580742523074,-0.02583264373242855,0.032224226742982864
1771073614279664600,2.87966455078125,-0.003861580742523074,-0.01837579719722271,0.02583264373242855
1771073614289604400,2.889604248046875,-0.004926844500005245,-0.008788425475358963,0.019441060721874237
1771073614299544000,2.8995439453125,-0.0070573715493083,-0.004527370445430279,0.017310533672571182
1771073614309483800,2.90948388671875,-0.009187898598611355,-0.007723161485046148,0.020506324246525764
1771073614319423500,2.919423583984375,-0.011318426579236984,-0.011984216049313545,0.032224226742982864
1771073614329363200,2.92936328125,-0.012383690103888512,-0.007723161485046148,0.04713791608810425
1771073614339302100,2.93930224609375,-0.013448953628540039,0.00612526573240757,0.05779055133461952
1771073614349242000,2.9492421875,-0.014514217153191566,0.018908429890871048,0.06205160543322563
1771073614359181800,2.959181884765625,-0.01771000772714615,0.02636527456343174,0.056725289672613144
1771073614369121500,2.96912158203125,-0.02197106182575226,0.027430538088083267,0.04287686198949814
1771073614379061200,2.979061279296875,-0.027297381311655045,0.021038956940174103,0.02157158963382244
1771073614389001000,2.9890009765625,-0.03262370079755783,0.013582111336290836,0.005592633970081806
1771073614398940700,2.998940673828125,-0.04221107065677643,0.0007989477599039674,-0.007190529722720385
1771073614408880400,3.00888037109375,-0.04647212475538254,-0.008788425475358963,-0.013582111336290836
1771073614418820400,3.0188203125,-0.04434159770607948,-0.004527370445430279,-0.010386320762336254
1771073614428760000,3.028760009765625,-0.04221107065677643,-0.0034621069207787514,-0.0007989477599039674
1771073614438699800,3.03869970703125,-0.04114580899477005,-0.001331579522229731,0.007723161485046148
1771073614448639500,3.048639404296875,-0.04221107065677643,0.010386320762336254,0.015180006623268127
1771073614458579200,3.0585791015625,-0.04008054360747337,0.019973693415522575,0.02263685315847397
1771073614468519000,3.068518798828125,-0.03795001655817032,0.03275685757398605,0.031158961355686188
1771073614478458600,3.078458740234375,-0.03262370079755783,0.04660528525710106,0.03435475379228592
1771073614488398300,3.0883984375,-0.03262370079755783,0.04767054691910744,0.0354200154542923
1771073614498338000,3.098338134765625,-0.03368896245956421,0.03701791167259216,0.029028434306383133
1771073614508278000,3.108278076171875,-0.034754227846860886,0.030626330524683,0.023702116683125496
1771073614518217700,3.1182177734375,-0.030493171885609627,0.03169159218668938,0.016245270147919655
1771073614528157400,3.128157470703125,-0.02197106182575226,0.025300011038780212,0.00985368900001049
1771073614538097200,3.13809716796875,-0.010253162123262882,0.0050600022077560425,0.004527370445430279
1771073614548036900,3.148036865234375,-0.003861580742523074,-0.016245270147919655,0.001331579522229731
1771073614557976600,3.1579765625,-0.004926844500005245,-0.036485280841588974,0.0002663159102667123
1771073614567916300,3.167916259765625,-0.008122635073959827,-0.05139897018671036,0.0034621069207787514
1771073614577856000,3.17785595703125,-0.010253162123262882,-0.0492684431374073,0.013049479573965073
1771073614587795700,3.187795654296875,-0.015579480677843094,-0.032224226742982864,0.023702116683125496
1771073614597735400,3.1977353515625,-0.024101590737700462,-0.007723161485046148,0.032224226742982864
1771073614607675400,3.20767529296875,-0.0294279083609581,0.010386320762336254,0.03861580789089203
1771073614617615000,3.217614990234375,-0.03368896245956421,0.023169483989477158,0.04287686198949814
1771073614627554800,3.227554931640625,-0.03262370079755783,0.029561065137386322,0.04394212365150452
1771073614637494500,3.23749462890625,-0.034754227846860886,0.028495801612734795,0.04287686198949814
1771073614647434200,3.247434326171875,-0.03262370079755783,0.02636527456343174,0.036485280841588974
1771073614657374000,3.2573740234375,-0.027297381311655045,0.023169483989477158,0.027963170781731606
1771073614667313700,3.267313720703125,-0.018775271251797676,0.01784316636621952,0.019441060721874237
1771073614677253400,3.27725341796875,-0.012383690103888512,0.012516847811639309,0.0141147430986166
1771073614687193000,3.287193115234375,-0.010253162123262882,0.007190529722720385,0.00985368900001049
1771073614697133000,3.297133056640625,-0.0070573715493083,0.0007989477599039674,0.006657897960394621
1771073614707072800,3.30707275390625,-0.002796316985040903,-0.013049479573965073,0.0002663159102667123
1771073614717012500,3.317012451171875,0.0035952648613601923,-0.03328948840498924,0.0002663159102667123
1771073614726952200,3.3269521484375,0.007856319658458233,-0.04394212365150452,0.007723161485046148
1771073614736892000,3.336891845703125,0.0025300011038780212,-0.0354200154542923,0.019441060721874237
1771073614746831600,3.34683154296875,-0.002796316985040903,-0.02263685315847397,0.029028434306383133
1771073614756771300,3.356771240234375,-0.0006657897611148655,-0.007723161485046148,0.031158961355686188
1771073614766711000,3.3667109375,-0.0017310534603893757,0.0050600022077560425,0.031158961355686188
1771073614776650800,3.376650634765625,-0.009187898598611355,0.008255792781710625,0.024767380207777023
1771073614786590700,3.3865908203125,-0.012383690103888512,0.002929474925622344,0.015180006623268127
1771073614796530400,3.396530517578125,-0.009187898598611355,-0.007723161485046148,0.00985368900001049
1771073614806470100,3.40647021484375,-0.009187898598611355,-0.015180006623268127,0.010918952524662018
1771073614816409900,3.416409912109375,-0.012383690103888512,-0.020506324246525764,0.010918952524662018
1771073614826349600,3.426349609375,-0.012383690103888512,-0.020506324246525764,0.016245270147919655
1771073614836289300,3.436289306640625,-0.011318426579236984,-0.016245270147919655,0.0141147430986166
1771073614846229000,3.44622900390625,-0.005992108024656773,-0.010918952524662018,0.00985368900001049
1771073614856168700,3.456168701171875,-0.0006657897611148655,0.0018642114009708166,0.005592633970081806
1771073614866108400,3.4661083984375,0.001464737462811172,0.007190529722720385,0.0002663159102667123
1771073614876048100,3.476048095703125,0.001464737462811172,0.010386320762336254,-0.0018642114009708166
1771073614885988000,3.485988037109375,0.004660528618842363,0.009321057237684727,-0.0018642114009708166
1771073614895927800,3.495927734375,0.009986846707761288,-0.001331579522229731,-0.003994738683104515
1771073614905867500,3.505867431640625,0.007856319658458233,-0.0141147430986166,-0.0018642114009708166
1771073614915807200,3.51580712890625,0.006791055668145418,-0.02263685315847397,0.0034621069207787514
1771073614925747000,3.525746826171875,0.009986846707761288,-0.023702116683125496,0.00985368900001049
1771073614935686700,3.535686767578125,0.014247900806367397,-0.019441060721874237,0.016245270147919655
1771073614945626400,3.54562646484375,0.0153131652623415,-0.016245270147919655,0.020506324246525764
1771073614955566000,3.555566162109375,0.01318263728171587,-0.019441060721874237,0.01837579719722271
1771073614965505800,3.565505859375,0.014247900806367397,-0.020506324246525764,0.0141147430986166
1771073614975445800,3.57544580078125,0.016378428786993027,-0.019441060721874237,0.010918952524662018
1771073614985385500,3.585385498046875,0.014247900806367397,-0.020506324246525764,0.013049479573965073
1771073614995325200,3.5953251953125,0.00892158318310976,-0.024767380207777023,0.0141147430986166
1771073615005265000,3.605264892578125,0.004660528618842363,-0.03435475379228592,0.015180006623268127
1771073615015204600,3.61520458984375,0.009986846707761288,-0.036485280841588974,0.015180006623268127
1771073615025144300,3.625144287109375,0.016378428786993027,-0.024767380207777023,0.016245270147919655
1771073615035084000,3.635083984375,0.016378428786993027,-0.02157158963382244,0.0141147430986166
1771073615045023700,3.645023681640625,0.007856319658458233,-0.03328948840498924,0.010918952524662018
1771073615054963500,3.65496337890625,-0.0006657897611148655,-0.03861580789089203,0.005592633970081806
1771073615064903400,3.6649033203125,-0.003861580742523074,-0.03755054250359535,0.0002663159102667123
1771073615074843100,3.674843017578125,-0.005992108024656773,-0.031158961355686188,-0.0007989477599039674
1771073615084782800,3.684782958984375,-0.009187898598611355,-0.015180006623268127,0.001331579522229731
1771073615094722600,3.69472265625,-0.010253162123262882,0.013582111336290836,0.010918952524662018
1771073615104662300,3.704662353515625,-0.012383690103888512,0.028495801612734795,0.023702116683125496
1771073615114602000,3.71460205078125,-0.012383690103888512,0.027430538088083267,0.0354200154542923
1771073615124541700,3.724541748046875,-0.010253162123262882,0.016777902841567993,0.04607265070080757
1771073615134481400,3.7344814453125,-0.0070573715493083,0.003994738683104515,0.05352949723601341
1771073615144421000,3.744421142578125,-0.0017310534603893757,-0.007723161485046148,0.05566002428531647
1771073615154361000,3.754361083984375,0.0003994738799519837,-0.02263685315847397,0.05139897018671036
1771073615164300800,3.76430078125,-0.0006657897611148655,-0.032224226742982864,0.040746334940195084
1771073615174240500,3.774240478515625,-0.002796316985040903,-0.027963170781731606,0.032224226742982864
1771073615184180200,3.78418017578125,-0.005992108024656773,-0.019441060721874237,0.023702116683125496
1771073615194120000,3.794119873046875,-0.009187898598611355,-0.01837579719722271,0.00985368900001049
1771073615204059600,3.8040595703125,-0.011318426579236984,-0.015180006623268127,-0.0007989477599039674
1771073615213999400,3.813999267578125,-0.011318426579236984,-0.001331579522229731,-0.003994738683104515
1771073615223939000,3.82393896484375,-0.010253162123262882,0.010386320762336254,0.001331579522229731
1771073615233878800,3.833878662109375,-0.010253162123262882,0.016777902841567993,0.016245270147919655
1771073615243818500,3.843818603515625,-0.013448953628540039,0.015712639316916466,0.03328948840498924
1771073615253758500,3.853758544921875,-0.02090579830110073,0.00612526573240757,0.04287686198949814
1771073615263698000,3.863697998046875,-0.02516685426235199,0.0018642114009708166,0.03755054250359535
1771073615273637600,3.8736376953125,-0.023036325350403786,0.009321057237684727,0.023702116683125496
1771073615283577300,3.883577392578125,-0.01664474420249462,0.024234747514128685,0.00985368900001049
1771073615293517000,3.89351708984375,-0.011318426579236984,0.03488738462328911,-0.0050600022077560425
1771073615303456800,3.903456787109375,-0.009187898598611355,0.03808317333459854,-0.01784316636621952
1771073615313397500,3.9133974609375,-0.0070573715493083,0.03914843872189522,-0.02210422046482563
1771073615323336400,3.92333642578125,-0.004926844500005245,0.03808317333459854,-0.018908429890871048
1771073615333275400,3.933275390625,-0.003861580742523074,0.025300011038780212,-0.012516847811639309
1771073615343214300,3.94321435546875,-0.0070573715493083,0.007190529722720385,-0.002929474925622344
1771073615353153300,3.9531533203125,-0.010253162123262882,-0.006657897960394621,0.0034621069207787514
1771073615363092500,3.963092529296875,-0.012383690103888512,-0.004527370445430279,0.004527370445430279
1771073615373031700,3.97303173828125,-0.009187898598611355,0.007190529722720385,0.004527370445430279
1771073615382971100,3.98297119140625,-0.0070573715493083,0.016777902841567993,0.0034621069207787514
1771073615392910600,3.99291064453125,-0.010253162123262882,0.02210422046482563,0.0002663159102667123
1771073615402850300,4.002850341796875,-0.014514217153191566,0.028495801612734795,-0.003994738683104515
1771073615412790000,4.0127900390625,-0.014514217153191566,0.03382211923599243,-0.007190529722720385
1771073615422730000,4.02272998046875,-0.010253162123262882,0.03808317333459854,-0.0050600022077560425
1771073615432670000,4.032669921875,-0.004926844500005245,0.04234423115849495,0.008788425475358963
1771073615442610200,4.042610107421875,-0.0006657897611148655,0.03914843872189522,0.023702116683125496
1771073615452550400,4.05255029296875,0.0035952648613601923,0.024234747514128685,0.032224226742982864
1771073615462490600,4.06249072265625,0.009986846707761288,0.0050600022077560425,0.032224226742982864
1771073615472431000,4.07243115234375,0.0153131652623415,-0.015180006623268127,0.023702116683125496
1771073615482371300,4.082371337890625,0.020639482885599136,-0.02263685315847397,0.016245270147919655
1771073615492311600,4.0923115234375,0.02277000993490219,-0.01837579719722271,0.016245270147919655
1771073615502251500,4.10225146484375,0.02277000993490219,-0.005592633970081806,0.02157158963382244
1771073615512191200,4.112191162109375,0.024900536984205246,0.008255792781710625,0.02263685315847397
1771073615522131000,4.122130859375,0.030226856470108032,0.019973693415522575,0.01837579719722271
1771073615532070700,4.132070556640625,0.030226856470108032,0.01784316636621952,0.007723161485046148
1771073615542010400,4.14201025390625,0.029161592945456505,0.009321057237684727,0.0023968431632965803
1771073615551950000,4.1519501953125,0.028096329420804977,0.009321057237684727,0.006657897960394621
1771073615561889800,4.161889892578125,0.028096329420804977,0.009321057237684727,0.020506324246525764
1771073615571829500,4.17182958984375,0.02383527345955372,0.0050600022077560425,0.032224226742982864
1771073615581769200,4.181769287109375,0.020639482885599136,0.0018642114009708166,0.03755054250359535
1771073615591709000,4.191708984375,0.01957421936094761,0.0018642114009708166,0.026897907257080078
1771073615601648600,4.201648681640625,0.024900536984205246,0.009321057237684727,0.010918952524662018
1771073615611588000,4.211588134765625,0.029161592945456505,0.01784316636621952,0.001331579522229731
1771073615621527800,4.22152783203125,0.029161592945456505,0.012516847811639309,-0.0018642114009708166
1771073615631467500,4.231467529296875,0.0270310640335083,0.0007989477599039674,-0.0018642114009708166
1771073615641407200,4.2414072265625,0.025965800508856773,-0.010918952524662018,0.0002663159102667123
1771073615651347000,4.251346923828125,0.024900536984205246,-0.013049479573965073,0.0002663159102667123
1771073615661286700,4.26128662109375,0.020639482885599136,-0.010918952524662018,-0.002929474925622344
1771073615671226400,4.271226318359375,0.0153131652623415,-0.006657897960394621,-0.007190529722720385
1771073615681166000,4.281166015625,0.014247900806367397,0.0050600022077560425,-0.007190529722720385
1771073615691105800,4.291105712890625,0.016378428786993027,0.02210422046482563,-0.0018642114009708166
1771073615701045500,4.30104541015625,0.021704746410250664,0.04554001986980438,0.005592633970081806
1771073615710985000,4.31098486328125,0.024900536984205246,0.0679105594754219,0.011984216049313545
1771073615720924700,4.320924560546875,0.02277000993490219,0.07004108279943466,0.00985368900001049
1771073615730864400,4.330864501953125,0.020639482885599136,0.05299686640501022,0.005592633970081806
1771073615740804000,4.34080419921875,0.024900536984205246,0.03169159218668938,-0.0007989477599039674
1771073615750743800,4.350743896484375,0.03235738351941109,0.00612526573240757,-0.003994738683104515
1771073615760683500,4.36068359375,0.0366184376180172,-0.02157158963382244,-0.00612526573240757
1771073615770623200,4.370623291015625,0.03874896466732025,-0.03968106955289841,-0.009321057237684727
1771073615780563000,4.38056298828125,0.04407528415322304,-0.04287686198949814,-0.011451584286987782
1771073615790502700,4.390502685546875,0.04833633825182915,-0.032224226742982864,-0.013582111336290836
1771073615800442400,4.4004423828125,0.04620581120252609,-0.02157158963382244,-0.013582111336290836
1771073615810381800,4.4103818359375,0.03874896466732025,-0.0141147430986166,-0.008255792781710625
1771073615820321500,4.420321533203125,0.029161592945456505,-0.006657897960394621,0.0023968431632965803
1771073615830261200,4.43026123046875,0.025965800508856773,-0.004527370445430279,0.0141147430986166
1771073615840201000,4.440200927734375,0.028096329420804977,-0.0034621069207787514,0.027963170781731606
1771073615850140700,4.450140625,0.030226856470108032,-0.008788425475358963,0.036485280841588974
1771073615860080400,4.460080322265625,0.033422645181417465,-0.0141147430986166,0.03968106955289841
1771073615870020000,4.47002001953125,0.04194475710391998,-0.015180006623268127,0.03755054250359535
1771073615879959800,4.479959716796875,0.05259739235043526,-0.015180006623268127,0.029028434306383133
1771073615889899800,4.489899658203125,0.05579318478703499,-0.019441060721874237,0.01837579719722271
1771073615899839500,4.499839599609375,0.05579318478703499,-0.020506324246525764,0.007723161485046148
1771073615909779200,4.509779296875,0.05579318478703499,-0.027963170781731606,-0.0007989477599039674
1771073615919719000,4.519718994140625,0.0600542388856411,-0.03328948840498924,-0.0050600022077560425
1771073615929658600,4.52965869140625,0.06431528925895691,-0.02583264373242855,-0.0007989477599039674
1771073615939598300,4.539598388671875,0.06751108169555664,-0.02263685315847397,0.011984216049313545
1771073615949538000,4.5495380859375,0.061119500547647476,-0.026897907257080078,0.026897907257080078
1771073615959477800,4.559477783203125,0.04620581120252609,-0.026897907257080078,0.03968106955289841
1771073615969417500,4.56941748046875,0.0366184376180172,-0.023702116683125496,0.0492684431374073
1771073615979357400,4.579357421875,0.029161592945456505,-0.02583264373242855,0.05139897018671036
1771073615989297200,4.589297119140625,0.025965800508856773,-0.020506324246525764,0.0492684431374073
1771073615999236900,4.59923681640625,0.01957421936094761,-0.007723161485046148,0.04607265070080757
1771073616009176600,4.609176513671875,0.01318263728171587,0.002929474925622344,0.03968106955289841
1771073616019116300,4.6191162109375,0.009986846707761288,0.010386320762336254,0.03328948840498924
1771073616029056000,4.629055908203125,0.00892158318310976,0.018908429890871048,0.027963170781731606
1771073616038995700,4.63899560546875,0.006791055668145418,0.014647374860942364,0.01837579719722271
1771073616048935400,4.648935302734375,0.0035952648613601923,0.012516847811639309,0.01837579719722271
1771073616058875100,4.658875244140625,0.004660528618842363,0.014647374860942364,0.026897907257080078
1771073616068814800,4.66881494140625,0.0035952648613601923,0.009321057237684727,0.03435475379228592
1771073616078754800,4.6787548828125,0.0035952648613601923,0.0007989477599039674,0.040746334940195084
1771073616088694500,4.688694580078125,0.007856319658458233,0.002929474925622344,0.04287686198949814
1771073616098634200,4.69863427734375,0.011052110232412815,0.013582111336290836,0.040746334940195084
1771073616108574000,4.708573974609375,0.0153131652623415,0.027430538088083267,0.03968106955289841
1771073616128453400,4.728453369140625,0.02277000993490219,0.024234747514128685,0.04713791608810425
1771073616138393000,4.73839306640625,0.01850895583629608,0.011451584286987782,0.05352949723601341
1771073616148332800,4.748332763671875,0.011052110232412815,-0.004527370445430279,0.05566002428531647
1771073616158272500,4.7582724609375,0.011052110232412815,-0.0141147430986166,0.05459476262331009
1771073616168212500,4.76821240234375,0.014247900806367397,-0.016245270147919655,0.0492684431374073
1771073616178152200,4.778152099609375,0.017443692311644554,-0.016245270147919655,0.04713791608810425
1771073616188092000,4.788091796875,0.016378428786993027,-0.01837579719722271,0.048203181475400925
1771073616198031600,4.798031494140625,0.0153131652623415,-0.031158961355686188,0.05033370852470398
1771073616207971300,4.807971435546875,0.006791055668145418,-0.05352949723601341,0.03968106955289841
1771073616217911000,4.8179111328125,0.0025300011038780212,-0.06524740159511566,0.027963170781731606
1771073616227850800,4.827850830078125,0.0025300011038780212,-0.0492684431374073,0.015180006623268127
1771073616247730200,4.847730224609375,0.006791055668145418,0.003994738683104515,-0.00612526573240757
1771073616257670100,4.857670166015625,0.0003994738799519837,0.0007989477599039674,-0.011451584286987782
1771073616267609900,4.86760986328125,-0.011318426579236984,-0.015180006623268127,-0.013582111336290836
1771073616277549600,4.877549560546875,-0.018775271251797676,-0.031158961355686188,-0.013582111336290836
1771073616287489300,4.8874892578125,-0.023036325350403786,-0.04713791608810425,-0.010386320762336254
1771073616297429000,4.897428955078125,-0.023036325350403786,-0.04394212365150452,-0.008255792781710625
1771073616307368700,4.90736865234375,-0.023036325350403786,-0.017310533672571182,-0.00612526573240757
1771073616317308400,4.917308349609375,-0.024101590737700462,0.0050600022077560425,-0.013582111336290836
1771073616327248100,4.927248046875,-0.02197106182575226,0.008255792781710625,-0.02636527456343174
1771073616337187800,4.937187744140625,-0.01664474420249462,-0.005592633970081806,-0.03701791167259216
1771073616347127800,4.9471279296875,-0.009187898598611355,-0.02157158963382244,-0.03808317333459854
1771073616357067500,4.957067626953125,-0.0017310534603893757,-0.023702116683125496,-0.024234747514128685
1771073616367007200,4.96700732421875,0.0035952648613601923,-0.0141147430986166,-0.0050600022077560425
1771073616376947000,4.976947021484375,0.006791055668145418,-0.02263685315847397,0.004527370445430279
1771073616386886700,4.98688671875,0.00892158318310976,-0.03328948840498924,0.004527370445430279
1771073616396826400,4.996826416015625,0.009986846707761288,-0.03328948840498924,-0.0018642114009708166
1771073616406766000,5.00676611328125,0.007856319658458233,-0.017310533672571182,-0.008255792781710625
1771073616416705800,5.016705810546875,0.006791055668145418,0.0007989477599039674,-0.00612526573240757
1771073616426645500,5.0266455078125,0.0035952648613601923,0.011451584286987782,0.005592633970081806
1771073616436585200,5.036585205078125,-0.0006657897611148655,0.018908429890871048,0.02157158963382244
1771073616446525200,5.046525146484375,-0.003861580742523074,0.009321057237684727,0.036485280841588974
1771073616456465000,5.05646484375,-0.0070573715493083,-0.00985368900001049,0.03968106955289841
1771073616466404600,5.066404541015625,-0.0070573715493083,-0.024767380207777023,0.03328948840498924
1771073616476344300,5.07634423828125,-0.0017310534603893757,-0.023702116683125496,0.02263685315847397
1771073616486284000,5.086283935546875,0.001464737462811172,-0.013049479573965073,0.007723161485046148
1771073616496223700,5.0962236328125,0.0025300011038780212,-0.005592633970081806,-0.008255792781710625
1771073616506163500,5.10616357421875,0.0035952648613601923,-0.0034621069207787514,-0.019973693415522575
1771073616516103200,5.116103271484375,0.004660528618842363,-0.0034621069207787514,-0.02636527456343174
1771073616526043000,5.12604296875,0.007856319658458233,0.0007989477599039674,-0.024234747514128685
1771073616535982800,5.13598291015625,0.006791055668145418,0.00612526573240757,-0.015712639316916466
1771073616545922600,5.145922607421875,0.0035952648613601923,0.008255792781710625,-0.003994738683104515
1771073616555862300,5.1558623046875,-0.0006657897611148655,0.0018642114009708166,0.004527370445430279
1771073616565802000,5.165802001953125,-0.0070573715493083,-0.007723161485046148,0.00985368900001049
1771073616575741700,5.17574169921875,-0.010253162123262882,-0.010918952524662018,0.013049479573965073
1771073616585681400,5.185681396484375,-0.011318426579236984,-0.0141147430986166,0.0141147430986166
1771073616595621000,5.19562109375,-0.010253162123262882,-0.005592633970081806,0.015180006623268127
1771073616605560800,5.205560791015625,-0.009187898598611355,0.003994738683104515,0.016245270147919655
1771073616615500500,5.21550048828125,-0.009187898598611355,0.003994738683104515,0.017310533672571182
1771073616625440500,5.2254404296875,-0.010253162123262882,0.0007989477599039674,0.010918952524662018
1771073616635380200,5.235380126953125,-0.0070573715493083,-0.001331579522229731,0.004527370445430279
1771073616645320000,5.24531982421875,-0.003861580742523074,-0.004527370445430279,-0.0007989477599039674
1771073616655259600,5.255259765625,-0.0017310534603893757,-0.005592633970081806,-0.0018642114009708166
1771073616665199400,5.265199462890625,-0.0006657897611148655,-0.0023968431632965803,0.0002663159102667123
1771073616675139000,5.27513916015625,-0.0006657897611148655,0.0007989477599039674,0.0002663159102667123
1771073616685078800,5.285078857421875,-0.0006657897611148655,0.0018642114009708166,-0.0018642114009708166
1771073616695018500,5.2950185546875,-0.0017310534603893757,-0.001331579522229731,-0.007190529722720385
1771073616704958200,5.304958251953125,-0.004926844500005245,-0.007723161485046148,-0.012516847811639309
1771073616714898000,5.31489794921875,-0.005992108024656773,-0.005592633970081806,-0.012516847811639309
1771073616724838000,5.324837890625,-0.0070573715493083,-0.004527370445430279,-0.011451584286987782
1771073616734777600,5.334777587890625,-0.010253162123262882,-0.0034621069207787514,-0.011451584286987782
1771073616744717300,5.34471728515625,-0.008122635073959827,0.002929474925622344,-0.012516847811639309
1771073616754657000,5.354656982421875,-0.010253162123262882,0.010386320762336254,-0.014647374860942364
1771073616764596700,5.3645966796875,-0.010253162123262882,0.015712639316916466,-0.023169483989477158
1771073616774536400,5.374536376953125,-0.009187898598611355,0.019973693415522575,-0.030626330524683
1771073616784476200,5.38447607421875,-0.005992108024656773,0.025300011038780212,-0.03275685757398605
1771073616794415900,5.394415771484375,-0.005992108024656773,0.02636527456343174,-0.03169159218668938
1771073616804355600,5.40435546875,-0.009187898598611355,0.013582111336290836,-0.030626330524683
1771073616814295600,5.414295654296875,-0.014514217153191566,-0.011984216049313545,-0.035952646285295486
1771073616824235300,5.4242353515625,-0.018775271251797676,-0.0354200154542923,-0.04767054691910744
1771073616834175000,5.434175048828125,-0.023036325350403786,-0.04607265070080757,-0.05832318589091301
1771073616844114700,5.44411474609375,-0.026232117787003517,-0.03968106955289841,-0.06471476703882217
1771073616854054400,5.454054443359375,-0.026232117787003517,-0.00985368900001049,-0.0679105594754219
1771073616863994000,5.463994140625,-0.02516685426235199,0.03701791167259216,-0.0679105594754219
1771073616873933800,5.473933837890625,-0.02197106182575226,0.07536740601062775,-0.06897582113742828
1771073616883873500,5.48387353515625,-0.01771000772714615,0.08069372177124023,-0.06684529036283493
1771073616893813200,5.493813232421875,-0.01664474420249462,0.05832318589091301,-0.060453712940216064
1771073616903753200,5.503753173828125,-0.014514217153191566,0.024234747514128685,-0.04554001986980438
1771073616913693000,5.51369287109375,-0.012383690103888512,-0.008788425475358963,-0.027430538088083267
1771073616923632600,5.523632568359375,-0.012383690103888512,-0.03861580789089203,-0.01784316636621952
1771073616933572400,5.533572265625,-0.010253162123262882,-0.05779055133461952,-0.019973693415522575
1771073616943512000,5.543511962890625,-0.005992108024656773,-0.05459476262331009,-0.028495801612734795
1771073616953451800,5.55345166015625,-0.003861580742523074,-0.0354200154542923,-0.035952646285295486
1771073616963391500,5.5633916015625,-0.003861580742523074,-0.00985368900001049,-0.03914843872189522
1771073616973331200,5.573331298828125,-0.005992108024656773,0.019973693415522575,-0.028495801612734795
1771073616983271000,5.58327099609375,-0.008122635073959827,0.03808317333459854,-0.008255792781710625
1771073616993211000,5.5932109375,-0.015579480677843094,0.03382211923599243,0.011984216049313545
1771073617003150600,5.603150634765625,-0.02197106182575226,0.01784316636621952,0.027963170781731606
1771073617013090300,5.61309033203125,-0.02516685426235199,0.0018642114009708166,0.032224226742982864
1771073617023030000,5.623030029296875,-0.024101590737700462,-0.008788425475358963,0.027963170781731606
1771073617032969700,5.6329697265625,-0.019840534776449203,-0.013049479573965073,0.0141147430986166
1771073617042909400,5.642909423828125,-0.01771000772714615,-0.013049479573965073,-0.007190529722720385
1771073617052849200,5.65284912109375,-0.01664474420249462,-0.007723161485046148,-0.030626330524683
1771073617062788600,5.66278857421875,-0.015579480677843094,0.0018642114009708166,-0.048735812306404114
1771073617072728300,5.672728271484375,-0.013448953628540039,0.01784316636621952,-0.056192658841609955
1771073617082668000,5.68266796875,-0.012383690103888512,0.027430538088083267,-0.05299686640501022
1771073617092607700,5.692607666015625,-0.01664474420249462,0.023169483989477158,-0.04554001986980438
1771073617102547500,5.70254736328125,-0.02090579830110073,0.01784316636621952,-0.03808317333459854
1771073617112487200,5.712487060546875,-0.027297381311655045,0.018908429890871048,-0.028495801612734795
1771073617122427000,5.722427001953125,-0.03262370079755783,0.01784316636621952,-0.019973693415522575
1771073617132366600,5.73236669921875,-0.03795001655817032,0.012516847811639309,-0.018908429890871048
1771073617142306300,5.742306396484375,-0.043276336044073105,0.007190529722720385,-0.028495801612734795
1771073617152246000,5.75224609375,-0.04434159770607948,0.016777902841567993,-0.040213704109191895
1771073617162185500,5.762185546875,-0.043276336044073105,0.029561065137386322,-0.048735812306404114
1771073617172125200,5.772125244140625,-0.04221107065677643,0.03701791167259216,-0.05832318589091301
1771073617182065000,5.78206494140625,-0.03795001655817032,0.04660528525710106,-0.06578002870082855
1771073617192004600,5.792004638671875,-0.035819489508867264,0.04980107396841049,-0.07217161357402802
1771073617201944300,5.8019443359375,-0.035819489508867264,0.044474758207798004,-0.0774979293346405
1771073617211884000,5.811884033203125,-0.034754227846860886,0.03169159218668938,-0.0774979293346405
1771073617221823700,5.82182373046875,-0.03368896245956421,0.019973693415522575,-0.07536740601062775
1771073617231763500,5.831763427734375,-0.030493171885609627,0.011451584286987782,-0.07110634446144104
1771073617241703200,5.841703125,-0.027297381311655045,0.00612526573240757,-0.0679105594754219
1771073617251643000,5.851642822265625,-0.02516685426235199,0.003994738683104515,-0.06684529036283493
1771073617261582600,5.86158251953125,-0.023036325350403786,-0.0023968431632965803,-0.0679105594754219
1771073617271522000,5.87152197265625,-0.02197106182575226,-0.007723161485046148,-0.07110634446144104
1771073617281461800,5.881461669921875,-0.019840534776449203,-0.007723161485046148,-0.0774979293346405
1771073617291401500,5.8914013671875,-0.01664474420249462,-0.0023968431632965803,-0.08282424509525299
1771073617301341200,5.901341064453125,-0.010253162123262882,0.0018642114009708166,-0.08815056830644608
1771073617311281000,5.911281005859375,-0.004926844500005245,0.0018642114009708166,-0.08815056830644608
1771073617321220600,5.921220703125,-0.0006657897611148655,0.003994738683104515,-0.08069372177124023
1771073617331160300,5.931160400390625,0.004660528618842363,-0.001331579522229731,-0.06578002870082855
1771073617341100000,5.94110009765625,0.007856319658458233,-0.0141147430986166,-0.05193160101771355
1771073617351039700,5.951039794921875,0.001464737462811172,-0.020506324246525764,-0.048735812306404114
1771073617360979500,5.9609794921875,-0.0070573715493083,-0.026897907257080078,-0.05832318589091301
1771073617370919200,5.970919189453125,-0.004926844500005245,-0.03435475379228592,-0.07430213689804077
1771073617380859100,5.980859130859375,0.0025300011038780212,-0.027963170781731606,-0.08602003753185272
1771073617390798800,5.990798828125,0.006791055668145418,-0.004527370445430279,-0.08495477586984634
1771073617400738600,6.000738525390625,0.005725792143493891,0.018908429890871048,-0.07643266767263412
1771073617410678300,6.01067822265625,0.0025300011038780212,0.029561065137386322,-0.06684529036283493
1771073617420618000,6.020617919921875,0.0003994738799519837,0.025300011038780212,-0.05725792050361633
1771073617430557700,6.0305576171875,0.0003994738799519837,0.016777902841567993,-0.05086633935570717
1771073617440497400,6.040497314453125,-0.0006657897611148655,0.003994738683104515,-0.044474758207798004
1771073617450437000,6.05043701171875,-0.005992108024656773,-0.020506324246525764,-0.04234423115849495
1771073617460376800,6.060376953125,-0.010253162123262882,-0.060986343771219254,-0.04980107396841049
1771073617470316800,6.07031689453125,-0.008122635073959827,-0.09400951862335205,-0.06151897460222244
1771073617480256500,6.080256591796875,-0.004926844500005245,-0.105727419257164,-0.06471476703882217
1771073617490196200,6.0901962890625,-0.0070573715493083,-0.09400951862335205,-0.06258423626422882
1771073617500136000,6.100135986328125,-0.01664474420249462,-0.07590003311634064,-0.05725792050361633
1771073617510075600,6.11007568359375,-0.0294279083609581,-0.05779055133461952,-0.05086633935570717
1771073617520015400,6.120015380859375,-0.03368896245956421,-0.03435475379228592,-0.04234423115849495
1771073617529955000,6.129955078125,-0.035819489508867264,-0.019441060721874237,-0.03275685757398605
1771073617539894800,6.139894775390625,-0.026232117787003517,-0.0141147430986166,-0.021038956940174103
1771073617549834500,6.14983447265625,-0.010253162123262882,-0.008788425475358963,-0.013582111336290836
1771073617559774500,6.1597744140625,-0.02516685426235199,-0.029028434306383133,-0.015712639316916466
1771073617569714200,6.169714111328125,-0.018775271251797676,-0.023702116683125496,-0.014647374860942364
1771073617579654000,6.17965380859375,0.0035952648613601923,-0.01837579719722271,-0.015712639316916466
1771073617589593600,6.189593505859375,0.01318263728171587,-0.04287686198949814,-0.02210422046482563
1771073617599533300,6.199533203125,0.012117373757064342,-0.05352949723601341,-0.025300011038780212
1771073617609473000,6.20947314453125,0.016378428786993027,-0.05566002428531647,-0.03382211923599243
1771073617619412700,6.219412841796875,0.03448791056871414,-0.07696529477834702,-0.04980107396841049
1771073617629352400,6.2293525390625,0.05898897349834442,-0.09507478028535843,-0.07110634446144104
1771073617639292200,6.239292236328125,0.07283740490674973,-0.10040109604597092,-0.08815056830644608
1771073617649232100,6.249232177734375,0.08029424399137497,-0.09933583438396454,-0.1009337306022644
1771073617659171800,6.259171875,0.09520793706178665,-0.11211899667978287,-0.11584742367267609
1771073617669111600,6.269111572265625,0.10373004525899887,-0.13981585204601288,-0.1296958476305008
1771073617679051300,6.27905126953125,0.11012163013219833,-0.171773761510849,-0.13502216339111328
1771073617688991000,6.288990966796875,0.11331742256879807,-0.18668745458126068,-0.1392832249403
1771073617698930700,6.2989306640625,0.09733846783638,-0.18775272369384766,-0.12650005519390106
1771073617708870400,6.308870361328125,0.0739026665687561,-0.17390428483486176,-0.10732531547546387
1771073617718810000,6.31881005859375,0.061119500547647476,-0.1621863842010498,-0.08921582996845245
1771073617728749800,6.328749755859375,0.05579318478703499,-0.14620743691921234,-0.07110634446144104
1771073617738689500,6.338689453125,0.02277000993490219,-0.02263685315847397,0.011984216049313545
1771073617748629500,6.34862939453125,-0.028362644836306572,0.06578002870082855,0.12383689731359482
1771073617758569200,6.3585693359375,-0.07097318768501282,0.028495801612734795,0.17496955394744873
1771073617768509000,6.368509033203125,-0.07843003422021866,-0.02583264373242855,0.19201377034187317
1771073617778448600,6.37844873046875,-0.04966791719198227,-0.04394212365150452,0.18881797790527344
1771073617788388400,6.388388427734375,-0.011318426579236984,0.0018642114009708166,0.16964323818683624
1771073617798328000,6.398328125,0.01318263728171587,0.04127896577119827,0.1387505829334259
1771073617808267800,6.408267822265625,0.01850895583629608,0.07110634446144104,0.09400951862335205
1771073617818207500,6.41820751953125,0.01850895583629608,0.08921582996845245,0.04287686198949814
1771073617828147200,6.428147216796875,0.020639482885599136,0.09347688406705856,-0.0007989477599039674
1771073617838087200,6.438087158203125,0.021704746410250664,0.09028109163045883,-0.03382211923599243
1771073617848027000,6.44802685546875,0.012117373757064342,0.0870852991938591,-0.05299686640501022
1771073617857966600,6.457966552734375,-0.008122635073959827,0.07856319099664688,-0.05832318589091301
1771073617867906300,6.46790625,-0.0294279083609581,0.060453712940216064,-0.048735812306404114
1771073617877846000,6.477845947265625,-0.04647212475538254,0.04127896577119827,-0.024234747514128685
1771073617887785700,6.48778564453125,-0.05819002538919449,0.03275685757398605,0.0034621069207787514
1771073617897725400,6.497725341796875,-0.07310371845960617,0.024234747514128685,0.02583264373242855
1771073617907665200,6.5076650390625,-0.08695214241743088,0.015712639316916466,0.036485280841588974
1771073617917604900,6.51760498046875,-0.09121319651603699,0.015712639316916466,0.04500738903880119
1771073617927544800,6.527544921875,-0.08269108831882477,0.029561065137386322,0.048203181475400925
1771073617937484500,6.537484619140625,-0.06351634114980698,0.05512739345431328,0.048203181475400925
1771073617947424300,6.54742431640625,-0.04647212475538254,0.07962846010923386,0.04607265070080757
1771073617957364000,6.557364013671875,-0.04114580899477005,0.0870852991938591,0.03755054250359535
1771073617967303700,6.5673037109375,-0.047537390142679214,0.0774979293346405,0.02583264373242855
1771073617977243400,6.577243408203125,-0.059255290776491165,0.06258423626422882,0.013049479573965073
1771073617987183000,6.58718310546875,-0.07736477255821228,0.040213704109191895,0.001331579522229731
1771073617997122800,6.597122802734375,-0.09334372729063034,0.016777902841567993,-0.013582111336290836
1771073618007062500,6.6070625,-0.0997353047132492,-0.005592633970081806,-0.028495801612734795
1771073618017002500,6.61700244140625,-0.09334372729063034,-0.027963170781731606,-0.04234423115849495
1771073618026942200,6.626942138671875,-0.08482161909341812,-0.04713791608810425,-0.05938844755291939
1771073618036882000,6.6368818359375,-0.07949529588222504,-0.052464235574007034,-0.07536740601062775
1771073618046821600,6.646821533203125,-0.08056056499481201,-0.05139897018671036,-0.07962846010923386
1771073618056761300,6.65676123046875,-0.08056056499481201,-0.031158961355686188,-0.0679105594754219
1771073618066701000,6.666701171875,-0.07843003422021866,-0.001331579522229731,-0.04554001986980438
1771073618076640800,6.676640869140625,-0.07203845679759979,0.016777902841567993,-0.028495801612734795
1771073618086580500,6.68658056640625,-0.06138581782579422,0.01784316636621952,-0.02210422046482563
1771073618096520200,6.696520263671875,-0.04966791719198227,0.002929474925622344,-0.02636527456343174
1771073618106460000,6.7064599609375,-0.039015281945466995,-0.016245270147919655,-0.03808317333459854
1771073618116399900,6.71639990234375,-0.026232117787003517,-0.02157158963382244,-0.05086633935570717
1771073618126339600,6.726339599609375,-0.014514217153191566,-0.016245270147919655,-0.05832318589091301
1771073618136279300,6.736279296875,-0.011318426579236984,-0.0141147430986166,-0.06578002870082855
1771073618146219000,6.746218994140625,-0.01771000772714615,-0.026897907257080078,-0.07110634446144104
1771073618156158700,6.75615869140625,-0.03368896245956421,-0.03861580789089203,-0.07643266767263412
1771073618166098400,6.766098388671875,-0.047537390142679214,-0.04394212365150452,-0.08069372177124023
1771073618176038100,6.7760380859375,-0.056059498339891434,-0.03435475379228592,-0.08175898343324661
1771073618185977900,6.785977783203125,-0.05712476372718811,-0.02263685315847397,-0.08175898343324661
1771073618195917600,6.79591748046875,-0.05392897129058838,-0.019441060721874237,-0.08282424509525299
1771073618205857500,6.805857421875,-0.051798444241285324,-0.017310533672571182,-0.08069372177124023
1771073618215797200,6.81579736328125,-0.047537390142679214,-0.023702116683125496,-0.0732368752360344
1771073618225737000,6.825737060546875,-0.04008054360747337,-0.036485280841588974,-0.06578002870082855
1771073618235676700,6.8356767578125,-0.028362644836306572,-0.052464235574007034,-0.05512739345431328
1771073618245616400,6.845616455078125,-0.013448953628540039,-0.05139897018671036,-0.03808317333459854
1771073618255556000,6.85555615234375,-0.003861580742523074,-0.03755054250359535,-0.019973693415522575
1771073618265495800,6.865495849609375,-0.0017310534603893757,-0.019441060721874237,-0.0050600022077560425
1771073618275435500,6.875435546875,-0.0006657897611148655,-0.007723161485046148,0.001331579522229731
1771073618285375200,6.885375244140625,0.0003994738799519837,-0.0002663159102667123,0.0034621069207787514
1771073618295315200,6.895315185546875,0.001464737462811172,0.0050600022077560425,0.0034621069207787514
1771073618305255000,6.9052548828125,0.0025300011038780212,-0.007723161485046148,0.0034621069207787514
1771073618315194600,6.915194580078125,0.0025300011038780212,-0.02583264373242855,0.007723161485046148
1771073618325134300,6.92513427734375,0.004660528618842363,-0.032224226742982864,0.023702116683125496
1771073618335074000,6.935073974609375,0.00892158318310976,-0.023702116683125496,0.04500738903880119
1771073618345013800,6.945013671875,0.012117373757064342,-0.004527370445430279,0.06524740159511566
1771073618354953500,6.954953369140625,0.0153131652623415,0.014647374860942364,0.07483477145433426
1771073618364893200,6.96489306640625,0.016378428786993027,0.02210422046482563,0.07803056389093399
1771073618374833000,6.9748330078125,0.017443692311644554,0.023169483989477158,0.07803056389093399
1771073618384772600,6.984772705078125,0.01850895583629608,0.011451584286987782,0.07696529477834702
1771073618394712600,6.994712646484375,0.020639482885599136,-0.00985368900001049,0.07590003311634064
1771073618404652300,7.00465234375,0.02383527345955372,-0.020506324246525764,0.07483477145433426
1771073618414592000,7.014592041015625,0.025965800508856773,-0.00985368900001049,0.07163897901773453
1771073618424531700,7.02453173828125,0.021704746410250664,0.012516847811639309,0.06737792491912842
1771073618434471400,7.034471435546875,0.005725792143493891,0.03275685757398605,0.05779055133461952
1771073618444411100,7.0444111328125,-0.02516685426235199,0.03808317333459854,0.04394212365150452
1771073618454350800,7.054350830078125,-0.05392897129058838,0.03382211923599243,0.029028434306383133
1771073618464290600,7.06429052734375,-0.06884266436100006,0.025300011038780212,0.019441060721874237
1771073618474230300,7.074230224609375,-0.06458161026239395,0.009321057237684727,0.017310533672571182
1771073618484170200,7.084170166015625,-0.051798444241285324,-0.00985368900001049,0.015180006623268127
1771073618494110000,7.09410986328125,-0.04008054360747337,-0.024767380207777023,0.011984216049313545
1771073618504049700,7.104049560546875,-0.03688475489616394,-0.03861580789089203,0.001331579522229731
1771073618513989400,7.1139892578125,-0.04008054360747337,-0.0492684431374073,-0.013582111336290836
1771073618523929000,7.12392919921875,-0.043276336044073105,-0.04713791608810425,-0.023169483989477158
1771073618533868800,7.133868896484375,-0.043276336044073105,-0.048203181475400925,-0.02636527456343174
1771073618543808500,7.14380859375,-0.04114580899477005,-0.06950845569372177,-0.028495801612734795
1771073618553748200,7.153748291015625,-0.039015281945466995,-0.08548741042613983,-0.025300011038780212
1771073618563688000,7.16368798828125,-0.0294279083609581,-0.07483477145433426,-0.013582111336290836
1771073618573628000,7.1736279296875,-0.010253162123262882,-0.040746334940195084,0.0002663159102667123
1771073618583567600,7.183567626953125,0.00892158318310976,-0.0023968431632965803,0.01837579719722271
1771073618593507300,7.19350732421875,0.02383527345955372,0.027430538088083267,0.024767380207777023
1771073618603447000,7.203447021484375,0.029161592945456505,0.03808317333459854,0.02157158963382244
1771073618613386800,7.21338671875,0.030226856470108032,0.04234423115849495,0.010918952524662018
1771073618623326500,7.223326416015625,0.024900536984205246,0.04980107396841049,0.001331579522229731
1771073618633266200,7.23326611328125,0.01957421936094761,0.060453712940216064,-0.00612526573240757
1771073618643206000,7.243205810546875,0.017443692311644554,0.07430213689804077,-0.012516847811639309
1771073618653145600,7.2531455078125,0.0153131652623415,0.09347688406705856,-0.018908429890871048
1771073618663085600,7.26308544921875,0.00892158318310976,0.10199899226427078,-0.027430538088083267
1771073618673025300,7.273025390625,0.0025300011038780212,0.06471476703882217,-0.04767054691910744
1771073618682965000,7.282965087890625,-0.010253162123262882,-0.031158961355686188,-0.08282424509525299
1771073618692904700,7.29290478515625,-0.02197106182575226,-0.1430116444826126,-0.11797794699668884
1771073618702844400,7.302844482421875,-0.02090579830110073,-0.18668745458126068,-0.1435442715883255
1771073618712784100,7.3127841796875,-0.014514217153191566,-0.13235901296138763,-0.15100112557411194
1771073618722723800,7.322723876953125,-0.010253162123262882,-0.011984216049313545,-0.148870587348938
1771073618732663600,7.33266357421875,-0.008122635073959827,0.10626004636287689,-0.14460954070091248
1771073618742603300,7.342603271484375,-0.003861580742523074,0.16484954953193665,-0.14034847915172577
1771073618752543000,7.35254296875,0.004660528618842363,0.1478053331375122,-0.14247901737689972
1771073618762483000,7.36248291015625,0.021704746410250664,0.0870852991938591,-0.1435442715883255
1771073618772422700,7.372422607421875,0.03555317223072052,0.028495801612734795,-0.14034847915172577
1771073618782362400,7.3823623046875,0.04407528415322304,0.0007989477599039674,-0.1296958476305008
1771073618792302000,7.392302001953125,0.04620581120252609,0.011451584286987782,-0.10519478470087051
1771073618802241800,7.40224169921875,0.04194475710391998,0.06897582113742828,-0.07110634446144104
1771073618812181500,7.412181396484375,0.033422645181417465,0.16591481864452362,-0.04234423115849495
1771073618822121200,7.422121337890625,0.033422645181417465,0.2522011697292328,-0.024234747514128685
1771073618832061000,7.43206103515625,0.021704746410250664,0.31079065799713135,-0.011451584286987782
1771073618851940600,7.451940673828125,0.001464737462811172,0.2553969621658325,-0.00612526573240757
1771073618861880300,7.46188037109375,0.0025300011038780212,0.17337165772914886,-0.0050600022077560425
1771073618871820000,7.471820068359375,0.006791055668145418,0.08815056830644608,-0.009321057237684727
1771073618891699500,7.491699462890625,-0.0006657897611148655,-0.0354200154542923,-0.02636527456343174
1771073618901639200,7.50163916015625,0.0025300011038780212,-0.048203181475400925,-0.03275685757398605
1771073618911579000,7.511578857421875,0.016378428786993027,-0.02583264373242855,-0.035952646285295486
1771073618921518600,7.5215185546875,0.03981423005461693,0.0050600022077560425,-0.040213704109191895
1771073618931458300,7.531458251953125,0.06857634335756302,0.029561065137386322,-0.04234423115849495
1771073618941398300,7.541398193359375,0.09201214462518692,0.040213704109191895,-0.05086633935570717
1771073618951338000,7.551337890625,0.10373004525899887,0.03488738462328911,-0.06151897460222244
1771073618961277700,7.561277587890625,0.10586057603359222,0.028495801612734795,-0.06684529036283493
1771073618971217400,7.571217529296875,0.10159952193498611,0.03275685757398605,-0.06151897460222244
1771073618981157000,7.5811572265625,0.09840372949838638,0.04767054691910744,-0.044474758207798004
1771073618991096800,7.591096923828125,0.10159952193498611,0.07430213689804077,-0.016777902841567993
1771073619001036500,7.60103662109375,0.11118689179420471,0.10412952303886414,0.008788425475358963
1771073619010976300,7.610976318359375,0.12397005409002304,0.110521100461483,0.02157158963382244
1771073619020916000,7.620916015625,0.13355742394924164,0.08388951420783997,0.02263685315847397
1771073619030855700,7.630855712890625,0.1356879621744156,0.03488738462328911,0.008788425475358963
1771073619040795600,7.640795654296875,0.12823110818862915,-0.01837579719722271,-0.008255792781710625
1771073619050735400,7.6507353515625,0.11544794589281082,-0.0492684431374073,-0.018908429890871048
1771073619060675000,7.660675048828125,0.09946899116039276,-0.056725289672613144,-0.021038956940174103
1771073619070614800,7.67061474609375,0.08029424399137497,-0.04181159660220146,-0.019973693415522575
1771073619080554500,7.680554443359375,0.06431528925895691,-0.00985368900001049,-0.021038956940174103
1771073619090494200,7.690494140625,0.05472791939973831,0.03488738462328911,-0.014647374860942364
1771073619100434000,7.700433837890625,0.053662657737731934,0.08495477586984634,-0.003994738683104515
1771073619110373600,7.71037353515625,0.061119500547647476,0.1339569091796875,0.015180006623268127
1771073619120313300,7.720313232421875,0.06964161247015,0.1627190262079239,0.03435475379228592
1771073619130253300,7.73025341796875,0.07496792823076248,0.14993585646152496,0.04181159660220146
1771073619140193000,7.740193115234375,0.0739026665687561,0.10839057713747025,0.036485280841588974
1771073619150132700,7.7501328125,0.06857634335756302,0.06684529036283493,0.029028434306383133
1771073619160072400,7.760072509765625,0.05685844644904137,0.04234423115849495,0.019441060721874237
1771073619170012200,7.77001220703125,0.03981423005461693,0.03701791167259216,0.015180006623268127
1771073619179951900,7.779951904296875,0.025965800508856773,0.03914843872189522,0.008788425475358963
1771073619189891600,7.7898916015625,0.016378428786993027,0.04127896577119827,-0.0018642114009708166
1771073619199831300,7.799831298828125,0.016378428786993027,0.04340949282050133,-0.011451584286987782
1771073619209771000,7.80977099609375,0.021704746410250664,0.035952646285295486,-0.021038956940174103
1771073619219711000,7.8197109375,0.02383527345955372,0.018908429890871048,-0.029561065137386322
1771073619229650700,7.829650634765625,0.020639482885599136,0.0018642114009708166,-0.03169159218668938
1771073619239590400,7.83959033203125,0.0153131652623415,-0.006657897960394621,-0.028495801612734795
1771073619249530000,7.849530029296875,0.011052110232412815,-0.008788425475358963,-0.02210422046482563
1771073619259469800,7.8594697265625,0.007856319658458233,-0.008788425475358963,-0.014647374860942364
1771073619269409500,7.869409423828125,0.004660528618842363,0.0018642114009708166,-0.010386320762336254
1771073619279349200,7.879349365234375,0.0025300011038780212,0.007190529722720385,-0.00612526573240757
1771073619289289000,7.8892890625,0.006791055668145418,0.008255792781710625,-0.00612526573240757
1771073619299228700,7.899228759765625,0.01957421936094761,0.009321057237684727,-0.007190529722720385
1771073619309168600,7.909168701171875,0.033422645181417465,0.002929474925622344,-0.009321057237684727
1771073619319108000,7.919108154296875,0.04727107286453247,-0.005592633970081806,-0.011451584286987782
1771073619329047800,7.9290478515625,0.05259739235043526,-0.015180006623268127,-0.009321057237684727
1771073619338987500,7.938987548828125,0.049401599913835526,-0.020506324246525764,-0.002929474925622344
1771073619348927200,7.94892724609375,0.04301001876592636,-0.016245270147919655,0.001331579522229731
1771073619358867000,7.958866943359375,0.03129211813211441,-0.02263685315847397,-0.0018642114009708166
1771073619368806700,7.968806640625,0.021704746410250664,-0.027963170781731606,-0.010386320762336254
1771073619378746400,7.978746337890625,0.017443692311644554,-0.013049479573965073,-0.016777902841567993
1771073619388686000,7.98868603515625,0.014247900806367397,0.011451584286987782,-0.02210422046482563
1771073619398625800,7.998625732421875,0.009986846707761288,0.025300011038780212,-0.02636527456343174
1771073619408565500,8.0085654296875,0.00892158318310976,0.024234747514128685,-0.029561065137386322
1771073619418505000,8.0185048828125,0.005725792143493891,0.010386320762336254,-0.03488738462328911
1771073619428444700,8.028444580078125,0.005725792143493891,-0.008788425475358963,-0.04127896577119827
1771073619438384400,8.03838427734375,0.006791055668145418,-0.02263685315847397,-0.04127896577119827
1771073619448324000,8.048323974609374,0.004660528618842363,-0.020506324246525764,-0.03382211923599243
1771073619458263800,8.058263916015624,-0.004926844500005245,-0.00985368900001049,-0.027430538088083267
1771073619468203500,8.06820361328125,-0.019840534776449203,0.002929474925622344,-0.018908429890871048
1771073619478143200,8.078143310546874,-0.03368896245956421,0.014647374860942364,-0.01784316636621952
1771073619488083000,8.0880830078125,-0.04008054360747337,0.021038956940174103,-0.02210422046482563
1771073619498022700,8.098022705078124,-0.030493171885609627,0.03382211923599243,-0.021038956940174103
1771073619507962400,8.10796240234375,-0.015579480677843094,0.04660528525710106,-0.015712639316916466
1771073619517901800,8.11790185546875,-0.005992108024656773,0.04340949282050133,-0.010386320762336254
1771073619527841500,8.127841552734376,-0.004926844500005245,0.030626330524683,-0.011451584286987782
1771073619537781200,8.13778125,-0.008122635073959827,0.01784316636621952,-0.012516847811639309
1771073619547721000,8.147720947265626,-0.01664474420249462,0.0050600022077560425,-0.018908429890871048
1771073619557660700,8.15766064453125,-0.026232117787003517,-0.006657897960394621,-0.018908429890871048
1771073619567600400,8.167600341796875,-0.034754227846860886,-0.00985368900001049,-0.016777902841567993
1771073619577540000,8.1775400390625,-0.03795001655817032,-0.013049479573965073,-0.013582111336290836
1771073619587479800,8.187479736328125,-0.03688475489616394,-0.017310533672571182,-0.008255792781710625
1771073619597419500,8.19741943359375,-0.0294279083609581,-0.0141147430986166,-0.003994738683104515
1771073619607359200,8.207359130859375,-0.01664474420249462,-0.006657897960394621,0.0023968431632965803
1771073619617299200,8.21729931640625,-0.004926844500005245,0.013582111336290836,0.011984216049313545
1771073619627239000,8.227239013671875,0.0003994738799519837,0.030626330524683,0.019441060721874237
1771073619637178600,8.2371787109375,0.0003994738799519837,0.029561065137386322,0.01837579719722271
1771073619647118300,8.247118408203125,0.005725792143493891,0.024234747514128685,0.010918952524662018
1771073619657058000,8.25705810546875,0.009986846707761288,0.012516847811639309,0.0034621069207787514
1771073619666997800,8.266997802734375,0.01318263728171587,-0.0002663159102667123,-0.003994738683104515
1771073619676937500,8.2769375,0.01318263728171587,-0.0034621069207787514,-0.003994738683104515
1771073619686877200,8.286877197265625,0.007856319658458233,0.0050600022077560425,0.0023968431632965803
1771073619696817000,8.29681689453125,-0.003861580742523074,0.012516847811639309,0.011984216049313545
1771073619706756900,8.3067568359375,-0.02197106182575226,0.008255792781710625,0.0141147430986166
1771073619716696600,8.316696533203125,-0.04114580899477005,-0.006657897960394621,0.007723161485046148
1771073619726636300,8.32663623046875,-0.052863709628582,-0.027963170781731606,-0.0018642114009708166
1771073619736576000,8.336575927734375,-0.05392897129058838,-0.04394212365150452,-0.010386320762336254
1771073619746515700,8.346515625,-0.04860265180468559,-0.040746334940195084,-0.014647374860942364
1771073619756455400,8.356455322265624,-0.039015281945466995,-0.02157158963382244,-0.015712639316916466
1771073619766395100,8.36639501953125,-0.031558435410261154,0.002929474925622344,-0.014647374860942364
1771073619776334800,8.3763349609375,-0.02516685426235199,0.016777902841567993,-0.012516847811639309
1771073619786274600,8.386274658203124,-0.018775271251797676,0.021038956940174103,-0.010386320762336254
1771073619796214300,8.39621435546875,-0.014514217153191566,0.02210422046482563,-0.003994738683104515
1771073619806154200,8.406154296875,-0.015579480677843094,0.019973693415522575,0.007723161485046148
1771073619816094000,8.416093994140626,-0.02090579830110073,0.010386320762336254,0.01837579719722271
1771073619826033700,8.42603369140625,-0.03262370079755783,-0.008788425475358963,0.02157158963382244
1771073619835973400,8.435973388671876,-0.043276336044073105,-0.03328948840498924,0.01837579719722271
1771073619845913000,8.4459130859375,-0.050733182579278946,-0.048203181475400925,0.007723161485046148
1771073619855852800,8.455852783203126,-0.05392897129058838,-0.04394212365150452,-0.003994738683104515
1771073619865792500,8.46579248046875,-0.052863709628582,-0.029028434306383133,-0.014647374860942364
1771073619875732200,8.475732177734375,-0.050733182579278946,-0.0141147430986166,-0.021038956940174103
1771073619885672000,8.485671875,-0.04860265180468559,-0.0023968431632965803,-0.02636527456343174
1771073619895612000,8.49561181640625,-0.04647212475538254,0.0007989477599039674,-0.029561065137386322
1771073619905551600,8.505551513671875,-0.04540686309337616,-0.005592633970081806,-0.030626330524683
1771073619915491300,8.5154912109375,-0.047537390142679214,-0.008788425475358963,-0.02210422046482563
1771073619925431000,8.52543115234375,-0.05392897129058838,-0.008788425475358963,-0.011451584286987782
1771073619935370800,8.535370849609375,-0.06138581782579422,-0.00985368900001049,0.0002663159102667123
1771073619945310500,8.545310546875,-0.06990792602300644,-0.0141147430986166,0.006657897960394621
1771073619955250200,8.555250244140625,-0.07416898012161255,-0.02157158963382244,0.005592633970081806
1771073619965190000,8.56518994140625,-0.06777740269899368,-0.02157158963382244,0.0034621069207787514
1771073619975129600,8.575129638671875,-0.056059498339891434,-0.00985368900001049,0.0034621069207787514
1771073619985069600,8.585069580078125,-0.050733182579278946,0.0018642114009708166,-0.0007989477599039674
1771073619995009300,8.59500927734375,-0.054994236677885056,0.011451584286987782,-0.00612526573240757
1771073620004949000,8.604948974609375,-0.0624510794878006,0.014647374860942364,-0.012516847811639309
1771073620014888700,8.614888671875,-0.06138581782579422,0.008255792781710625,-0.011451584286987782
1771073620024828400,8.624828369140625,-0.04860265180468559,0.0050600022077560425,0.0002663159102667123
1771073620034768100,8.63476806640625,-0.034754227846860886,0.010386320762336254,0.017310533672571182
1771073620044707800,8.644707763671875,-0.0294279083609581,0.012516847811639309,0.029028434306383133
1771073620054647600,8.6546474609375,-0.039015281945466995,0.008255792781710625,0.029028434306383133
1771073620064587300,8.664587158203124,-0.04966791719198227,-0.0002663159102667123,0.017310533672571182
1771073620074527200,8.67452734375,-0.056059498339891434,-0.0141147430986166,-0.002929474925622344
1771073620084467000,8.684467041015624,-0.05819002538919449,-0.027963170781731606,-0.023169483989477158
1771073620094406700,8.69440673828125,-0.059255290776491165,-0.03861580789089203,-0.03701791167259216
1771073620104346400,8.704346435546874,-0.06138581782579422,-0.036485280841588974,-0.03914843872189522
1771073620114286000,8.7142861328125,-0.06138581782579422,-0.02263685315847397,-0.03169159218668938
1771073620124225800,8.724225830078124,-0.052863709628582,-0.0023968431632965803,-0.018908429890871048
1771073620134165500,8.73416552734375,-0.04114580899477005,0.018908429890871048,-0.008255792781710625
1771073620144105200,8.744105224609376,-0.027297381311655045,0.008255792781710625,-0.008255792781710625
1771073620154045000,8.754044921875,-0.0006657897611148655,-0.006657897960394621,-0.007190529722720385
1771073620163984600,8.763984619140626,0.020639482885599136,-0.008788425475358963,0.0002663159102667123
1771073620173924600,8.773924560546876,0.0366184376180172,-0.0002663159102667123,0.016245270147919655
1771073620183864300,8.7838642578125,0.04620581120252609,0.013582111336290836,0.03861580789089203
1771073620193804000,8.793803955078126,0.05472791939973831,0.021038956940174103,0.06205160543322563
1771073620203743700,8.80374365234375,0.06431528925895691,0.018908429890871048,0.08335687965154648
1771073620213683500,8.813683349609375,0.06644582003355026,-0.001331579522229731,0.08761793375015259
1771073620223623200,8.823623046875,0.0600542388856411,-0.03435475379228592,0.0727042406797409
1771073620233563000,8.83356298828125,0.049401599913835526,-0.05992107838392258,0.04607265070080757
1771073620243502600,8.843502685546875,0.04194475710391998,-0.06631266325712204,0.020506324246525764
1771073620253442300,8.8534423828125,0.03768370300531387,-0.056725289672613144,0.0023968431632965803
1771073620263382300,8.86338232421875,0.03235738351941109,-0.04394212365150452,-0.009321057237684727
1771073620273322000,8.873322021484375,0.029161592945456505,-0.031158961355686188,-0.012516847811639309
1771073620283261700,8.88326171875,0.025965800508856773,-0.01837579719722271,-0.009321057237684727
1771073620293201400,8.893201416015625,0.02277000993490219,-0.013049479573965073,-0.002929474925622344
1771073620303141000,8.90314111328125,0.01957421936094761,-0.017310533672571182,0.007723161485046148
1771073620313080800,8.913080810546875,0.017443692311644554,-0.026897907257080078,0.016245270147919655
1771073620323020500,8.9230205078125,0.0153131652623415,-0.04287686198949814,0.017310533672571182
1771073620332960300,8.932960205078125,0.014247900806367397,-0.06205160543322563,0.015180006623268127
1771073620342900000,8.94289990234375,0.014247900806367397,-0.06950845569372177,0.00985368900001049
1771073620352840000,8.95283984375,0.01318263728171587,-0.06311687082052231,0.006657897960394621
1771073620362779600,8.962779541015625,0.001464737462811172,-0.05566002428531647,0.0023968431632965803
1771073620372719400,8.97271923828125,-0.015579480677843094,-0.05139897018671036,-0.003994738683104515
1771073620382659000,8.9826591796875,-0.0294279083609581,-0.04713791608810425,-0.013582111336290836
1771073620392598800,8.992598876953124,-0.03368896245956421,-0.05139897018671036,-0.02210422046482563
1771073620402538500,9.00253857421875,-0.02516685426235199,-0.05779055133461952,-0.028495801612734795
1771073620412478200,9.012478271484374,-0.013448953628540039,-0.0588558167219162,-0.025300011038780212
1771073620422418000,9.02241796875,-0.005992108024656773,-0.056725289672613144,-0.014647374860942364
1771073620432357600,9.032357666015624,-0.003861580742523074,-0.048203181475400925,0.0023968431632965803
1771073620442297300,9.04229736328125,-0.003861580742523074,-0.03755054250359535,0.019441060721874237
1771073620452237300,9.0522373046875,-0.003861580742523074,-0.031158961355686188,0.031158961355686188
1771073620462177000,9.062177001953126,-0.002796316985040903,-0.027963170781731606,0.03861580789089203
1771073620472116700,9.07211669921875,-0.002796316985040903,-0.01837579719722271,0.04287686198949814
1771073620482056400,9.082056396484376,-0.0017310534603893757,0.002929474925622344,0.04607265070080757
1771073620491997200,9.0919970703125,-0.002796316985040903,0.024234747514128685,0.04607265070080757
1771073620501937000,9.10193701171875,-0.010253162123262882,0.025300011038780212,0.040746334940195084
1771073620511876600,9.111876708984376,-0.02197106182575226,0.007190529722720385,0.023702116683125496
1771073620521816000,9.121816162109376,-0.030493171885609627,-0.017310533672571182,0.005592633970081806
1771073620531755800,9.131755859375,-0.031558435410261154,-0.0354200154542923,-0.002929474925622344
1771073620541695500,9.141695556640625,-0.024101590737700462,-0.032224226742982864,-0.002929474925622344
1771073620551635200,9.15163525390625,-0.013448953628540039,-0.007723161485046148,0.007723161485046148
1771073620561574700,9.16157470703125,-0.004926844500005245,0.014647374860942364,0.020506324246525764
1771073620571514400,9.171514404296875,-0.004926844500005245,0.012516847811639309,0.02263685315847397
1771073620581454000,9.1814541015625,-0.011318426579236984,-0.0141147430986166,0.007723161485046148
1771073620591393500,9.1913935546875,-0.018775271251797676,-0.05139897018671036,-0.013582111336290836
1771073620601333200,9.201333251953125,-0.026232117787003517,-0.07376950979232788,-0.03275685757398605
1771073620611273000,9.21127294921875,-0.03368896245956421,-0.06950845569372177,-0.04340949282050133
1771073620621212400,9.22121240234375,-0.03795001655817032,-0.03968106955289841,-0.03914843872189522
1771073620631152000,9.231152099609375,-0.034754227846860886,0.0007989477599039674,-0.024234747514128685
1771073620641091800,9.241091796875,-0.02197106182575226,0.03914843872189522,-0.0050600022077560425
1771073620651031800,9.25103173828125,-0.002796316985040903,0.056192658841609955,0.011984216049313545
1771073620660971500,9.260971435546875,0.0153131652623415,0.044474758207798004,0.02263685315847397
1771073620670911200,9.2709111328125,0.028096329420804977,0.009321057237684727,0.023702116683125496
1771073620680851200,9.280851318359375,0.03129211813211441,-0.027963170781731606,0.017310533672571182
1771073620690791000,9.290791015625,0.0270310640335083,-0.056725289672613144,0.005592633970081806
1771073620700730600,9.300730712890624,0.01318263728171587,-0.06524740159511566,-0.0050600022077560425
1771073620710670600,9.310670654296874,0.001464737462811172,-0.04500738903880119,-0.011451584286987782
1771073620720610300,9.3206103515625,-0.008122635073959827,-0.0141147430986166,-0.013582111336290836
1771073620730550000,9.330550048828124,-0.01664474420249462,0.007190529722720385,-0.018908429890871048
1771073620740490000,9.340489990234374,-0.02197106182575226,0.012516847811639309,-0.025300011038780212
1771073620750429700,9.3504296875,-0.018775271251797676,0.00612526573240757,-0.03169159218668938
1771073620760369400,9.360369384765624,-0.012383690103888512,-0.00985368900001049,-0.03382211923599243
1771073620770309000,9.37030908203125,-0.010253162123262882,-0.026897907257080078,-0.03169159218668938
1771073620780249000,9.3802490234375,-0.012383690103888512,-0.027963170781731606,-0.021038956940174103
1771073620790188800,9.390188720703126,-0.015579480677843094,-0.011984216049313545,-0.007190529722720385
1771073620800128500,9.40012841796875,-0.01771000772714615,0.011451584286987782,0.007723161485046148
1771073620810068500,9.410068359375,-0.015579480677843094,0.028495801612734795,0.017310533672571182
1771073620820008200,9.42000830078125,-0.015579480677843094,0.03701791167259216,0.017310533672571182
1771073620829948000,9.429947998046876,-0.02090579830110073,0.03488738462328911,0.016245270147919655
1771073620839888000,9.439887939453126,-0.026232117787003517,0.023169483989477158,0.008788425475358963
1771073620849827600,9.44982763671875,-0.031558435410261154,0.011451584286987782,0.001331579522229731
1771073620859767300,9.459767333984376,-0.03262370079755783,0.0007989477599039674,-0.0007989477599039674
1771073620869707300,9.469707275390626,-0.028362644836306572,-0.0034621069207787514,-0.0007989477599039674
1771073620879647000,9.47964697265625,-0.024101590737700462,-0.0023968431632965803,0.001331579522229731
1771073620889586700,9.489586669921875,-0.02197106182575226,-0.0002663159102667123,0.005592633970081806
1771073620899526400,9.4995263671875,-0.02090579830110073,0.0050600022077560425,0.00985368900001049
1771073620909466000,9.509466064453125,-0.019840534776449203,0.012516847811639309,0.013049479573965073
1771073620919406000,9.519406005859375,-0.01664474420249462,0.018908429890871048,0.016245270147919655
1771073620929345800,9.529345703125,-0.009187898598611355,0.029561065137386322,0.024767380207777023
1771073620939285500,9.539285400390625,-0.002796316985040903,0.03275685757398605,0.0354200154542923
1771073620949225200,9.54922509765625,-0.0017310534603893757,0.027430538088083267,0.04500738903880119
1771073620959165000,9.5591650390625,-0.003861580742523074,0.018908429890871048,0.05033370852470398
1771073620969104600,9.569104736328125,-0.002796316985040903,0.007190529722720385,0.052464235574007034
1771073620979044400,9.57904443359375,0.0025300011038780212,0.0050600022077560425,0.052464235574007034
1771073620988984000,9.588984130859375,0.00892158318310976,0.014647374860942364,0.052464235574007034
1771073620998923800,9.598923828125,0.014247900806367397,0.019973693415522575,0.04713791608810425
1771073621008863700,9.60886376953125,0.012117373757064342,0.015712639316916466,0.036485280841588974
1771073621018803500,9.618803466796875,0.0025300011038780212,0.003994738683104515,0.02157158963382244
1771073621028743200,9.6287431640625,-0.008122635073959827,-0.004527370445430279,0.013049479573965073
1771073621038683000,9.638682861328125,-0.012383690103888512,0.0007989477599039674,0.0141147430986166
1771073621048622600,9.64862255859375,-0.010253162123262882,0.011451584286987782,0.024767380207777023
1771073621058562000,9.65856201171875,-0.005992108024656773,0.024234747514128685,0.03755054250359535
1771073621068501800,9.668501708984374,-0.0017310534603893757,0.02210422046482563,0.03968106955289841
1771073621078441500,9.67844140625,-0.002796316985040903,-0.0002663159102667123,0.027963170781731606
1771073621088381200,9.688381103515624,-0.009187898598611355,-0.029028434306383133,0.00985368900001049
1771073621108260600,9.708260498046876,-0.024101590737700462,-0.05139897018671036,-0.02636527456343174
1771073621118200300,9.718200439453126,-0.031558435410261154,-0.04287686198949814,-0.035952646285295486
1771073621128140000,9.72814013671875,-0.03262370079755783,-0.015180006623268127,-0.028495801612734795
1771073621138079700,9.738079833984376,-0.027297381311655045,0.021038956940174103,-0.011451584286987782
1771073621148019500,9.74801953125,-0.01664474420249462,0.04767054691910744,0.00985368900001049
1771073621157959000,9.757958984375,-0.002796316985040903,0.05512739345431328,0.02263685315847397
1771073621167898600,9.767898681640625,0.00892158318310976,0.04660528525710106,0.026897907257080078
1771073621177838300,9.77783837890625,0.012117373757064342,0.02210422046482563,0.023702116683125496
1771073621187778000,9.787778076171875,0.006791055668145418,-0.008788425475358963,0.016245270147919655
1771073621197717800,9.7977177734375,-0.005992108024656773,-0.029028434306383133,0.006657897960394621
1771073621207657500,9.807657470703125,-0.018775271251797676,-0.026897907257080078,0.0023968431632965803
1771073621217597200,9.81759716796875,-0.028362644836306572,-0.005592633970081806,-0.0018642114009708166
1771073621227537000,9.827536865234375,-0.0294279083609581,0.024234747514128685,-0.007190529722720385
1771073621237476600,9.8374765625,-0.02516685426235199,0.04980107396841049,-0.018908429890871048
1771073621247416300,9.847416259765625,-0.02090579830110073,0.04980107396841049,-0.03701791167259216
1771073621257356000,9.85735595703125,-0.018775271251797676,0.028495801612734795,-0.056192658841609955
1771073621267295500,9.86729541015625,-0.01664474420249462,0.0050600022077560425,-0.06578002870082855
1771073621277235200,9.877235107421875,-0.01771000772714615,-0.017310533672571182,-0.06578002870082855
1771073621287175000,9.8871748046875,-0.02090579830110073,-0.026897907257080078,-0.056192658841609955
1771073621297115000,9.897114990234375,-0.02197106182575226,-0.02583264373242855,-0.04234423115849495
1771073621307054600,9.9070546875,-0.02197106182575226,-0.019441060721874237,-0.028495801612734795
1771073621316994300,9.916994384765625,-0.023036325350403786,-0.007723161485046148,-0.016777902841567993
1771073621326934000,9.92693408203125,-0.02090579830110073,0.002929474925622344,-0.008255792781710625
1771073621336873700,9.936873779296874,-0.014514217153191566,0.009321057237684727,-0.0018642114009708166
1771073621346813400,9.9468134765625,-0.0017310534603893757,0.018908429890871048,0.004527370445430279
1771073621356753200,9.956753173828124,0.011052110232412815,0.030626330524683,0.005592633970081806
1771073621366692900,9.96669287109375,0.021704746410250664,0.040213704109191895,0.005592633970081806
1771073621376632600,9.976632568359374,0.029161592945456505,0.04127896577119827,0.005592633970081806
1771073621386572500,9.986572509765624,0.029161592945456505,0.03169159218668938,0.004527370445430279
1771073621396512300,9.99651220703125,0.01957421936094761,0.014647374860942364,0.0023968431632965803
1771073621406452000,10.006451904296876,0.0025300011038780212,0.0007989477599039674,0.001331579522229731
1771073621416391700,10.0163916015625,-0.01771000772714615,-0.007723161485046148,0.001331579522229731
1771073621426331400,10.026331298828126,-0.03795001655817032,-0.011984216049313545,0.001331579522229731
1771073621436271000,10.03627099609375,-0.04966791719198227,-0.007723161485046148,0.0002663159102667123
1771073621446210800,10.0462109375,-0.04860265180468559,0.0007989477599039674,-0.002929474925622344
1771073621456150500,10.056150634765626,-0.034754227846860886,0.00612526573240757,-0.00612526573240757
1771073621466090200,10.06609033203125,-0.01664474420249462,0.00612526573240757,-0.009321057237684727
1771073621476030000,10.076030029296875,-0.003861580742523074,-0.0034621069207787514,-0.013582111336290836
1771073621485970000,10.085969970703125,0.0003994738799519837,-0.015180006623268127,-0.016777902841567993
1771073621495909600,10.09590966796875,0.0035952648613601923,-0.01837579719722271,-0.015712639316916466
1771073621505849300,10.105849365234375,0.00892158318310976,-0.011984216049313545,-0.011451584286987782
1771073621515789000,10.1157890625,0.01318263728171587,-0.005592633970081806,-0.0050600022077560425
1771073621525728800,10.125728759765625,0.01318263728171587,-0.0034621069207787514,-0.0007989477599039674
1771073621535668500,10.13566845703125,0.009986846707761288,-0.004527370445430279,0.004527370445430279
1771073621545608200,10.145608154296875,0.007856319658458233,-0.001331579522229731,0.013049479573965073
1771073621555548000,10.1555478515625,0.0153131652623415,0.0018642114009708166,0.026897907257080078
1771073621565487600,10.165487548828125,0.02383527345955372,-0.001331579522229731,0.036485280841588974
1771073621575427600,10.175427490234375,0.025965800508856773,-0.006657897960394621,0.03755054250359535
1771073621585367300,10.1853671875,0.01957421936094761,-0.0141147430986166,0.027963170781731606
1771073621595307000,10.19530712890625,0.011052110232412815,-0.020506324246525764,0.010918952524662018
1771073621605246700,10.205246826171875,0.001464737462811172,-0.023702116683125496,-0.009321057237684727
1771073621615186400,10.2151865234375,-0.009187898598611355,-0.019441060721874237,-0.025300011038780212
1771073621625126100,10.225126220703125,-0.015579480677843094,-0.007723161485046148,-0.03169159218668938
1771073621635065900,10.23506591796875,-0.019840534776449203,-0.0002663159102667123,-0.02636527456343174
1771073621645005600,10.245005615234374,-0.018775271251797676,0.00612526573240757,-0.012516847811639309
1771073621654945300,10.2549453125,-0.013448953628540039,0.014647374860942364,0.005592633970081806
1771073621664885200,10.26488525390625,-0.005992108024656773,0.021038956940174103,0.02263685315847397
1771073621674825000,10.274824951171874,-0.0006657897611148655,0.023169483989477158,0.03009369783103466
1771073621684764700,10.2847646484375,0.0003994738799519837,0.01784316636621952,0.032224226742982864
1771073621694704400,10.294704345703124,0.001464737462811172,0.013582111336290836,0.03009369783103466
1771073621704644000,10.30464404296875,0.001464737462811172,0.009321057237684727,0.029028434306383133
1771073621714583800,10.314583740234376,0.0003994738799519837,0.0050600022077560425,0.03009369783103466
1771073621724523500,10.3245234375,-0.0006657897611148655,0.011451584286987782,0.031158961355686188
1771073621734463200,10.334463134765626,-0.0006657897611148655,0.016777902841567993,0.03009369783103466
1771073621744403000,10.34440283203125,-0.0017310534603893757,0.011451584286987782,0.020506324246525764
1771073621754343000,10.354343017578126,-0.004926844500005245,-0.0002663159102667123,0.0034621069207787514
1771073621764282600,10.36428271484375,-0.011318426579236984,-0.017310533672571182,-0.015712639316916466
1771073621774222300,10.374222412109376,-0.018775271251797676,-0.03009369783103466,-0.030626330524683
1771073621784162300,10.384162353515626,-0.0294279083609581,-0.027963170781731606,-0.03488738462328911
1771073621794102000,10.39410205078125,-0.039015281945466995,-0.013049479573965073,-0.03275685757398605
1771073621804041700,10.404041748046875,-0.04221107065677643,0.003994738683104515,-0.02636527456343174
1771073621813981700,10.413981689453125,-0.03368896245956421,0.023169483989477158,-0.019973693415522575
1771073621823921400,10.42392138671875,-0.01664474420249462,0.03169159218668938,-0.011451584286987782
1771073621833861000,10.433861083984375,-0.0017310534603893757,0.027430538088083267,-0.003994738683104515
1771073621843801000,10.443801025390625,0.006791055668145418,0.013582111336290836,0.001331579522229731
1771073621853740800,10.45374072265625,0.006791055668145418,-0.0002663159102667123,0.007723161485046148
1771073621863680500,10.463680419921875,0.004660528618842363,0.0018642114009708166,0.016245270147919655
1771073621873620200,10.4736201171875,0.005725792143493891,0.021038956940174103,0.026897907257080078
1771073621883560200,10.483560302734375,0.006791055668145418,0.03914843872189522,0.03328948840498924
1771073621893500000,10.4935,0.0025300011038780212,0.044474758207798004,0.027963170781731606
1771073621903439600,10.503439697265625,-0.0017310534603893757,0.03701791167259216,0.016245270147919655
1771073621913379600,10.513379638671875,-0.005992108024656773,0.016777902841567993,0.0023968431632965803
1771073621923319300,10.5233193359375,-0.011318426579236984,-0.011984216049313545,-0.012516847811639309
1771073621933259000,10.533259033203125,-0.013448953628540039,-0.03328948840498924,-0.02210422046482563
1771073621943199000,10.543198974609375,-0.013448953628540039,-0.027963170781731606,-0.02210422046482563
1771073621953138700,10.553138671875,-0.011318426579236984,-0.00985368900001049,-0.01784316636621952
1771073621963078400,10.563078369140625,-0.0070573715493083,0.015712639316916466,-0.008255792781710625
1771073621973018400,10.573018310546875,-0.0017310534603893757,0.03169159218668938,0.001331579522229731
1771073621982958000,10.5829580078125,0.0035952648613601923,0.035952646285295486,0.010918952524662018
1771073621992897800,10.592897705078125,0.005725792143493891,0.027430538088083267,0.019441060721874237
1771073622002837500,10.60283740234375,0.001464737462811172,0.011451584286987782,0.02263685315847397
1771073622012777200,10.612777099609374,-0.003861580742523074,-0.0023968431632965803,0.020506324246525764
1771073622022717000,10.622717041015624,-0.008122635073959827,-0.00985368900001049,0.017310533672571182
1771073622032657000,10.632656982421874,-0.008122635073959827,0.002929474925622344,0.017310533672571182
1771073622042596600,10.6425966796875,-0.0070573715493083,0.027430538088083267,0.017310533672571182
1771073622052536300,10.652536376953124,-0.010253162123262882,0.03808317333459854,0.013049479573965073
1771073622062476000,10.66247607421875,-0.023036325350403786,0.027430538088083267,0.001331579522229731
1771073622072415700,10.672415771484374,-0.03368896245956421,0.0050600022077560425,-0.010386320762336254
1771073622082355500,10.68235546875,-0.03368896245956421,-0.016245270147919655,-0.012516847811639309
1771073622092295200,10.692295166015626,-0.023036325350403786,-0.016245270147919655,-0.002929474925622344
1771073622102235000,10.70223486328125,-0.008122635073959827,0.00612526573240757,0.011984216049313545
1771073622112174600,10.712174560546876,0.006791055668145418,0.028495801612734795,0.023702116683125496
1771073622122114600,10.722114501953126,0.011052110232412815,0.028495801612734795,0.020506324246525764
1771073622132054300,10.73205419921875,0.004660528618842363,0.019973693415522575,0.006657897960394621
1771073622141994000,10.741993896484376,-0.010253162123262882,-0.0002663159102667123,-0.011451584286987782
1771073622151933700,10.75193359375,-0.031558435410261154,-0.026897907257080078,-0.024234747514128685
1771073622161873400,10.761873291015625,-0.050733182579278946,-0.03755054250359535,-0.028495801612734795
1771073622171813000,10.771813232421875,-0.06032055243849754,-0.031158961355686188,-0.024234747514128685
1771073622181752800,10.7817529296875,-0.05712476372718811,-0.02157158963382244,-0.016777902841567993
1771073622191692500,10.791692626953125,-0.04114580899477005,-0.010918952524662018,-0.007190529722720385
1771073622201632300,10.80163232421875,-0.015579480677843094,0.013582111336290836,0.005592633970081806
1771073622211572200,10.811572265625,0.006791055668145418,0.03808317333459854,0.01837579719722271
1771073622221512000,10.821511962890625,0.02383527345955372,0.0540621280670166,0.027963170781731606
1771073622231451600,10.83145166015625,0.03448791056871414,0.05938844755291939,0.03328948840498924
1771073622241391400,10.841391357421875,0.040879491716623306,0.04767054691910744,0.031158961355686188
1771073622251331000,10.8513310546875,0.04407528415322304,0.02636527456343174,0.027963170781731606
1771073622261270800,10.861270751953125,0.03874896466732025,0.00612526573240757,0.02583264373242855
1771073622271210500,10.87121044921875,0.02277000993490219,-0.015180006623268127,0.02157158963382244
1771073622281150200,10.881150146484375,0.0025300011038780212,-0.029028434306383133,0.011984216049313545
1771073622291090000,10.89108984375,-0.012383690103888512,-0.02263685315847397,-0.0018642114009708166
1771073622301030000,10.90102978515625,-0.01771000772714615,-0.007723161485046148,-0.015712639316916466
1771073622310969600,10.910969482421875,-0.010253162123262882,0.002929474925622344,-0.027430538088083267
1771073622320909300,10.920909423828125,-0.0006657897611148655,0.003994738683104515,-0.03488738462328911
1771073622330849000,10.93084912109375,0.007856319658458233,-0.004527370445430279,-0.03808317333459854
1771073622340788700,10.940788818359374,0.012117373757064342,-0.015180006623268127,-0.03275685757398605
1771073622350728400,10.950728515625,0.006791055668145418,-0.02157158963382244,-0.021038956940174103
1771073622360668200,10.960668212890624,0.0003994738799519837,-0.00985368900001049,-0.0018642114009708166
1771073622370607900,10.97060791015625,-0.002796316985040903,0.007190529722720385,0.01837579719722271
1771073622380547600,10.980547607421874,0.0003994738799519837,0.021038956940174103,0.03328948840498924
1771073622390487300,10.9904873046875,0.006791055668145418,0.028495801612734795,0.03968106955289841
1771073622400427300,11.00042724609375,0.01318263728171587,0.028495801612734795,0.0354200154542923
1771073622410367000,11.010366943359376,0.01850895583629608,0.02210422046482563,0.026897907257080078
1771073622420306700,11.020306640625,0.02277000993490219,0.016777902841567993,0.013049479573965073
1771073622430246400,11.030246337890626,0.025965800508856773,0.009321057237684727,-0.0007989477599039674
1771073622440186000,11.04018603515625,0.02277000993490219,0.0007989477599039674,-0.01784316636621952
1771073622450125800,11.050125732421876,0.0153131652623415,-0.005592633970081806,-0.030626330524683
1771073622460065500,11.0600654296875,0.00892158318310976,-0.00985368900001049,-0.035952646285295486
1771073622470005200,11.070005126953125,0.004660528618842363,-0.0141147430986166,-0.03169159218668938
1771073622489885000,11.089885009765625,-0.0006657897611148655,0.015712639316916466,0.0002663159102667123
1771073622499824600,11.09982470703125,0.0003994738799519837,0.018908429890871048,0.011984216049313545
1771073622509764400,11.109764404296875,0.0035952648613601923,0.002929474925622344,0.011984216049313545
1771073622519704000,11.1197041015625,0.0035952648613601923,-0.013049479573965073,0.006657897960394621
1771073622529643800,11.129643798828125,0.0035952648613601923,-0.024767380207777023,-0.0018642114009708166
1771073622539583500,11.13958349609375,0.004660528618842363,-0.02583264373242855,-0.012516847811639309
1771073622549523200,11.149523193359375,0.007856319658458233,-0.01837579719722271,-0.024234747514128685
1771073622559463000,11.159462890625,0.0153131652623415,0.002929474925622344,-0.035952646285295486
1771073622569402600,11.169402587890625,0.021704746410250664,0.023169483989477158,-0.04127896577119827
1771073622579342600,11.179342529296875,0.02383527345955372,0.028495801612734795,-0.04234423115849495
1771073622589282300,11.1892822265625,0.017443692311644554,0.021038956940174103,-0.03701791167259216
1771073622599222000,11.199221923828125,0.007856319658458233,0.007190529722720385,-0.02636527456343174
1771073622609161700,11.20916162109375,0.0025300011038780212,-0.007723161485046148,-0.01784316636621952
1771073622619101400,11.219101318359375,0.004660528618842363,-0.015180006623268127,-0.0050600022077560425
1771073622629041200,11.229041259765625,0.01318263728171587,-0.0002663159102667123,0.010918952524662018
1771073622638980900,11.23898095703125,0.025965800508856773,0.019973693415522575,0.02263685315847397
1771073622648920600,11.248920654296874,0.033422645181417465,0.025300011038780212,0.020506324246525764
1771073622658860300,11.2588603515625,0.0366184376180172,0.008255792781710625,0.004527370445430279
1771073622668800300,11.26880029296875,0.033422645181417465,-0.026897907257080078,-0.023169483989477158
1771073622688679700,11.2886796875,0.012117373757064342,-0.07803056389093399,-0.06684529036283493
1771073622698619400,11.298619384765624,0.0003994738799519837,-0.07163897901773453,-0.0636495053768158
1771073622708559000,11.30855908203125,-0.003861580742523074,-0.05033370852470398,-0.04660528525710106
1771073622718498800,11.318498779296876,0.001464737462811172,-0.01837579719722271,-0.021038956940174103
1771073622728438500,11.3284384765625,0.016378428786993027,0.016777902841567993,0.005592633970081806
1771073622738378200,11.338378173828126,0.03235738351941109,0.04340949282050133,0.024767380207777023
1771073622748318000,11.34831787109375,0.04301001876592636,0.048735812306404114,0.031158961355686188
1771073622758257700,11.358257568359376,0.053662657737731934,0.011451584286987782,0.032224226742982864
1771073622768197600,11.36819775390625,0.06325002759695053,-0.008788425475358963,0.03861580789089203
1771073622778137300,11.378137451171876,0.06644582003355026,-0.0141147430986166,0.04607265070080757
1771073622788077000,11.3880771484375,0.05685844644904137,-0.01837579719722271,0.052464235574007034
1771073622798016800,11.398016845703125,0.04194475710391998,-0.019441060721874237,0.05566002428531647
1771073622807956500,11.40795654296875,0.029161592945456505,-0.017310533672571182,0.052464235574007034
1771073622817896200,11.417896240234375,0.02383527345955372,-0.02157158963382244,0.04181159660220146
1771073622827836000,11.4278359375,0.021704746410250664,-0.03328948840498924,0.02157158963382244
1771073622837775600,11.437775634765625,0.020639482885599136,-0.048203181475400925,0.0002663159102667123
1771073622847715300,11.44771533203125,0.024900536984205246,-0.05352949723601341,-0.010386320762336254
1771073622857655300,11.4576552734375,0.025965800508856773,-0.04181159660220146,-0.007190529722720385
1771073622867595000,11.467594970703125,0.02277000993490219,-0.027963170781731606,0.004527370445430279
1771073622877534700,11.47753466796875,0.01318263728171587,-0.01837579719722271,0.016245270147919655
1771073622887474400,11.487474365234375,0.004660528618842363,-0.013049479573965073,0.024767380207777023
1771073622897414100,11.4974140625,0.0025300011038780212,-0.008788425475358963,0.026897907257080078
1771073622907353900,11.507353759765625,0.007856319658458233,-0.0034621069207787514,0.026897907257080078
1771073622917293600,11.51729345703125,0.0153131652623415,-0.004527370445430279,0.02263685315847397
1771073622927233300,11.5272333984375,0.021704746410250664,-0.005592633970081806,0.0141147430986166
1771073622937173000,11.537173095703125,0.025965800508856773,-0.013049479573965073,0.007723161485046148
1771073622947113000,11.547113037109375,0.025965800508856773,-0.03009369783103466,0.0002663159102667123
1771073622957052700,11.557052734375,0.017443692311644554,-0.048203181475400925,-0.007190529722720385
1771073622966992400,11.566992431640625,0.006791055668145418,-0.05352949723601341,-0.011451584286987782
1771073622976932000,11.57693212890625,-0.0017310534603893757,-0.04500738903880119,-0.010386320762336254
1771073622986871800,11.586871826171874,-0.004926844500005245,-0.03009369783103466,-0.00612526573240757
1771073622996811500,11.5968115234375,0.0003994738799519837,-0.017310533672571182,-0.002929474925622344
1771073623006751200,11.606751220703124,0.012117373757064342,-0.005592633970081806,-0.002929474925622344
1771073623016691000,11.61669091796875,0.02383527345955372,-0.0023968431632965803,-0.002929474925622344
1771073623026630700,11.626630615234374,0.033422645181417465,-0.005592633970081806,-0.0050600022077560425
1771073623036570400,11.6365703125,0.03555317223072052,-0.013049479573965073,-0.0050600022077560425
1771073623046510300,11.64651025390625,0.03235738351941109,-0.016245270147919655,0.0002663159102667123
1771073623056450000,11.656449951171876,0.02383527345955372,-0.016245270147919655,0.005592633970081806
1771073623066389800,11.6663896484375,0.01318263728171587,-0.016245270147919655,0.006657897960394621
1771073623076329500,11.67632958984375,0.007856319658458233,-0.013049479573965073,0.005592633970081806
1771073623086269200,11.686269287109376,0.01318263728171587,-0.005592633970081806,0.005592633970081806
1771073623096209000,11.696208984375,0.020639482885599136,0.0018642114009708166,0.005592633970081806
1771073623106148600,11.706148681640625,0.0270310640335083,0.003994738683104515,0.0034621069207787514
1771073623116088300,11.71608837890625,0.033422645181417465,-0.0023968431632965803,0.0023968431632965803
1771073623126028000,11.726028076171875,0.03448791056871414,-0.011984216049313545,0.004527370445430279
1771073623135968000,11.735968017578125,0.03235738351941109,-0.019441060721874237,0.005592633970081806
1771073623145907700,11.74590771484375,0.02277000993490219,-0.019441060721874237,0.005592633970081806
1771073623155847400,11.755847412109375,0.009986846707761288,-0.0141147430986166,0.0034621069207787514
1771073623165787100,11.765787109375,0.005725792143493891,-0.008788425475358963,0.004527370445430279
1771073623175726800,11.775726806640625,0.011052110232412815,0.008255792781710625,0.0141147430986166
1771073623185666600,11.78566650390625,0.021704746410250664,0.03275685757398605,0.024767380207777023
1771073623195606300,11.795606201171875,0.030226856470108032,0.03914843872189522,0.029028434306383133
1771073623205546000,11.8055458984375,0.03129211813211441,0.012516847811639309,0.017310533672571182
1771073623215485700,11.815485595703125,0.028096329420804977,-0.032224226742982864,-0.007190529722720385
1771073623225425700,11.82542578125,0.017443692311644554,-0.08122635632753372,-0.035952646285295486
1771073623235365400,11.835365478515625,-0.002796316985040903,-0.11211899667978287,-0.05832318589091301
1771073623245305000,11.84530517578125,-0.02516685426235199,-0.10785794258117676,-0.06258423626422882
1771073623255244800,11.855244873046875,-0.03795001655817032,-0.05992107838392258,-0.04554001986980438
1771073623265184500,11.8651845703125,-0.039015281945466995,0.002929474925622344,-0.013582111336290836
1771073623275124200,11.875124267578125,-0.028362644836306572,0.05299686640501022,0.02263685315847397
1771073623285064000,11.88506396484375,-0.010253162123262882,0.07217161357402802,0.05033370852470398
1771073623295003600,11.895003662109374,0.009986846707761288,0.056192658841609955,0.06631266325712204
1771073623304943400,11.904943359375,0.025965800508856773,0.013582111336290836,0.0684431865811348
1771073623314883300,11.91488330078125,0.030226856470108032,-0.03328948840498924,0.060986343771219254
1771073623324823000,11.924822998046874,0.02383527345955372,-0.052464235574007034,0.0492684431374073
1771073623334762800,11.9347626953125,0.011052110232412815,-0.04394212365150452,0.03755054250359535
1771073623344702500,11.944702392578124,0.0003994738799519837,-0.015180006623268127,0.027963170781731606
1771073623354642200,11.95464208984375,-0.005992108024656773,0.012516847811639309,0.01837579719722271
1771073623364582000,11.964581787109376,-0.012383690103888512,0.019973693415522575,0.007723161485046148
1771073623374521600,11.974521484375,-0.019840534776449203,0.0050600022077560425,-0.003994738683104515
1771073623384461300,11.98446142578125,-0.026232117787003517,-0.024767380207777023,-0.011451584286987782
1771073623394401000,11.994401123046876,-0.031558435410261154,-0.056725289672613144,-0.012516847811639309
1771073623404340700,12.0043408203125,-0.03688475489616394,-0.06418213248252869,-0.0050600022077560425
1771073623414280700,12.01428076171875,-0.03795001655817032,-0.04394212365150452,0.006657897960394621
1771073623424220400,12.024220458984376,-0.03262370079755783,-0.008788425475358963,0.01837579719722271
