time,seconds_elapsed,z,y,x
1771073685567787000,0.095787109375,0,0,0
1771073685577722600,0.10572265625,0.028524398803710938,-0.017124652862548828,0.1305428147315979
1771073685587658500,0.115658447265625,-0.027317047119140625,-0.01937389373779297,0.1736574023962021
1771073685597595000,0.125594970703125,-0.19279193878173828,-0.06363725662231445,0.11452361196279526
1771073685607531800,0.13553173828125,-0.29039859771728516,-0.09675431251525879,0.08255578577518463
1771073685617469400,0.145469482421875,-0.23857593536376953,-0.03937792778015137,0.17605185508728027
1771073685627408000,0.155407958984375,-0.2423696517944336,-0.008772134780883789,0.2640955448150635
1771073685637347000,0.16534716796875,-0.35616111755371094,-0.06194901466369629,0.15701940655708313
1771073685647286800,0.175286865234375,-0.3640937805175781,-0.0876319408416748,0.009333029389381409
1771073685657227500,0.1852275390625,-0.31031322479248047,-0.05176067352294922,-0.10151392221450806
1771073685667168800,0.195168701171875,-0.24852752685546875,-0.05015444755554199,-0.16945937275886536
1771073685677110500,0.205110595703125,-0.21284866333007812,-0.10417056083679199,-0.16892662644386292
1771073685687052800,0.215052734375,-0.23376941680908203,-0.14774703979492188,-0.15718254446983337
1771073685696995600,0.22499560546875,-0.160736083984375,-0.1457819938659668,-0.08206424862146378
1771073685706938400,0.2349384765625,-0.09716129302978516,-0.1082916259765625,0.03913336247205734
1771073685716881400,0.24488134765625,0.12706947326660156,-0.1281280517578125,0.162954643368721
1771073685726824000,0.254823974609375,0.4036903381347656,-0.17728233337402344,0.27268314361572266
1771073685736763600,0.264763671875,0.6305122375488281,-0.23395657539367676,0.3902795612812042
1771073685746703600,0.27470361328125,0.9072647094726562,-0.2482597827911377,0.528246283531189
1771073685756643300,0.284643310546875,1.1674127578735352,-0.23643851280212402,0.6423372030258179
1771073685766583000,0.2945830078125,1.2697935104370117,-0.24798130989074707,0.6616927981376648
1771073685776522800,0.304522705078125,1.2246370315551758,-0.22222280502319336,0.6748261451721191
1771073685786462700,0.314462646484375,1.1183700561523438,-0.20486998558044434,0.7578126192092896
1771073685796402400,0.32440234375,0.9160556793212891,-0.2566194534301758,0.8114017248153687
1771073685806342100,0.334342041015625,0.7302074432373047,-0.2869725227355957,0.8757118582725525
1771073685816282000,0.3442822265625,0.5540857315063477,-0.2870907783508301,0.9397063851356506
1771073685826221800,0.354221923828125,0.25466346740722656,-0.27402520179748535,0.9869752526283264
1771073685836161500,0.36416162109375,-0.1468372344970703,-0.18507122993469238,0.9459354281425476
1771073685846101500,0.3741015625,-0.6259517669677734,0.00476837158203125,0.8237873911857605
1771073685856041200,0.384041259765625,-1.0947141647338867,0.1448211669921875,0.541222095489502
1771073685865981000,0.39398095703125,-1.3540234565734863,0.12464237213134766,0.1652679741382599
1771073685875921000,0.4039208984375,-1.4389939308166504,0.10284280776977539,-0.0701272040605545
1771073685885860600,0.413860595703125,-1.2058415412902832,0.061100006103515625,-0.2704416513442993
1771073685895800300,0.42380029296875,-0.699432373046875,0.00069427490234375,-0.41844770312309265
1771073685905740000,0.433739990234375,-0.07882976531982422,-0.01010441780090332,-0.4583224952220917
1771073685915680000,0.443679931640625,0.41786670684814453,0.05044960975646973,-0.335228830575943
1771073685925619700,0.45361962890625,0.6118793487548828,0.09982609748840332,-0.08210398256778717
1771073685935559400,0.463559326171875,0.5260963439941406,0.09413957595825195,0.18751688301563263
1771073685945499400,0.47349951171875,0.35167407989501953,0.049307823181152344,0.4547009766101837
1771073685955439000,0.483439208984375,0.07107162475585938,0.00863790512084961,0.7100894451141357
1771073685965378800,0.49337890625,-0.13950157165527344,0.02028346061706543,0.9821553230285645
1771073685975318800,0.50331884765625,-0.0024261474609375,0.05521440505981445,1.1800034046173096
1771073685985258500,0.513258544921875,0.1677703857421875,0.10632896423339844,1.1792739629745483
1771073685995198200,0.5231982421875,0.3499431610107422,0.10391569137573242,1.0219781398773193
1771073686005138200,0.53313818359375,0.1700763702392578,0.03624844551086426,0.6709262132644653
1771073686015078000,0.543077880859375,0.04824066162109375,-0.03389620780944824,0.39865851402282715
1771073686025017600,0.553017578125,0.14000415802001953,-0.005266427993774414,0.3924824595451355
1771073686034957600,0.56295751953125,0.3258352279663086,0.07120919227600098,0.44618624448776245
1771073686044897300,0.572897216796875,0.5337142944335938,0.08772897720336914,0.36793947219848633
1771073686054837000,0.5828369140625,0.5479345321655273,0.064697265625,0.18088814616203308
1771073686064776700,0.592776611328125,0.5159235000610352,-0.005680084228515625,0.03609263896942139
1771073686074716700,0.602716552734375,0.5372657775878906,-0.05023598670959473,0.040727078914642334
1771073686084656400,0.612656494140625,0.7072048187255859,-0.0439448356628418,0.21310460567474365
1771073686094596000,0.62259619140625,0.7411518096923828,-0.02353811264038086,0.4136309027671814
1771073686104536000,0.6325361328125,0.45586490631103516,-0.04975080490112305,0.44647592306137085
1771073686114475800,0.642475830078125,0.07493305206298828,-0.1257469654083252,0.38760000467300415
1771073686124415500,0.65241552734375,-0.16800689697265625,-0.1513679027557373,0.3958016037940979
1771073686134355500,0.66235546875,-0.20307159423828125,-0.16799640655517578,0.4770827889442444
1771073686144295200,0.672295166015625,-0.03640556335449219,-0.15881633758544922,0.5922327637672424
1771073686154235000,0.68223486328125,0.13818645477294922,-0.09196901321411133,0.7344010472297668
1771073686164174800,0.6921748046875,0.2861671447753906,-0.10743999481201172,0.7313856482505798
1771073686174114600,0.702114501953125,0.4486818313598633,-0.12817049026489258,0.570647656917572
1771073686184054300,0.71205419921875,0.5363168716430664,-0.09861516952514648,0.4294399619102478
1771073686193994200,0.721994140625,0.5809907913208008,-0.043610572814941406,0.4192507863044739
1771073686203934000,0.731933837890625,0.5551910400390625,-0.011323690414428711,0.44516241550445557
1771073686213873700,0.741873779296875,0.46689319610595703,-0.02937459945678711,0.48409920930862427
1771073686223813400,0.7518134765625,0.4511528015136719,-0.04936528205871582,0.5453077554702759
1771073686233753300,0.76175341796875,0.459503173828125,-0.00004744529724121094,0.6041424870491028
1771073686243693000,0.771693115234375,0.4918355941772461,0.008276224136352539,0.6274006962776184
1771073686253632800,0.7816328125,0.46103763580322266,-0.02050924301147461,0.587334156036377
1771073686263572700,0.79157275390625,0.40594005584716797,-0.03642678260803223,0.5012040734291077
1771073686273512400,0.801512451171875,0.2488384246826172,-0.015238046646118164,0.3889889121055603
1771073686283452200,0.8114521484375,0.0023164749145507812,0.06631088256835938,0.23428460955619812
1771073686293392100,0.82139208984375,-0.16064453125,0.1458745002746582,0.14701935648918152
1771073686303331800,0.831331787109375,-0.1990966796875,0.1373147964477539,0.09860846400260925
1771073686313271600,0.841271484375,-0.18574142456054688,0.11763119697570801,0.009778618812561035
1771073686323211500,0.85121142578125,-0.15194225311279297,0.16241097450256348,-0.007716923952102661
1771073686333151200,0.861151123046875,-0.14977264404296875,0.21834468841552734,0.03262493014335632
1771073686343091000,0.871091064453125,-0.12203407287597656,0.1833515167236328,0.12819737195968628
1771073686353030700,0.88103076171875,-0.1518392562866211,0.1317157745361328,0.22109752893447876
1771073686362970600,0.890970703125,-0.1385354995727539,0.10304379463195801,0.32081109285354614
1771073686372910300,0.900910400390625,-0.11638545989990234,0.07117795944213867,0.35412001609802246
1771073686382850000,0.91085009765625,-0.09005546569824219,0.08008956909179688,0.3181775212287903
1771073686392790000,0.9207900390625,-0.0076923370361328125,0.11676669120788574,0.24999111890792847
1771073686402729700,0.930729736328125,0.0592498779296875,0.10969090461730957,0.1526244878768921
1771073686412669400,0.94066943359375,0.02385997772216797,0.12810659408569336,0.08283740282058716
1771073686422609400,0.950609375,-0.011023521423339844,0.14629364013671875,0.04823368787765503
1771073686432549000,0.960549072265625,-0.000762939453125,0.1317603588104248,0.04265725612640381
1771073686442488800,0.97048876953125,0.17161083221435547,0.10135364532470703,0.016973376274108887
1771073686452428800,0.9804287109375,0.28451061248779297,0.09047150611877441,-0.01689469814300537
1771073686462368500,0.990368408203125,0.2965669631958008,0.06352639198303223,-0.04052382707595825
1771073686472308200,1.00030810546875,0.2212820053100586,-0.012006998062133789,-0.09826737642288208
1771073686482248200,1.010248291015625,0.24137306213378906,-0.07379150390625,-0.2097761631011963
1771073686492188000,1.02018798828125,0.3011455535888672,-0.03501772880554199,-0.2262715995311737
1771073686502127600,1.030127685546875,0.331878662109375,0.03129696846008301,-0.19880229234695435
1771073686512067300,1.0400673828125,0.2967863082885742,0.033936500549316406,-0.13306066393852234
1771073686522007300,1.05000732421875,0.22063446044921875,-0.02878546714782715,-0.05781310796737671
1771073686531947000,1.059947021484375,0.1345357894897461,-0.05897402763366699,0.10396593809127808
1771073686541886700,1.06988671875,0.045365333557128906,-0.05644559860229492,0.26391178369522095
1771073686551826700,1.07982666015625,0.014269828796386719,-0.038240671157836914,0.36509227752685547
1771073686561766400,1.089766357421875,-0.09398841857910156,-0.06097006797790527,0.31936782598495483
1771073686571706000,1.0997060546875,-0.19112014770507812,-0.07162737846374512,0.1964511275291443
1771073686581646000,1.10964599609375,-0.18797683715820312,-0.06035113334655762,0.05777019262313843
1771073686591585800,1.119585693359375,-0.16855335235595703,-0.02302074432373047,-0.06132197380065918
1771073686601525800,1.12952587890625,-0.16588878631591797,0.020543336868286133,-0.1074419617652893
1771073686611465500,1.139465576171875,-0.20565509796142578,0.03993654251098633,-0.127083420753479
1771073686621405400,1.149405517578125,-0.23556041717529297,0.0172421932220459,-0.12463730573654175
1771073686631345200,1.15934521484375,-0.30777549743652344,0.02202010154724121,-0.05054676532745361
1771073686641285000,1.16928515625,-0.31793212890625,-0.0004818439483642578,0.006409645080566406
1771073686651224800,1.179224853515625,-0.2505455017089844,-0.03826737403869629,0.06343609094619751
1771073686661164800,1.189164794921875,-0.17267417907714844,-0.044516563415527344,0.0664319396018982
1771073686671104500,1.1991044921875,-0.1762409210205078,-0.041152000427246094,0.04676783084869385
1771073686681044500,1.20904443359375,-0.20104122161865234,-0.06814885139465332,0.015854179859161377
1771073686690984200,1.218984130859375,-0.16209888458251953,-0.061046600341796875,0.011740565299987793
1771073686700924200,1.228924072265625,-0.02987194061279297,-0.05600428581237793,-0.00013333559036254883
1771073686710864000,1.23886376953125,0.1473073959350586,-0.023612260818481445,-0.06332558393478394
1771073686720803800,1.248803955078125,0.28896045684814453,0.006433248519897461,-0.12060707807540894
1771073686730743600,1.25874365234375,0.3348226547241211,-0.013960599899291992,-0.21482816338539124
1771073686740683500,1.26868359375,0.22777366638183594,-0.020458459854125977,-0.21981239318847656
1771073686750623200,1.278623291015625,0.1749277114868164,-0.04990792274475098,-0.2344849705696106
1771073686760563200,1.288563232421875,0.043076515197753906,-0.01574110984802246,-0.19941765069961548
1771073686770503000,1.2985029296875,-0.16908931732177734,0.00440216064453125,-0.17077502608299255
1771073686780443000,1.30844287109375,-0.34293174743652344,-0.018278837203979492,-0.24162137508392334
1771073686790382600,1.318382568359375,-0.389862060546875,-0.0069942474365234375,-0.27859821915626526
1771073686800322600,1.328322509765625,-0.3286466598510742,0.014458179473876953,-0.18944218754768372
1771073686810262300,1.33826220703125,-0.13508319854736328,0.014519691467285156,-0.1057741641998291
1771073686820202200,1.3482021484375,-0.008787155151367188,0.020326614379882812,-0.004385590553283691
1771073686830142200,1.35814208984375,0.07541465759277344,-0.0027866363525390625,0.06503266096115112
1771073686840082000,1.36808203125,0.12104606628417969,-0.06740999221801758,0.05962258577346802
1771073686850022000,1.37802197265625,0.0652618408203125,-0.09526634216308594,0.052902162075042725
1771073686859961600,1.387961669921875,0.1142892837524414,-0.0860896110534668,0.0427989661693573
1771073686869901600,1.397901611328125,0.17211532592773438,-0.05677485466003418,-0.024033159017562866
1771073686879841300,1.40784130859375,0.1492176055908203,-0.007717132568359375,-0.10309606790542603
1771073686889781200,1.41778125,0.07770347595214844,0.0018148422241210938,-0.15903007984161377
1771073686899721000,1.427720947265625,-0.0040435791015625,-0.005838632583618164,-0.1677425503730774
1771073686909661000,1.437660888671875,-0.11267471313476562,-0.003426074981689453,-0.12779513001441956
1771073686919600600,1.4476005859375,-0.2364645004272461,0.00552821159362793,-0.07179775834083557
1771073686929540400,1.457540283203125,-0.30722713470458984,0.017158031463623047,-0.00640830397605896
1771073686939480300,1.467480224609375,-0.36818790435791016,0.0242459774017334,0.04925033450126648
1771073686949420000,1.477419921875,-0.2570371627807617,-0.03219175338745117,0.046704500913619995
1771073686959359700,1.48735986328125,-0.04712200164794922,-0.03413033485412598,0.031337589025497437
1771073686969299700,1.4972998046875,0.015394210815429688,-0.002381563186645508,0.12613794207572937
1771073686979239400,1.507239501953125,0.02994060516357422,-0.08717966079711914,0.15466612577438354
1771073686989179100,1.51717919921875,0.16707897186279297,-0.15793704986572266,0.11133041977882385
1771073686999119000,1.527119140625,0.2506132125854492,-0.13759469985961914,0.078823983669281
1771073687009058800,1.537058837890625,0.2249593734741211,-0.13366174697875977,-0.01145094633102417
1771073687018998500,1.54699853515625,0.20014667510986328,-0.1499922275543213,-0.1393737643957138
1771073687028938500,1.5569384765625,0.21855926513671875,-0.09421777725219727,-0.21233145892620087
1771073687038878200,1.566878173828125,0.1784648895263672,-0.007970571517944336,-0.16326770186424255
1771073687048818000,1.57681787109375,0.10684013366699219,-0.014383554458618164,-0.1345132738351822
1771073687058758000,1.5867578125,-0.014866828918457031,-0.035883188247680664,-0.14871716499328613
1771073687068697600,1.596697509765625,-0.18627071380615234,-0.04268956184387207,-0.11910715699195862
1771073687088577000,1.616576904296875,-0.35549354553222656,0.003334522247314453,-0.03200685977935791
1771073687098517000,1.62651708984375,-0.32820892333984375,0.031650543212890625,-0.008683860301971436
1771073687108456700,1.636456787109375,-0.24843311309814453,0.04172706604003906,-0.0394023060798645
1771073687118396400,1.646396484375,-0.11226844787597656,0.03829312324523926,-0.07782179117202759
1771073687128336400,1.65633642578125,0.009149551391601562,0.020408153533935547,-0.11578212678432465
1771073687138276000,1.666276123046875,0.11902999877929688,0.00794363021850586,-0.12545596063137054
1771073687148215800,1.6762158203125,0.236968994140625,0.006316661834716797,-0.11650712788105011
1771073687158155800,1.68615576171875,0.2830390930175781,0.014566421508789062,-0.12950101494789124
1771073687168095500,1.696095458984375,0.26067161560058594,0.028112173080444336,-0.13046923279762268
1771073687178035200,1.70603515625,0.227294921875,0.04039716720581055,-0.13769954442977905
1771073687187975200,1.71597509765625,0.21107006072998047,0.05221700668334961,-0.10783937573432922
1771073687197915000,1.725914794921875,0.16447162628173828,0.0639643669128418,-0.05482685565948486
1771073687207854600,1.7358544921875,0.09744739532470703,0.05915379524230957,-0.0031110048294067383
1771073687217794300,1.745794189453125,0.05977058410644531,0.04049801826477051,0.035195618867874146
1771073687227734300,1.755734375,0.04400348663330078,0.03136277198791504,0.09362247586250305
1771073687237674000,1.765674072265625,0.05932140350341797,0.02637028694152832,0.12325450778007507
1771073687247613700,1.77561376953125,0.06761455535888672,0.02741074562072754,0.1161540150642395
1771073687257553700,1.7855537109375,0.040755271911621094,0.03430938720703125,0.07794520258903503
1771073687267493400,1.795493408203125,0.007489204406738281,0.04248309135437012,0.03541463613510132
1771073687277433000,1.80543310546875,0.005513191223144531,0.03094196319580078,-0.02302795648574829
1771073687287373000,1.815373046875,-0.0056896209716796875,0.00465703010559082,-0.09017017483711243
1771073687297312800,1.825312744140625,-0.007076263427734375,-0.015027523040771484,-0.11932834982872009
1771073687307252500,1.83525244140625,-0.012761116027832031,-0.012237548828125,-0.09272769093513489
1771073687317192400,1.8451923828125,0.008032798767089844,-0.004155397415161133,-0.044017791748046875
1771073687327132200,1.855132080078125,0.04781913757324219,-0.01932382583618164,-0.08544912934303284
1771073687337071900,1.86507177734375,0.04494476318359375,-0.005172252655029297,-0.1115759015083313
1771073687347011800,1.87501171875,0.009491920471191406,0.031100034713745117,-0.10974010825157166
1771073687356951600,1.88495166015625,-0.08148002624511719,-0.012022733688354492,-0.1435655653476715
1771073687366891300,1.894891357421875,-0.23923015594482422,-0.03278541564941406,-0.14147809147834778
1771073687376831000,1.9048310546875,-0.42307090759277344,-0.03236746788024902,-0.11987890303134918
1771073687386771000,1.91477099609375,-0.5623998641967773,-0.03548908233642578,-0.11566142737865448
1771073687396710700,1.924710693359375,-0.6371173858642578,-0.005700349807739258,-0.16173210740089417
1771073687406650400,1.934650390625,-0.7121152877807617,0.019555330276489258,-0.2007308304309845
1771073687416590300,1.94459033203125,-0.7026205062866211,0.02623891830444336,-0.23981788754463196
1771073687426530000,1.954530029296875,-0.5862751007080078,0.02567291259765625,-0.2422814518213272
1771073687436469800,1.9644697265625,-0.43029022216796875,0.039801836013793945,-0.19699950516223907
1771073687446409700,1.97440966796875,-0.230194091796875,0.06674790382385254,-0.09969273209571838
1771073687456349400,1.984349365234375,-0.052280426025390625,0.10477185249328613,-0.04754796624183655
1771073687466289200,1.9942890625,0.024025917053222656,0.13147544860839844,-0.06464210152626038
1771073687476229000,2.00422900390625,0.012175559997558594,0.12597918510437012,-0.09197458624839783
1771073687486168800,2.0141689453125,0.026556968688964844,0.1221923828125,-0.15405210852622986
1771073687496108500,2.024108642578125,0.02423381805419922,0.15585637092590332,-0.12132543325424194
1771073687506048500,2.034048583984375,0.06426620483398438,0.18900394439697266,-0.05012443661689758
1771073687515988200,2.04398828125,0.11543846130371094,0.17196297645568848,-0.03573533892631531
1771073687525928000,2.053927978515625,0.1776294708251953,0.13125944137573242,-0.04190441966056824
1771073687535867600,2.06386767578125,0.26492786407470703,0.1091759204864502,-0.03529965877532959
1771073687545807600,2.0738076171875,0.3179922103881836,0.14091897010803223,-0.020805150270462036
1771073687555747300,2.083747314453125,0.2902107238769531,0.1907503604888916,0.007503330707550049
1771073687565687000,2.09368701171875,0.2982006072998047,0.2070636749267578,0.003565967082977295
1771073687575627000,2.103626953125,0.33188629150390625,0.20473909378051758,0.03157973289489746
1771073687585566700,2.113566650390625,0.39086151123046875,0.18379902839660645,0.031059235334396362
1771073687595506400,2.12350634765625,0.4725666046142578,0.18133831024169922,0.05755999684333801
1771073687605446400,2.1334462890625,0.49924755096435547,0.1865549087524414,0.08937373757362366
1771073687615386000,2.14338623046875,0.49322509765625,0.16330933570861816,0.07663783431053162
1771073687625325800,2.153325927734375,0.4998188018798828,0.12836909294128418,0.036682069301605225
1771073687635265800,2.163265869140625,0.4763660430908203,0.14335417747497559,0.045447081327438354
1771073687645205500,2.17320556640625,0.42102718353271484,0.17209792137145996,0.07601559162139893
1771073687655145200,2.183145263671875,0.3201589584350586,0.13460373878479004,0.08737266063690186
1771073687665085000,2.1930849609375,0.19310569763183594,0.06819415092468262,0.07017919421195984
1771073687675025000,2.20302490234375,0.11530590057373047,0.030935287475585938,0.08648478984832764
1771073687684964600,2.212964599609375,0.0787649154663086,0.015547990798950195,0.1316554844379425
1771073687694904300,2.222904296875,0.11114692687988281,-0.023484468460083008,0.15388211607933044
1771073687704844300,2.23284423828125,0.11494159698486328,-0.041623830795288086,0.16551586985588074
1771073687714784000,2.242783935546875,0.09072589874267578,-0.05363655090332031,0.19479018449783325
1771073687724723700,2.2527236328125,-0.04599285125732422,-0.056592702865600586,0.1874186396598816
1771073687734663700,2.26266357421875,-0.12652301788330078,-0.07770180702209473,0.16736945509910583
1771073687744603400,2.272603271484375,-0.15652179718017578,-0.09301328659057617,0.1557191014289856
1771073687754543000,2.282543212890625,-0.1718883514404297,-0.11036491394042969,0.09697532653808594
1771073687764483000,2.292483154296875,-0.1656656265258789,-0.11821150779724121,0.004672646522521973
1771073687774422800,2.3024228515625,-0.09836673736572266,-0.08077096939086914,-0.0808667540550232
1771073687784362500,2.312362548828125,-0.05596351623535156,-0.040663957595825195,-0.11873286962509155
1771073687794302500,2.322302490234375,-0.007552146911621094,-0.018715620040893555,-0.1594037264585495
1771073687804242200,2.3322421875,0.028138160705566406,-0.06463384628295898,-0.1802169233560562
1771073687814182000,2.342181884765625,0.12232017517089844,-0.12900328636169434,-0.16575545072555542
1771073687824121600,2.35212158203125,0.12831401824951172,-0.1725003719329834,-0.06157046556472778
1771073687834061600,2.3620615234375,0.16533279418945312,-0.21689558029174805,0.0635426938533783
1771073687844001300,2.372001220703125,0.21146202087402344,-0.2500579357147217,0.1742614209651947
1771073687853941000,2.38194091796875,0.22646617889404297,-0.2556326389312744,0.2600994110107422
1771073687863881000,2.391880859375,0.18509578704833984,-0.26256227493286133,0.3083023130893707
1771073687873820700,2.401820556640625,0.053028106689453125,-0.30123400688171387,0.2461317777633667
1771073687883760400,2.411760498046875,-0.12373828887939453,-0.30646705627441406,0.2005469799041748
1771073687893700400,2.421700439453125,-0.26250553131103516,-0.28197407722473145,0.17323017120361328
1771073687903640000,2.43164013671875,-0.2961997985839844,-0.24070405960083008,0.12069398164749146
1771073687913579800,2.441579833984375,-0.2950859069824219,-0.17763018608093262,0.08244386315345764
1771073687923519700,2.451519775390625,-0.2265005111694336,-0.12466120719909668,0.03469565510749817
1771073687933459500,2.46145947265625,-0.1288738250732422,-0.11582446098327637,-0.06687349081039429
1771073687943399400,2.4713994140625,-0.05412864685058594,-0.09509944915771484,-0.1269342005252838
1771073687953339100,2.481339111328125,-0.0039997100830078125,-0.07295799255371094,-0.14571034908294678
1771073687963279000,2.491279052734375,0.0218048095703125,-0.06324625015258789,-0.16103163361549377
1771073687973218800,2.50121875,0.028389930725097656,-0.032706260681152344,-0.1427774727344513
1771073687983158800,2.51115869140625,-0.007411956787109375,-0.026451826095581055,-0.09008780121803284
1771073687993098500,2.521098388671875,-0.040093421936035156,-0.05128145217895508,-0.0017665326595306396
1771073688003038500,2.53103857421875,-0.0651254653930664,-0.06640243530273438,0.07329267263412476
1771073688012978200,2.540978271484375,-0.10161590576171875,-0.0716254711151123,0.13622647523880005
1771073688022918100,2.550918212890625,-0.07873725891113281,-0.0813601016998291,0.1147596538066864
1771073688032857900,2.56085791015625,-0.0019979476928710938,-0.07029414176940918,0.04105004668235779
1771073688042797800,2.5707978515625,0.017246246337890625,-0.041693925857543945,0.011890202760696411
1771073688052737500,2.580737548828125,-0.055167198181152344,-0.036347389221191406,-0.00983777642250061
1771073688062677500,2.590677490234375,-0.1567974090576172,-0.05520749092102051,-0.11611264944076538
1771073688072617200,2.6006171875,-0.24545955657958984,-0.011036157608032227,-0.13260018825531006
1771073688082557200,2.61055712890625,-0.30042362213134766,0.06299638748168945,-0.11277726292610168
1771073688092497000,2.620496826171875,-0.27506160736083984,0.07434797286987305,-0.09561896324157715
1771073688102436900,2.630436767578125,-0.2010030746459961,0.046535491943359375,-0.11159002780914307
1771073688112376600,2.64037646484375,-0.10932350158691406,0.019073486328125,-0.11288782954216003
1771073688122316500,2.650316650390625,-0.035533905029296875,0.05749917030334473,-0.07823824882507324
1771073688132256300,2.66025634765625,-0.03821086883544922,0.09477949142456055,-0.07613629102706909
1771073688142196200,2.6701962890625,-0.09279155731201172,0.09885811805725098,-0.12032034993171692
1771073688152136000,2.680135986328125,-0.11168861389160156,0.10452699661254883,-0.14399173855781555
1771073688162076000,2.690075927734375,-0.07423782348632812,0.12117242813110352,-0.11821848154067993
1771073688172015600,2.700015625,-0.007023811340332031,0.1290733814239502,-0.09880107641220093
1771073688181955600,2.70995556640625,0.07796955108642578,0.1038520336151123,-0.08077123761177063
1771073688191895300,2.719895263671875,0.0770406723022461,0.07599115371704102,-0.05197587609291077
1771073688201835300,2.729835205078125,0.062473297119140625,0.04238176345825195,-0.0335717499256134
1771073688211775200,2.739775146484375,0.09112358093261719,0.09210467338562012,-0.032117098569869995
1771073688221715000,2.74971484375,0.08926868438720703,0.1483440399169922,-0.027674973011016846
1771073688231655000,2.759655029296875,-0.05323505401611328,0.1616525650024414,-0.04209372401237488
1771073688241594600,2.7695947265625,-0.24935245513916016,0.13071203231811523,-0.04972061514854431
1771073688251534300,2.779534423828125,-0.39482688903808594,0.08284926414489746,-0.04788348078727722
1771073688261474300,2.789474365234375,-0.4507589340209961,0.08261418342590332,-0.042265743017196655
1771073688271414000,2.7994140625,-0.46820640563964844,0.11999225616455078,-0.017448633909225464
1771073688281353700,2.809353759765625,-0.4124774932861328,0.10007524490356445,-0.05107194185256958
1771073688291293700,2.819293701171875,-0.31532955169677734,0.049379825592041016,-0.13896974921226501
1771073688301233400,2.8292333984375,-0.2552928924560547,0.06793642044067383,-0.19135312736034393
1771073688311173000,2.839173095703125,-0.19664859771728516,0.11555194854736328,-0.23624759912490845
1771073688321113000,2.849113037109375,-0.07379627227783203,0.11539411544799805,-0.27026253938674927
1771073688331052800,2.859052734375,0.10258197784423828,0.12068748474121094,-0.2346094250679016
1771073688340992500,2.868992431640625,0.2729482650756836,0.09078812599182129,-0.18113556504249573
1771073688350932200,2.87893212890625,0.3695964813232422,0.02734684944152832,-0.10306346416473389
1771073688360872200,2.8888720703125,0.5472774505615234,-0.02346324920654297,-0.030982911586761475
1771073688370812000,2.89881201171875,0.722599983215332,-0.0373227596282959,0.04553866386413574
1771073688380751600,2.908751708984375,0.7734146118164062,-0.022814035415649414,0.16260427236557007
1771073688390691600,2.918691650390625,0.6524410247802734,-0.011335134506225586,0.18772119283676147
1771073688400631300,2.92863134765625,0.47040843963623047,-0.029624223709106445,0.164730042219162
1771073688410571000,2.938571044921875,0.31489086151123047,-0.025981903076171875,0.19900211691856384
1771073688420511000,2.948510986328125,0.2652130126953125,0.002343416213989258,0.2677454650402069
1771073688430450700,2.95845068359375,0.2703285217285156,0.004803895950317383,0.2869867980480194
1771073688440390400,2.968390380859375,0.24942302703857422,0.0095062255859375,0.26528000831604004
1771073688450330400,2.978330322265625,0.3279151916503906,0.020358800888061523,0.1778241991996765
1771073688460270000,2.98827001953125,0.42185497283935547,0.04386568069458008,0.07116597890853882
1771073688470209800,2.998209716796875,0.42043590545654297,0.10545182228088379,-0.01499977707862854
1771073688480149800,3.008149658203125,0.33470821380615234,0.11052393913269043,-0.12146925926208496
1771073688490089500,3.01808935546875,0.22484207153320312,0.09594225883483887,-0.20792758464813232
1771073688500029200,3.028029296875,0.15712642669677734,0.09518289566040039,-0.18116754293441772
1771073688509969000,3.037968994140625,0.1379690170288086,0.0747370719909668,-0.15234917402267456
1771073688519908900,3.047908935546875,0.08868122100830078,0.04239535331726074,-0.14776021242141724
1771073688529848600,3.0578486328125,-0.04209709167480469,0.04564237594604492,-0.11739085614681244
1771073688539788300,3.067788330078125,-0.1847219467163086,0.022767305374145508,-0.08152365684509277
1771073688549728300,3.077728271484375,-0.24950218200683594,-0.03295612335205078,-0.06837299466133118
1771073688559668000,3.08766796875,-0.3015308380126953,-0.054482221603393555,0.011008769273757935
1771073688569607700,3.097607666015625,-0.3176536560058594,-0.06084632873535156,0.10527011752128601
1771073688579547600,3.107547607421875,-0.2820768356323242,-0.0568389892578125,0.18432027101516724
1771073688589487400,3.1174873046875,-0.20748424530029297,-0.08255887031555176,0.14763295650482178
1771073688599427000,3.127427001953125,-0.12976455688476562,-0.1306288242340088,0.0648016631603241
1771073688609367000,3.137366943359375,-0.0934286117553711,-0.13308215141296387,-0.015555530786514282
1771073688619306800,3.147306640625,-0.10460376739501953,-0.12648391723632812,-0.07705211639404297
1771073688629246500,3.15724658203125,-0.10350990295410156,-0.12304115295410156,-0.15173910558223724
1771073688639186200,3.167186279296875,-0.1352081298828125,-0.12474370002746582,-0.1986457109451294
1771073688649126100,3.177126220703125,-0.16187095642089844,-0.09744906425476074,-0.18402473628520966
1771073688659065900,3.18706591796875,-0.12027645111083984,-0.06449270248413086,-0.08889344334602356
1771073688669005600,3.197005615234375,-0.10564994812011719,-0.06394243240356445,-0.0390874445438385
1771073688678945500,3.206945556640625,-0.10802459716796875,-0.09790205955505371,-0.008276939392089844
1771073688688885200,3.21688525390625,-0.1200551986694336,-0.07623958587646484,0.07138168811798096
1771073688698825000,3.226824951171875,-0.13696956634521484,-0.11722350120544434,0.11611482501029968
1771073688708765000,3.236764892578125,-0.15157318115234375,-0.08812522888183594,0.15939685702323914
1771073688718704600,3.24670458984375,-0.16594505310058594,-0.08991885185241699,0.15351995825767517
1771073688728644400,3.256644287109375,-0.130584716796875,-0.15770411491394043,0.11191186308860779
1771073688738584300,3.266584228515625,-0.062957763671875,-0.17940711975097656,0.06254029273986816
1771073688748524000,3.27652392578125,0.017632484436035156,-0.11132597923278809,0.027063101530075073
1771073688758463700,3.286463623046875,0.0806589126586914,-0.04291653633117676,-0.028571635484695435
1771073688768403700,3.29640380859375,0.09604358673095703,-0.05252337455749512,-0.10026830434799194
1771073688778343400,3.306343505859375,0.05052947998046875,-0.0567011833190918,-0.13577872514724731
1771073688788283100,3.316283203125,-0.02933788299560547,-0.07563996315002441,-0.12794914841651917
1771073688798222800,3.326222900390625,-0.08695030212402344,-0.06762003898620605,-0.09334009885787964
1771073688808162800,3.336162841796875,-0.12051200866699219,-0.023035049438476562,-0.035102009773254395
1771073688818102500,3.3461025390625,-0.11855602264404297,-0.05563664436340332,0.033085912466049194
1771073688828042200,3.356042236328125,-0.09095954895019531,-0.117462158203125,0.06857031583786011
1771073688837982200,3.365982177734375,-0.08516407012939453,-0.1352214813232422,0.0525532066822052
1771073688847922000,3.375921875,-0.13848876953125,-0.10719823837280273,0.018464714288711548
1771073688857861600,3.385861572265625,-0.11101722717285156,-0.06486344337463379,0.009207576513290405
1771073688867801600,3.395801513671875,0.005335807800292969,-0.0487520694732666,-0.009059160947799683
1771073688877741300,3.4057412109375,0.13379478454589844,-0.03289198875427246,-0.015523940324783325
1771073688887681000,3.415680908203125,0.2415781021118164,-0.0020585060119628906,0.043960392475128174
1771073688897621000,3.42562109375,0.23049640655517578,-0.0022118091583251953,0.07282570004463196
1771073688907560700,3.435560791015625,0.1167612075805664,-0.05423474311828613,0.0564115047454834
1771073688917500400,3.44550048828125,0.03611278533935547,-0.0742802619934082,0.03275272250175476
1771073688927440400,3.4554404296875,-0.08531761169433594,-0.040633440017700195,0.028151631355285645
1771073688937380000,3.465380126953125,-0.20726966857910156,-0.004526615142822266,0.042194098234176636
1771073688947319800,3.47531982421875,-0.2451925277709961,0.01113271713256836,0.048702746629714966
1771073688957259500,3.485259521484375,-0.2829113006591797,0.006705284118652344,0.03407949209213257
1771073688967199500,3.495199462890625,-0.33704471588134766,0.011279582977294922,0.052286744117736816
1771073688977139200,3.50513916015625,-0.37662220001220703,-0.0014777183532714844,0.06269383430480957
1771073688987079000,3.515078857421875,-0.37833595275878906,-0.02667856216430664,0.0872907042503357
1771073688997019000,3.525018798828125,-0.3617725372314453,-0.019095420837402344,0.11258575320243835
1771073689006958600,3.53495849609375,-0.3130826950073242,-0.024114370346069336,0.11050140857696533
1771073689016898300,3.544898193359375,-0.2232809066772461,-0.02778005599975586,0.074951171875
1771073689026838300,3.55483837890625,-0.05776405334472656,-0.03471517562866211,0.03230154514312744
1771073689036778000,3.564778076171875,0.13535594940185547,-0.0031545162200927734,0.04795539379119873
1771073689046717700,3.5747177734375,0.261871337890625,0.003871917724609375,0.07923224568367004
1771073689056657700,3.58465771484375,0.3562498092651367,-0.049719810485839844,0.11053836345672607
1771073689066597400,3.594597412109375,0.4592132568359375,-0.08817505836486816,0.16098669171333313
1771073689076537000,3.604537109375,0.5211477279663086,-0.09302926063537598,0.21782782673835754
1771073689086476800,3.614476806640625,0.5967721939086914,-0.05054783821105957,0.24727219343185425
1771073689096416800,3.624416748046875,0.572932243347168,-0.027641773223876953,0.20920205116271973
1771073689106356500,3.6343564453125,0.5501804351806641,-0.05683445930480957,0.15041887760162354
1771073689116296200,3.644296142578125,0.5048427581787109,-0.04492545127868652,0.1525275707244873
1771073689126236200,3.654236083984375,0.41579437255859375,-0.005652666091918945,0.19064655900001526
1771073689136175900,3.66417578125,0.30479907989501953,0.0022416114807128906,0.19072309136390686
1771073689146115600,3.674115478515625,0.2191638946533203,0.008016109466552734,0.14861327409744263
1771073689156055600,3.6840556640625,0.17967700958251953,0.03985285758972168,0.12893787026405334
1771073689165995300,3.693995361328125,0.17372894287109375,0.05033588409423828,0.11360147595405579
1771073689175935000,3.70393505859375,0.17482376098632812,0.0468137264251709,0.08296072483062744
1771073689185875000,3.713875,0.17341232299804688,0.05533957481384277,0.047710567712783813
1771073689195814700,3.723814697265625,0.1884613037109375,0.06129193305969238,0.07613444328308105
1771073689205754400,3.73375439453125,0.21067142486572266,0.03055286407470703,0.05352514982223511
1771073689215694300,3.7436943359375,0.23775482177734375,0.024363994598388672,-0.026456058025360107
1771073689225634000,3.753634033203125,0.17783069610595703,0.07066607475280762,-0.04630890488624573
1771073689235573800,3.76357373046875,0.08397865295410156,0.11284947395324707,-0.09362226724624634
1771073689245513500,3.773513427734375,0.03660392761230469,0.10224223136901855,-0.16815482079982758
1771073689255453400,3.783453369140625,-0.045379638671875,0.12293434143066406,-0.21721705794334412
1771073689265393200,3.79339306640625,-0.14026451110839844,0.16518282890319824,-0.17786294221878052
1771073689275332900,3.803332763671875,-0.21968936920166016,0.15593719482421875,-0.15711861848831177
1771073689285272800,3.81327294921875,-0.25098609924316406,0.10547947883605957,-0.16092097759246826
1771073689295212500,3.823212646484375,-0.2516136169433594,0.09023022651672363,-0.19933246076107025
1771073689305152300,3.83315234375,-0.17279815673828125,0.08166003227233887,-0.22093740105628967
1771073689315092200,3.84309228515625,-0.0816793441772461,0.09574580192565918,-0.21856966614723206
1771073689325032000,3.853031982421875,-0.011147499084472656,0.09846258163452148,-0.22005510330200195
1771073689334971600,3.8629716796875,0.011384963989257812,0.048693180084228516,-0.1970985382795334
1771073689344911600,3.87291162109375,-0.029541015625,-0.029736995697021484,-0.16982124745845795
1771073689354851300,3.882851318359375,-0.1141805648803711,-0.06760525703430176,-0.12646418809890747
1771073689364791000,3.892791015625,-0.22089385986328125,-0.06954455375671387,-0.07803672552108765
1771073689374731000,3.90273095703125,-0.24373149871826172,-0.07285070419311523,-0.11272367835044861
1771073689384670700,3.912670654296875,-0.20075035095214844,-0.03942704200744629,-0.11493048071861267
1771073689394610400,3.9226103515625,-0.12586498260498047,-0.0009794235229492188,-0.10845217108726501
1771073689404550100,3.932550048828125,-0.08277130126953125,-0.003484964370727539,-0.09414565563201904
1771073689414490000,3.942489990234375,-0.10840129852294922,-0.03976869583129883,-0.10803592205047607
1771073689424429800,3.952429931640625,-0.17576026916503906,-0.06198692321777344,-0.10766357183456421
1771073689434369500,3.96236962890625,-0.20676612854003906,-0.05537533760070801,-0.09503921866416931
1771073689444309500,3.9723095703125,-0.21161556243896484,-0.024662256240844727,-0.0627281665802002
1771073689454249200,3.982249267578125,-0.17437171936035156,-0.03343653678894043,-0.06562891602516174
1771073689464189000,3.99218896484375,-0.08153724670410156,-0.029526472091674805,-0.10982835292816162
1771073689474129000,4.00212890625,-0.06327247619628906,-0.03264021873474121,-0.131972536444664
1771073689484068600,4.012068603515625,-0.057076454162597656,-0.01676344871520996,-0.12888091802597046
1771073689494008300,4.02200830078125,-0.0508270263671875,-0.03440141677856445,-0.11326241493225098
1771073689503948300,4.0319482421875,-0.08465766906738281,-0.035268306732177734,-0.06136399507522583
1771073689513888000,4.041887939453125,-0.1272735595703125,-0.017400741577148438,-0.02045920491218567
1771073689523828000,4.051827880859375,-0.14328384399414062,-0.02575373649597168,-0.01758614182472229
1771073689533768000,4.061767822265625,-0.12386703491210938,-0.010149240493774414,-0.01553887128829956
1771073689543707600,4.071707763671875,-0.08607292175292969,0.026561737060546875,0.004819542169570923
1771073689553647600,4.081647705078125,-0.09359455108642578,0.01998162269592285,-0.01157677173614502
1771073689563587300,4.09158740234375,-0.14089488983154297,0.0013499259948730469,-0.027475416660308838
1771073689573527300,4.10152734375,-0.17337894439697266,0.013928651809692383,-0.03127327561378479
1771073689583467000,4.111467041015625,-0.1773357391357422,0.0388336181640625,0.0030132830142974854
1771073689593407000,4.121406982421875,-0.1909923553466797,0.05493903160095215,0.02046990394592285
1771073689603346700,4.1313466796875,-0.126983642578125,0.040917396545410156,0.004865437746047974
1771073689613286700,4.14128662109375,-0.0830068588256836,0.034561872482299805,0.010932743549346924
1771073689623226400,4.151226318359375,-0.020804405212402344,0.0326235294342041,0.04063329100608826
1771073689633166300,4.161166259765625,0.02895355224609375,0.046013832092285156,0.06338346004486084
1771073689643106000,4.17110595703125,0.0054645538330078125,0.05731916427612305,0.09638959169387817
1771073689653046000,4.1810458984375,-0.1230621337890625,0.036158084869384766,0.12745267152786255
1771073689662985700,4.19098583984375,-0.24448013305664062,0.03328061103820801,0.13319021463394165
1771073689672925700,4.20092578125,-0.34279441833496094,0.023554563522338867,0.0932527482509613
1771073689682865400,4.210865478515625,-0.4800386428833008,0.034444332122802734,0.03552877902984619
1771073689692805400,4.220805419921875,-0.5922832489013672,0.04077577590942383,-0.07211905717849731
1771073689702745000,4.2307451171875,-0.46815013885498047,0.03116583824157715,-0.17280234396457672
1771073689712685000,4.24068505859375,-0.2479534149169922,0.03338479995727539,-0.2505256235599518
1771073689722624800,4.250624755859375,-0.055362701416015625,0.09318304061889648,-0.2837458550930023
1771073689732564700,4.260564697265625,0.10103797912597656,0.13322782516479492,-0.30457380414009094
1771073689742504400,4.27050439453125,0.25981712341308594,0.10357046127319336,-0.3114316761493683
1771073689752444400,4.2804443359375,0.32909202575683594,0.08305239677429199,-0.2282828390598297
1771073689762384100,4.290384033203125,0.2963218688964844,0.10189557075500488,-0.11844746768474579
1771073689772324000,4.300323974609375,0.2947998046875,0.05198502540588379,-0.06341344118118286
1771073689782263800,4.310263916015625,0.38501548767089844,-0.010815143585205078,-0.000671684741973877
1771073689792203800,4.320203857421875,0.47126007080078125,-0.003922700881958008,0.12446838617324829
1771073689802143500,4.3301435546875,0.48333263397216797,-0.028371810913085938,0.17312490940093994
1771073689812083200,4.340083251953125,0.4321603775024414,-0.07492780685424805,0.1898762285709381
1771073689822023200,4.350023193359375,0.3849344253540039,-0.09908318519592285,0.18859609961509705
1771073689831963000,4.359962890625,0.3038663864135742,-0.04932713508605957,0.1965382993221283
1771073689841902600,4.369902587890625,0.2575531005859375,0.024256229400634766,0.17049595713615417
1771073689851842600,4.379842529296875,0.20994091033935547,0.07920670509338379,0.12691131234169006
1771073689861782300,4.3897822265625,0.1326608657836914,0.09968090057373047,0.07866570353507996
1771073689871722000,4.399721923828125,0.1084890365600586,0.10069537162780762,0.06151300668716431
1771073689881662000,4.409661865234375,0.08018875122070312,0.10328817367553711,0.044363051652908325
1771073689891601700,4.4196015625,-0.04147911071777344,0.08360862731933594,-0.01922476291656494
1771073689901541400,4.429541259765625,-0.14916706085205078,0.05675864219665527,-0.08961242437362671
1771073689911481000,4.439481201171875,-0.1774911880493164,0.06612539291381836,-0.10054042935371399
1771073689921421000,4.449421142578125,-0.15654754638671875,0.08193826675415039,-0.061260491609573364
1771073689931360800,4.45936083984375,-0.12487983703613281,0.09485673904418945,-0.03169560432434082
1771073689941300500,4.469300537109375,-0.12709712982177734,0.04997706413269043,-0.005621105432510376
1771073689951240400,4.479240478515625,-0.09878349304199219,-0.031328439712524414,-0.014292597770690918
1771073689961180200,4.48918017578125,-0.08042144775390625,-0.06859588623046875,0.002081245183944702
1771073689971119900,4.499119873046875,-0.03665733337402344,-0.0575716495513916,0.029922664165496826
1771073689981059800,4.509059814453125,0.029710769653320312,-0.0296781063079834,0.04136747121810913
1771073689990999600,4.51899951171875,0.04319190979003906,-0.023464202880859375,0.03843078017234802
1771073690000939300,4.528939208984375,0.016744613647460938,-0.058179616928100586,0.02964290976524353
1771073690010879200,4.538879150390625,-0.006499290466308594,-0.09574389457702637,-0.0013456642627716064
1771073690020819000,4.54881884765625,-0.007834434509277344,-0.07479286193847656,0.017462164163589478
1771073690030758700,4.558758544921875,0.009902000427246094,-0.03839397430419922,0.06701326370239258
1771073690040698400,4.568698486328125,0.032301902770996094,-0.027025461196899414,0.027336955070495605
1771073690050638300,4.578638427734375,-0.02093982696533203,-0.027994632720947266,-0.02677476406097412
1771073690060578000,4.588578125,-0.06441497802734375,0.00530695915222168,-0.030486464500427246
1771073690070517800,4.598517822265625,-0.08180046081542969,0.044138431549072266,-0.0042452216148376465
1771073690080457700,4.608457763671875,0.01639842987060547,0.0094451904296875,-0.02482062578201294
1771073690090397400,4.6183974609375,0.08244514465332031,-0.0038628578186035156,-0.060697853565216064
1771073690100337200,4.628337158203125,0.05109405517578125,-0.0034906864166259766,-0.06317803263664246
1771073690110277000,4.638277099609375,0.025112152099609375,-0.005773067474365234,-0.038201481103897095
1771073690120216800,4.648216796875,0.03720569610595703,-0.0054874420166015625,-0.014380663633346558
1771073690130156500,4.658156494140625,0.03272056579589844,0.006346464157104492,0.015431374311447144
1771073690140096500,4.668096435546875,0.004876136779785156,-0.012849807739257812,0.020497411489486694
1771073690150036200,4.6780361328125,0.027154922485351562,-0.025149106979370117,-0.05814248323440552
1771073690159976000,4.687975830078125,0.02815532684326172,0.03979158401489258,-0.04729461669921875
1771073690169916000,4.697916015625,-0.003459930419921875,0.07452702522277832,-0.026269465684890747
1771073690179855600,4.707855712890625,-0.08165168762207031,0.06169533729553223,-0.052872806787490845
1771073690189795300,4.71779541015625,-0.11437320709228516,0.048302650451660156,-0.061751753091812134
1771073690199735000,4.727735107421875,-0.04378700256347656,0.07730364799499512,-0.002348870038986206
1771073690209675000,4.737675048828125,0.0675497055053711,0.10924506187438965,0.05792483687400818
1771073690219614700,4.74761474609375,0.15346050262451172,0.06766176223754883,0.049562007188797
1771073690229554400,4.757554443359375,0.1418132781982422,0.009236812591552734,-0.0019387304782867432
1771073690239494400,4.767494384765625,0.1520853042602539,-0.03306007385253906,-0.019068360328674316
1771073690249434000,4.77743408203125,0.1366443634033203,-0.021268844604492188,-0.00020486116409301758
1771073690259373800,4.787373779296875,0.10275554656982422,-0.02872323989868164,0.026670455932617188
1771073690269313800,4.797313720703125,0.1118001937866211,-0.0524599552154541,0.012851864099502563
1771073690279253500,4.80725341796875,0.04066276550292969,-0.07099461555480957,-0.027502059936523438
1771073690289193200,4.817193115234375,-0.017594337463378906,-0.06988763809204102,0.0041595399379730225
1771073690299133200,4.82713330078125,-0.04666614532470703,-0.058998823165893555,0.07135769724845886
1771073690309073000,4.837072998046875,-0.08245849609375,-0.08776497840881348,0.07329744100570679
1771073690319012600,4.8470126953125,-0.1508188247680664,-0.08703756332397461,0.04389673471450806
1771073690328952600,4.85695263671875,-0.25597095489501953,-0.08516454696655273,-0.0011577606201171875
1771073690338892300,4.866892333984375,-0.2113513946533203,-0.0631558895111084,-0.0029342174530029297
1771073690348832000,4.87683203125,-0.16525936126708984,-0.045684814453125,0.06334805488586426
1771073690358771700,4.886771728515625,-0.18115615844726562,-0.07339906692504883,0.054706692695617676
1771073690368711700,4.896711669921875,-0.17583847045898438,-0.10509777069091797,-0.0004999041557312012
1771073690378651400,4.9066513671875,-0.15437030792236328,-0.04425382614135742,0.021146833896636963
1771073690388591000,4.916591064453125,-0.14992809295654297,-0.021870851516723633,0.03958141803741455
1771073690398531000,4.926531005859375,-0.049167633056640625,-0.07515501976013184,0.02663588523864746
1771073690408470800,4.936470703125,0.028646469116210938,-0.13024473190307617,0.02626645565032959
1771073690418410500,4.946410400390625,0.09584712982177734,-0.1381821632385254,0.05932658910751343
1771073690428350500,4.9563505859375,0.13164043426513672,-0.14020538330078125,0.04880410432815552
1771073690438290200,4.966290283203125,0.19084644317626953,-0.13428354263305664,0.046132445335388184
1771073690448230000,4.97622998046875,0.19775009155273438,-0.11112570762634277,0.0674363374710083
1771073690458169900,4.986169921875,0.18606090545654297,-0.09644246101379395,0.11412614583969116
1771073690468109600,4.996109619140625,0.11839962005615234,-0.0403897762298584,0.13295966386795044
1771073690478049300,5.00604931640625,0.026426315307617188,-0.04967141151428223,0.10880005359649658
1771073690487989000,5.015989013671875,-0.04503440856933594,-0.07531189918518066,0.08780056238174438
1771073690497929000,5.025928955078125,-0.054290771484375,-0.04334306716918945,0.09028023481369019
1771073690507868700,5.03586865234375,-0.0779428482055664,-0.0013375282287597656,0.07917273044586182
1771073690517808400,5.045808349609375,-0.11103439331054688,0.022253036499023438,0.05702894926071167
1771073690527748400,5.055748291015625,-0.1273193359375,-0.00331878662109375,-0.028309226036071777
1771073690537688000,5.06568798828125,-0.12248897552490234,-0.027405261993408203,-0.09829866886138916
1771073690547627800,5.075627685546875,-0.06168079376220703,-0.007505178451538086,-0.07715940475463867
1771073690557567700,5.085567626953125,0.10114669799804688,0.006283998489379883,0.023067831993103027
1771073690567507500,5.095507568359375,0.2610054016113281,0.0011913776397705078,0.0750265121459961
1771073690577447200,5.105447265625,0.21840953826904297,-0.05437636375427246,0.07512485980987549
1771073690587387100,5.11538720703125,0.15140914916992188,-0.11310958862304688,0.02057737112045288
1771073690597326800,5.125326904296875,0.09333324432373047,-0.14161038398742676,0.026306748390197754
1771073690607266600,5.1352666015625,0.09787750244140625,-0.10913658142089844,0.05730998516082764
1771073690617206500,5.14520654296875,0.00824737548828125,-0.04422712326049805,0.1079331636428833
1771073690627146200,5.155146240234375,-0.09411430358886719,-0.03182196617126465,0.11273419857025146
1771073690637086000,5.1650859375,-0.1667318344116211,-0.054327964782714844,0.06821495294570923
1771073690647025700,5.175025634765625,-0.236236572265625,-0.05639815330505371,0.048562467098236084
1771073690656965600,5.184965576171875,-0.17558670043945312,-0.017246007919311523,0.04945063591003418
1771073690666905300,5.1949052734375,-0.12127208709716797,0.013242959976196289,0.04517769813537598
1771073690676845000,5.204844970703125,-0.0612945556640625,0.03953123092651367,-0.015837788581848145
1771073690686785000,5.214784912109375,0.0022306442260742188,0.03982186317443848,-0.07049185037612915
1771073690696724700,5.224724853515625,0.00841522216796875,0.016135215759277344,-0.08520764112472534
1771073690706664400,5.23466455078125,0.012387275695800781,0.0019054412841796875,-0.05425846576690674
1771073690716604400,5.2446044921875,0.06360816955566406,-0.014928579330444336,0.020074784755706787
1771073690726544100,5.254544189453125,0.11652278900146484,0.00781869888305664,0.0656241774559021
1771073690736483800,5.26448388671875,0.10978221893310547,0.006098270416259766,0.09999066591262817
1771073690746423800,5.274423828125,0.09621238708496094,-0.007992744445800781,0.08553123474121094
1771073690756363500,5.284363525390625,0.12543773651123047,-0.017842769622802734,0.04131680727005005
1771073690766303200,5.29430322265625,0.09801769256591797,-0.0002455711364746094,-0.0000623464584350586
1771073690776243200,5.3042431640625,0.04543876647949219,0.023617982864379883,-0.030420780181884766
1771073690786183000,5.314182861328125,0.045562744140625,0.035474538803100586,-0.047266364097595215
1771073690796122600,5.32412255859375,0.033802032470703125,0.05681610107421875,-0.02116340398788452
1771073690806062300,5.334062255859375,0.0009307861328125,0.07570552825927734,-0.004493236541748047
1771073690816002300,5.344002197265625,-0.03363990783691406,0.06571698188781738,-0.013995528221130371
1771073690825942000,5.35394189453125,-0.032131195068359375,0.04356122016906738,-0.046849608421325684
1771073690835881700,5.3638818359375,-0.02346324920654297,0.05420327186584473,-0.04542899131774902
1771073690845821700,5.37382177734375,-0.04082679748535156,0.08325934410095215,-0.045427799224853516
1771073690855761400,5.383761474609375,-0.06278419494628906,0.08637118339538574,-0.07803815603256226
1771073690865701000,5.393701171875,-0.044653892517089844,0.10446643829345703,-0.0772443413734436
1771073690875641000,5.40364111328125,-0.015309333801269531,0.11361145973205566,-0.05301618576049805
1771073690885580800,5.413580810546875,0.037192344665527344,0.0870978832244873,-0.06969457864761353
1771073690895520500,5.4235205078125,0.0561676025390625,0.048516273498535156,-0.1079908013343811
1771073690905460500,5.43346044921875,0.061057090759277344,0.05689716339111328,-0.14684373140335083
1771073690915400200,5.443400146484375,0.05673789978027344,0.11408543586730957,-0.10887134075164795
1771073690925340000,5.45333984375,0.0808553695678711,0.12307357788085938,-0.02515435218811035
1771073690935279600,5.463279541015625,0.0528717041015625,0.060988426208496094,0.005500733852386475
1771073690945219600,5.473219482421875,-0.019400596618652344,0.03748917579650879,0.04592865705490112
1771073690955159300,5.4831591796875,-0.09053802490234375,0.01692938804626465,0.05281859636306763
1771073690965099000,5.49309912109375,-0.0947561264038086,0.06780743598937988,0.10468006134033203
1771073690975039000,5.5030390625,-0.10618019104003906,0.054874420166015625,0.09457266330718994
1771073690984978700,5.512978759765625,-0.08710956573486328,0.028736114501953125,0.06654530763626099
1771073690994918400,5.52291845703125,-0.07783794403076172,0.052506446838378906,0.0796583890914917
1771073691004858400,5.5328583984375,-0.03790473937988281,0.02109360694885254,0.05270099639892578
1771073691014798000,5.542798095703125,0.015625953674316406,0.008479833602905273,-0.0037119388580322266
1771073691024737800,5.55273779296875,0.03777313232421875,0.04735970497131348,-0.039562344551086426
1771073691034677800,5.562677734375,-0.020502090454101562,0.07144999504089355,-0.05583524703979492
1771073691044617500,5.572617431640625,-0.054419517517089844,0.03213977813720703,-0.07465469837188721
1771073691054557200,5.58255712890625,-0.024580001831054688,0.00393986701965332,-0.07418209314346313
1771073691064497200,5.5924970703125,-0.002765655517578125,-0.034372806549072266,-0.05663871765136719
1771073691074436900,5.602436767578125,0.06061267852783203,-0.05193614959716797,-0.04874706268310547
1771073691084376600,5.61237646484375,0.12981891632080078,-0.03559231758117676,-0.006275296211242676
1771073691094316300,5.62231640625,0.12994003295898438,-0.02719736099243164,0.043367087841033936
1771073691104256300,5.63225634765625,0.16599178314208984,-0.06273245811462402,0.015342295169830322
1771073691114196000,5.642196044921875,0.15251827239990234,-0.0354762077331543,-0.005610525608062744
1771073691124135700,5.6521357421875,0.05953407287597656,0.028113126754760742,0.004380404949188232
1771073691134075600,5.66207568359375,-0.008085250854492188,0.06870007514953613,-0.03292793035507202
1771073691144015400,5.672015380859375,-0.06520652770996094,0.08270430564880371,-0.08783674240112305
1771073691163895000,5.69189501953125,-0.1192026138305664,0.11542153358459473,-0.14071589708328247
1771073691173834800,5.701834716796875,-0.08341503143310547,0.0919029712677002,-0.20980441570281982
1771073691183774500,5.7117744140625,-0.008396148681640625,0.08547616004943848,-0.2527889609336853
1771073691193714400,5.72171435546875,-0.026523590087890625,0.1287975311279297,-0.26431554555892944
1771073691203654100,5.731654052734375,-0.11961746215820312,0.1411576271057129,-0.24503809213638306
1771073691213594000,5.741593994140625,-0.21355056762695312,0.11899399757385254,-0.1898641586303711
1771073691223534000,5.7515341796875,-0.27307796478271484,0.07941770553588867,-0.12218904495239258
1771073691233473800,5.761473876953125,-0.2496633529663086,0.0560452938079834,-0.05153161287307739
1771073691243413800,5.771413818359375,-0.1940927505493164,0.07637929916381836,0.0001398324966430664
1771073691253353500,5.781353515625,-0.16793537139892578,0.09898257255554199,0.045648038387298584
1771073691263293400,5.79129345703125,-0.10928726196289062,0.07137036323547363,0.04538559913635254
1771073691273233200,5.801233154296875,-0.03273963928222656,0.05299115180969238,0.026128947734832764
1771073691283173000,5.811173095703125,-0.013718605041503906,0.07146596908569336,0.025385737419128418
1771073691293112800,5.82111279296875,0.010045051574707031,0.03898334503173828,0.006735086441040039
1771073691303052800,5.831052734375,0.014843940734863281,0.020373106002807617,0.00037288665771484375
1771073691312992500,5.840992431640625,-0.05335235595703125,0.023213624954223633,0.03826266527175903
1771073691322932500,5.850932373046875,-0.10412120819091797,-0.010890483856201172,0.09572017192840576
1771073691332872200,5.8608720703125,-0.06980037689208984,-0.04527711868286133,0.1095622181892395
1771073691342812200,5.870812255859375,0.00801849365234375,-0.05610466003417969,0.09047257900238037
1771073691352751900,5.880751953125,0.11702919006347656,-0.034841060638427734,0.08360940217971802
1771073691362691800,5.89069189453125,0.25017642974853516,-0.032709598541259766,0.07833534479141235
1771073691372631600,5.900631591796875,0.3133993148803711,-0.0836801528930664,0.05056816339492798
1771073691382571500,5.910571533203125,0.31499290466308594,-0.1235494613647461,0.04562610387802124
1771073691392511200,5.92051123046875,0.31458568572998047,-0.11906599998474121,0.1348084807395935
1771073691402451200,5.930451171875,0.26739501953125,-0.09439444541931152,0.1663658618927002
1771073691412391000,5.940390869140625,0.18826675415039062,-0.11565065383911133,0.1366562843322754
1771073691422331000,5.950330810546875,0.08952045440673828,-0.1513521671295166,0.0860823392868042
1771073691432270600,5.9602705078125,-0.009725570678710938,-0.13501834869384766,0.04243826866149902
1771073691442210600,5.97021044921875,-0.08137035369873047,-0.07396340370178223,0.033213675022125244
1771073691452150300,5.980150390625,-0.1188516616821289,-0.06086301803588867,0.056411564350128174
1771073691462090200,5.99009033203125,-0.13231182098388672,-0.06890082359313965,0.023363769054412842
1771073691472030000,6.000030029296875,-0.1906576156616211,-0.0618891716003418,0.013199985027313232
1771073691481970000,6.009969970703125,-0.19668102264404297,-0.03989601135253906,0.03028041124343872
1771073691501849300,6.029849365234375,-0.010661125183105469,-0.03500247001647949,-0.02902466058731079
1771073691511789000,6.0397890625,0.03151988983154297,0.003378152847290039,-0.02009117603302002
1771073691521729000,6.04972900390625,-0.035012245178222656,-0.016035079956054688,-0.019010066986083984
1771073691531668700,6.059668701171875,-0.04601764678955078,-0.0613706111907959,-0.02667415142059326
1771073691541608400,6.0696083984375,-0.02861499786376953,-0.05631065368652344,0.012363731861114502
1771073691551548400,6.07954833984375,-0.04931449890136719,-0.022680044174194336,0.05783015489578247
1771073691561488100,6.089488037109375,-0.06503677368164062,-0.01523280143737793,0.06228435039520264
1771073691571427800,6.099427734375,-0.021623611450195312,-0.05026698112487793,-0.008943736553192139
1771073691581367800,6.109367919921875,0.06341075897216797,-0.04242658615112305,-0.03352266550064087
1771073691591307500,6.1193076171875,0.12118339538574219,0.0024046897888183594,-0.023112773895263672
1771073691601247200,6.129247314453125,0.12640380859375,0.010269880294799805,-0.025674045085906982
1771073691611187200,6.139187255859375,0.08002376556396484,-0.011057138442993164,-0.06342089176177979
1771073691621127000,6.149126953125,0.048870086669921875,-0.04217648506164551,-0.09898734092712402
1771073691631066600,6.159066650390625,0.039592742919921875,-0.03773188591003418,-0.10654091835021973
1771073691641006300,6.16900634765625,0.058587074279785156,-0.021094322204589844,-0.0979377031326294
1771073691650946300,6.1789462890625,0.07474327087402344,-0.008939504623413086,-0.06839001178741455
1771073691660886000,6.188885986328125,0.06946277618408203,-0.01098489761352539,-0.01894998550415039
1771073691670825700,6.19882568359375,0.07145023345947266,-0.055516958236694336,-0.011133313179016113
1771073691680765700,6.208765625,0.04509162902832031,-0.07542133331298828,0.0005468130111694336
1771073691690705400,6.218705322265625,0.04948902130126953,-0.044669151306152344,0.07765990495681763
1771073691700645000,6.22864501953125,0.1006460189819336,-0.01854872703552246,0.11399441957473755
1771073691710585000,6.238585205078125,0.16975116729736328,-0.05877685546875,0.06063234806060791
1771073691720524800,6.24852490234375,0.23081016540527344,-0.10343408584594727,-0.01573246717453003
1771073691730464500,6.258464599609375,0.24190616607666016,-0.0943148136138916,-0.0260927677154541
1771073691740404500,6.268404541015625,0.21807003021240234,-0.07714390754699707,-0.012050807476043701
1771073691750344200,6.27834423828125,0.21149349212646484,-0.09890294075012207,0.015471577644348145
1771073691760284000,6.288283935546875,0.18398094177246094,-0.09747672080993652,0.06272226572036743
1771073691770223900,6.298223876953125,0.12398338317871094,-0.10359477996826172,0.04265385866165161
1771073691780163600,6.30816357421875,0.1096658706665039,-0.06043529510498047,0.017601370811462402
1771073691790103300,6.318103271484375,0.06978607177734375,-0.023055315017700195,0.023942530155181885
1771073691800043000,6.32804296875,0.030757904052734375,-0.021907329559326172,-0.01076573133468628
1771073691809983000,6.33798291015625,-0.09002399444580078,-0.013266324996948242,-0.04669767618179321
1771073691819922700,6.347922607421875,-0.17367172241210938,-0.015581846237182617,-0.046081721782684326
1771073691829862400,6.3578623046875,-0.22793292999267578,-0.009790897369384766,-0.060731709003448486
1771073691839802400,6.36780224609375,-0.17571353912353516,-0.0007386207580566406,-0.1103370189666748
1771073691849742000,6.3777421875,-0.14112186431884766,0.041696786880493164,-0.12764543294906616
1771073691859681800,6.387681884765625,-0.12841129302978516,0.05768918991088867,-0.15575283765792847
1771073691869621800,6.397621826171875,-0.21970367431640625,0.03863859176635742,-0.19034111499786377
1771073691879561500,6.4075615234375,-0.3098287582397461,0.04703330993652344,-0.15241104364395142
1771073691889501200,6.417501220703125,-0.3588857650756836,0.030808448791503906,-0.0898442268371582
1771073691899441200,6.427441162109375,-0.2407245635986328,0.030600309371948242,-0.061630070209503174
1771073691909380900,6.437380859375,-0.1441183090209961,0.03646230697631836,-0.042614519596099854
1771073691919320600,6.447320556640625,-0.00007343292236328125,0.03578376770019531,-0.019575119018554688
1771073691929260500,6.457260498046875,0.09475231170654297,0.010652780532836914,0.018023550510406494
1771073691939200300,6.4672001953125,0.12990188598632812,-0.03721761703491211,0.049675047397613525
1771073691949140000,6.477139892578125,0.014657020568847656,-0.041570186614990234,0.05557483434677124
1771073691959079700,6.48707958984375,-0.12405967712402344,-0.020780086517333984,0.058883726596832275
1771073691969019600,6.49701953125,-0.1711130142211914,0.009739875793457031,0.07009238004684448
1771073691978959400,6.50695947265625,-0.12609481811523438,0.0410761833190918,0.11235660314559937
1771073691988899000,6.516899169921875,-0.06815624237060547,0.06100654602050781,0.09431332349777222
1771073691998839000,6.526839111328125,-0.030182838439941406,0.04549694061279297,0.03762286901473999
1771073692008778800,6.53677880859375,-0.016283035278320312,0.053575754165649414,-0.025493919849395752
1771073692018718500,6.546718505859375,-0.023456573486328125,0.07256937026977539,-0.025021731853485107
1771073692028658400,6.556658447265625,-0.04200267791748047,0.08352446556091309,-0.01800525188446045
1771073692038598100,6.56659814453125,-0.00127410888671875,0.07966232299804688,0.015691161155700684
1771073692048537900,6.576537841796875,0.024518966674804688,0.08253026008605957,0.06616586446762085
1771073692058477800,6.586477783203125,-0.03731060028076172,0.08723640441894531,0.06937545537948608
1771073692068417500,6.59641748046875,-0.05342578887939453,0.05151653289794922,0.04632759094238281
1771073692078357200,6.606357177734375,-0.01981353759765625,0.018444061279296875,0.013073623180389404
1771073692088297000,6.616296875,-0.07614803314208984,0.0282745361328125,0.014997899532318115
1771073692098237000,6.62623681640625,-0.16911792755126953,0.026549816131591797,0.0023534297943115234
1771073692108176600,6.6361767578125,-0.2017536163330078,-0.00012183189392089844,0.007909178733825684
1771073692118116400,6.646116455078125,-0.18001747131347656,-0.025053739547729492,-0.016708552837371826
1771073692128056300,6.656056396484375,-0.022485733032226562,-0.039105892181396484,-0.03130871057510376
1771073692137996000,6.66599609375,0.17692184448242188,-0.010375499725341797,-0.008218228816986084
1771073692147935700,6.675935791015625,0.1825094223022461,0.01016378402709961,-0.018032550811767578
1771073692157875700,6.685875732421875,0.2027111053466797,-0.017676353454589844,-0.04717981815338135
1771073692167815400,6.6958154296875,0.2463693618774414,-0.014437675476074219,-0.03670722246170044
1771073692177755100,6.705755126953125,0.24219322204589844,-0.013136148452758789,0.03763842582702637
1771073692187695000,6.715695068359375,0.21943950653076172,-0.03326559066772461,0.11177313327789307
1771073692197635300,6.72563525390625,0.14090919494628906,-0.05831456184387207,0.09573793411254883
1771073692207575300,6.7355751953125,0.01922893524169922,-0.04314875602722168,0.0753326416015625
1771073692217515000,6.745514892578125,0.026712417602539062,-0.025681257247924805,0.07568758726119995
1771073692227454700,6.755454833984375,0.142120361328125,0.010487079620361328,0.08317333459854126
1771073692237394700,6.765394775390625,0.2036876678466797,0.03364443778991699,0.08537107706069946
1771073692247334400,6.77533447265625,0.1350231170654297,0.033803462982177734,0.050215184688568115
1771073692257274000,6.785274169921875,-0.033326148986816406,0.011658430099487305,0.0014486312866210938
1771073692267214000,6.795214111328125,-0.15421390533447266,0.004401445388793945,0.013973772525787354
1771073692277153800,6.80515380859375,-0.17721176147460938,0.020206928253173828,0.0736204981803894
1771073692287093500,6.815093505859375,-0.07134437561035156,0.028653621673583984,0.15780889987945557
1771073692297033200,6.825033203125,0.041522979736328125,0.005316972732543945,0.1744227409362793
1771073692306973200,6.83497314453125,0.0702524185180664,-0.04862809181213379,0.08949387073516846
1771073692316913000,6.844912841796875,0.0004520416259765625,-0.10331344604492188,0.03849917650222778
1771073692326852600,6.8548525390625,0.061919212341308594,-0.10189652442932129,0.10905194282531738
1771073692336792600,6.86479248046875,0.03058147430419922,-0.046720266342163086,0.17244338989257812
1771073692346732300,6.874732177734375,-0.028820037841796875,-0.029712438583374023,0.16629886627197266
1771073692356672000,6.884672119140625,-0.1039590835571289,-0.028873920440673828,0.13240820169448853
1771073692366612000,6.894612060546875,0.041065216064453125,-0.025379419326782227,0.10291820764541626
1771073692376551700,6.9045517578125,0.18387985229492188,-0.0014808177947998047,0.03687196969985962
1771073692386491400,6.914491455078125,0.24230098724365234,0.051264047622680664,-0.048108458518981934
1771073692396431400,6.924431396484375,0.1683635711669922,0.10186600685119629,-0.1528807282447815
1771073692406371000,6.93437109375,0.0701894760131836,0.0941929817199707,-0.20519810914993286
1771073692416310800,6.944310791015625,-0.07323646545410156,0.07228636741638184,-0.2061353325843811
1771073692426250800,6.954250732421875,-0.17437076568603516,0.05843186378479004,-0.11643195152282715
1771073692436190500,6.9641904296875,-0.2555503845214844,0.05345726013183594,0.016457021236419678
1771073692446130200,6.974130126953125,-0.3126401901245117,0.02473735809326172,0.07250344753265381
1771073692456070000,6.98406982421875,-0.3060111999511719,-0.013177633285522461,0.11164379119873047
1771073692466009900,6.994009765625,-0.27646446228027344,-0.016216278076171875,0.1272076964378357
1771073692475949600,7.003949462890625,-0.18175411224365234,-0.016313552856445312,0.08684402704238892
1771073692485889300,7.01388916015625,-0.07688426971435547,0.020987510681152344,0.10523760318756104
1771073692495829200,7.023829345703125,0.019552230834960938,0.05626821517944336,0.1224830150604248
1771073692505769000,7.03376904296875,0.011447906494140625,0.04653429985046387,0.07213479280471802
1771073692515708700,7.043708740234375,-0.11370372772216797,0.04494333267211914,0.013052761554718018
1771073692525648600,7.053648681640625,-0.22248363494873047,0.08311796188354492,0.017853975296020508
1771073692535588400,7.06358837890625,-0.29225921630859375,0.11725282669067383,0.022711634635925293
1771073692545528000,7.073528076171875,-0.3406858444213867,0.1203622817993164,0.01697671413421631
1771073692555468000,7.083468017578125,-0.36133289337158203,0.11025190353393555,-0.04401862621307373
1771073692565407700,7.09340771484375,-0.2557668685913086,0.08505439758300781,-0.08531218767166138
1771073692575347500,7.103347412109375,-0.0068206787109375,0.013239860534667969,-0.14969098567962646
1771073692585287200,7.113287109375,0.21685218811035156,0.0651845932006836,-0.09639716148376465
1771073692595227100,7.12322705078125,0.25407981872558594,0.06949734687805176,-0.013265788555145264
1771073692605166800,7.133166748046875,0.19760704040527344,0.04550814628601074,-0.03365272283554077
1771073692615106600,7.1431064453125,0.2111501693725586,0.04365277290344238,-0.048640668392181396
1771073692625046500,7.153046630859375,0.28580474853515625,0.0507054328918457,-0.017731070518493652
1771073692634986200,7.162986328125,0.37331581115722656,0.1441504955291748,0.08639121055603027
1771073692644926000,7.172926025390625,0.3066558837890625,0.1357114315032959,0.11124813556671143
1771073692654866000,7.182865966796875,0.20885372161865234,0.03135848045349121,-0.0014144182205200195
1771073692664805600,7.1928056640625,0.2051525115966797,-0.03522086143493652,-0.08732032775878906
1771073692674745300,7.202745361328125,0.21602535247802734,-0.02402329444885254,-0.11090761423110962
1771073692684685300,7.212685302734375,0.18455219268798828,0.05479717254638672,-0.10178273916244507
1771073692694625000,7.222625,0.15124988555908203,0.07852482795715332,-0.12281554937362671
1771073692704564700,7.232564697265625,0.16790390014648438,0.008185386657714844,-0.13590770959854126
1771073692714504700,7.242504638671875,0.17032718658447266,-0.02357196807861328,-0.10749870538711548
1771073692724444400,7.2524443359375,0.10000133514404297,-0.04828476905822754,-0.05946934223175049
1771073692734384000,7.262384033203125,0.009686470031738281,-0.07022452354431152,-0.01972132921218872
1771073692744323800,7.27232373046875,-0.09354972839355469,-0.08626222610473633,-0.013427317142486572
1771073692754263800,7.282263916015625,-0.10373210906982422,-0.0960383415222168,-0.02561056613922119
1771073692764203500,7.29220361328125,-0.09536266326904297,-0.07622551918029785,-0.018227815628051758
1771073692774143200,7.302143310546875,-0.11558151245117188,-0.07733321189880371,-0.020529210567474365
1771073692784083200,7.312083251953125,-0.13793659210205078,-0.08967804908752441,-0.0494767427444458
1771073692794023000,7.32202294921875,-0.12477779388427734,-0.06114673614501953,-0.05742084980010986
1771073692803962600,7.331962646484375,-0.11184501647949219,-0.044797658920288086,-0.05597054958343506
1771073692813902600,7.341902587890625,-0.07300186157226562,-0.05293011665344238,-0.0897977352142334
1771073692823842300,7.35184228515625,0.059688568115234375,-0.08103752136230469,-0.11438262462615967
1771073692833782000,7.361781982421875,0.09874725341796875,-0.05390572547912598,-0.1194114089012146
1771073692843722000,7.371721923828125,0.06224632263183594,-0.061919450759887695,-0.13148927688598633
1771073692853661700,7.38166162109375,-0.01821613311767578,-0.1011507511138916,-0.15149497985839844
1771073692863601400,7.391601318359375,-0.13969993591308594,-0.09501290321350098,-0.13357865810394287
1771073692873541400,7.401541259765625,-0.22636032104492188,-0.08807849884033203,-0.11324197053909302
1771073692883481000,7.411481201171875,-0.17534446716308594,-0.07522344589233398,-0.06929314136505127
1771073692893420800,7.4214208984375,-0.1326160430908203,-0.03775620460510254,-0.0011574625968933105
1771073692903360500,7.431360595703125,-0.041286468505859375,-0.061629533767700195,-0.0053765177726745605
1771073692913300500,7.441300537109375,0.04148101806640625,-0.0780634880065918,-0.07327848672866821
1771073692923240200,7.451240234375,0.1256999969482422,-0.06503987312316895,-0.04801076650619507
1771073692933180000,7.461179931640625,0.14341163635253906,-0.035889387130737305,0.0034031271934509277
1771073692943120000,7.471119873046875,0.060314178466796875,-0.06836676597595215,0.0031526684761047363
1771073692953059600,7.4810595703125,-0.023607254028320312,-0.08228731155395508,0.014230430126190186
1771073692962999300,7.490999267578125,-0.11145877838134766,-0.035953521728515625,0.035087645053863525
1771073692972939300,7.500939208984375,-0.19402408599853516,-0.01638054847717285,0.023951709270477295
1771073692982879000,7.51087890625,-0.2218313217163086,-0.015890121459960938,-0.03986746072769165
1771073692992818700,7.520818603515625,-0.20248985290527344,-0.02306342124938965,-0.07490813732147217
1771073693002758700,7.530758544921875,-0.1247415542602539,-0.059699296951293945,-0.11248385906219482
1771073693012698400,7.540698486328125,0.05989646911621094,-0.03646397590637207,-0.11686074733734131
1771073693022638000,7.55063818359375,0.177947998046875,0.011838912963867188,-0.06800734996795654
1771073693032577800,7.560577880859375,0.17685985565185547,0.0010519027709960938,-0.06833148002624512
1771073693042517800,7.570517822265625,0.08020877838134766,-0.02866649627685547,-0.10203492641448975
1771073693052457500,7.58045751953125,-0.046874046325683594,-0.06502437591552734,-0.11966681480407715
1771073693062397200,7.590397216796875,-0.19723892211914062,-0.0478975772857666,-0.07415586709976196
1771073693072337200,7.600337158203125,-0.27948474884033203,0.005060911178588867,-0.0219343900680542
1771073693082276900,7.61027685546875,-0.32373523712158203,0.0458073616027832,-0.00494760274887085
1771073693092216600,7.620216552734375,-0.28360652923583984,0.06076240539550781,-0.006916642189025879
1771073693102156500,7.630156494140625,-0.1342754364013672,0.03540992736816406,-0.07519352436065674
1771073693112096300,7.64009619140625,-0.02305316925048828,-0.04272723197937012,-0.12615656852722168
1771073693122036000,7.650035888671875,0.08640384674072266,-0.06328344345092773,-0.09397625923156738
1771073693131976000,7.659975830078125,0.1638803482055664,-0.05419325828552246,-0.019831597805023193
1771073693141915600,7.66991552734375,0.13460826873779297,-0.03258872032165527,0.055758535861968994
1771073693151855400,7.67985546875,0.03318023681640625,-0.040517330169677734,0.07331275939941406
1771073693161795300,7.68979541015625,-0.012388229370117188,-0.043666839599609375,0.08587890863418579
1771073693171735000,7.699735107421875,-0.03636741638183594,0.010619878768920898,0.1531328558921814
1771073693181674800,7.7096748046875,0.04076194763183594,0.0699453353881836,0.17353880405426025
1771073693191614500,7.719614501953125,0.10687446594238281,0.07481527328491211,0.11698073148727417
1771073693201554400,7.729554443359375,0.14374828338623047,0.039267539978027344,0.030701518058776855
1771073693211494100,7.739494140625,0.18734455108642578,0.036652565002441406,-0.04081904888153076
1771073693221433900,7.749433837890625,0.18108272552490234,0.09223580360412598,-0.013138413429260254
1771073693231373800,7.759373779296875,0.1209707260131836,0.137223482131958,0.019637882709503174
1771073693241313500,7.7693134765625,0.05236053466796875,0.13013935089111328,0.04604262113571167
1771073693251253200,7.779253173828125,0.052893638610839844,0.10518169403076172,0.048275887966156006
1771073693261193200,7.789193115234375,0.09323406219482422,0.08345341682434082,0.1005864143371582
1771073693271133000,7.7991328125,0.1824207305908203,0.08284521102905273,0.12477177381515503
1771073693281072600,7.80907275390625,0.26358985900878906,0.11353564262390137,0.1255928874015808
1771073693291012600,7.8190126953125,0.18178939819335938,0.12969422340393066,0.12563925981521606
1771073693300952300,7.828952392578125,0.07630729675292969,0.10114026069641113,0.10261625051498413
1771073693310892000,7.83889208984375,-0.015303611755371094,0.08865642547607422,0.08656430244445801
1771073693320832000,7.84883203125,-0.07500267028808594,0.1379408836364746,0.13340699672698975
1771073693330771700,7.858771728515625,-0.10350608825683594,0.15885543823242188,0.11812341213226318
1771073693340711400,7.86871142578125,-0.03296089172363281,0.14228606224060059,0.0529407262802124
1771073693350651100,7.878651123046875,0.010499954223632812,0.1493520736694336,0.013410866260528564
1771073693360591000,7.888591064453125,0.02041912078857422,0.12768101692199707,-0.011494994163513184
1771073693370530800,7.89853076171875,0.08687973022460938,0.10112404823303223,-0.03144252300262451
1771073693380470500,7.908470458984375,0.1311798095703125,0.10987377166748047,-0.015395641326904297
1771073693390410500,7.918410400390625,0.1348743438720703,0.11563754081726074,-0.0323488712310791
1771073693400350200,7.92835009765625,0.15747547149658203,0.08098149299621582,-0.06345933675765991
1771073693410290000,7.9382900390625,0.15390872955322266,0.09390091896057129,-0.10916787385940552
1771073693420230000,7.94822998046875,0.10588455200195312,0.09935784339904785,-0.10436666011810303
1771073693430169600,7.958169677734375,0.075469970703125,0.07834696769714355,-0.1112675666809082
1771073693440109300,7.968109375,0.04353141784667969,0.06878662109375,-0.10978531837463379
1771073693450049300,7.97804931640625,-0.011126518249511719,0.06333446502685547,-0.09442466497421265
1771073693459989000,7.987989013671875,-0.057636260986328125,0.05733799934387207,-0.09500777721405029
1771073693469928700,7.9979287109375,-0.11050796508789062,0.04188990592956543,-0.11257654428482056
1771073693479868400,8.007868408203125,-0.17210769653320312,0.03639411926269531,-0.13079547882080078
1771073693489808400,8.017808349609375,-0.22589111328125,0.03633832931518555,-0.13384079933166504
1771073693499748000,8.027748046875,-0.28611278533935547,0.018395423889160156,-0.16833412647247314
1771073693509687800,8.037687744140625,-0.3079977035522461,-0.0003712177276611328,-0.20136559009552002
1771073693519627800,8.047627685546875,-0.31128978729248047,-0.042817115783691406,-0.20671367645263672
1771073693529567500,8.0575673828125,-0.22593212127685547,-0.04213261604309082,-0.17663726210594177
1771073693539507200,8.067507080078125,-0.1334381103515625,-0.01564168930053711,-0.10649716854095459
1771073693549447200,8.077447265625,-0.019390106201171875,-0.030683040618896484,-0.07543379068374634
1771073693559387000,8.087386962890625,0.06924724578857422,-0.09477758407592773,-0.1096116304397583
1771073693569326600,8.09732666015625,0.09316825866699219,-0.11126184463500977,-0.10269415378570557
1771073693579266600,8.1072666015625,0.11717796325683594,-0.10966372489929199,0.0037156343460083008
1771073693589206300,8.117206298828124,0.10117816925048828,-0.1044623851776123,0.1292368769645691
1771073693599146000,8.12714599609375,0.06673717498779297,-0.15636920928955078,0.1923643946647644
1771073693609086000,8.1370859375,0.02327442169189453,-0.2072763442993164,0.26805031299591064
1771073693619025700,8.147025634765624,-0.0926523208618164,-0.21472430229187012,0.3253505229949951
1771073693628965400,8.15696533203125,-0.11258220672607422,-0.20535969734191895,0.22443068027496338
1771073693638905000,8.166905029296874,-0.1936483383178711,-0.1812434196472168,0.17669451236724854
1771073693648845000,8.176844970703126,-0.08785533905029297,-0.11154651641845703,0.19617891311645508
1771073693658784800,8.18678466796875,-0.12824726104736328,-0.09081220626831055,0.16894561052322388
1771073693668724500,8.196724365234376,-0.077056884765625,-0.12720847129821777,0.05503404140472412
1771073693678664400,8.20666455078125,-0.06732463836669922,-0.1214449405670166,0.009608924388885498
1771073693688604200,8.216604248046876,-0.045960426330566406,-0.06593513488769531,0.01942455768585205
1771073693698543900,8.2265439453125,0.06969356536865234,-0.030855417251586914,-0.0022436976432800293
1771073693708483800,8.23648388671875,0.12757301330566406,-0.05897188186645508,-0.039769649505615234
1771073693718423600,8.246423583984376,0.09088706970214844,-0.07395529747009277,-0.025608420372009277
1771073693728363300,8.25636328125,0.07894039154052734,-0.014992237091064453,0.004667460918426514
1771073693738303200,8.26630322265625,0.020740509033203125,-0.015444278717041016,-0.012104988098144531
1771073693748243000,8.276242919921875,-0.11151695251464844,0.006636142730712891,-0.05389702320098877
1771073693758182700,8.2861826171875,-0.21096420288085938,0.047269582748413086,-0.09303706884384155
1771073693768122600,8.29612255859375,-0.17272377014160156,0.05800056457519531,-0.10275644063949585
1771073693778062300,8.306062255859375,-0.1593761444091797,0.06786584854125977,-0.09878313541412354
1771073693788002300,8.316002197265625,-0.0928802490234375,0.055889129638671875,-0.10021275281906128
1771073693797942000,8.32594189453125,0.035470008850097656,0.043233394622802734,-0.08620893955230713
1771073693807882000,8.335882080078125,0.09099578857421875,0.03116917610168457,-0.05686295032501221
1771073693817821700,8.34582177734375,0.0776968002319336,-0.0068471431732177734,-0.05531322956085205
1771073693827761700,8.35576171875,0.07700252532958984,-0.0050258636474609375,0.0007395148277282715
1771073693837701600,8.36570166015625,0.051032066345214844,0.02146172523498535,0.11930954456329346
1771073693847641300,8.375641357421875,0.011923789978027344,0.015285015106201172,0.18425875902175903
1771073693857581300,8.385581298828125,-0.04041004180908203,0.03383970260620117,0.1753242015838623
1771073693867521000,8.39552099609375,-0.1295614242553711,0.08195877075195312,0.13709783554077148
1771073693877461000,8.4054609375,-0.24551677703857422,0.07691287994384766,0.020045220851898193
1771073693887400700,8.415400634765625,-0.3374185562133789,-0.1235659122467041,-0.1408870816230774
1771073693897340700,8.425340576171875,-0.2791576385498047,0.040606021881103516,-0.02923816442489624
1771073693907280400,8.4352802734375,-0.5978860855102539,0.18494534492492676,0.039409518241882324
1771073693917220400,8.445220458984375,-0.6359310150146484,0.1547563076019287,-0.08249920606613159
1771073693927160000,8.45516015625,-0.5321054458618164,0.09646105766296387,-0.10233414173126221
1771073693937100000,8.46510009765625,-0.30223655700683594,0.06525683403015137,-0.1139482855796814
1771073693947039700,8.475039794921875,-0.07698917388916016,0.023124217987060547,-0.11676841974258423
1771073693956979700,8.484979736328125,0.23403358459472656,0.031487226486206055,-0.010457038879394531
1771073693966919400,8.49491943359375,0.4561471939086914,-0.04058361053466797,0.0503963828086853
1771073693976859400,8.504859375,0.6010227203369141,-0.02681565284729004,0.134049654006958
1771073693986799000,8.514799072265625,0.6394681930541992,0.01422119140625,0.229037344455719
1771073693996739000,8.524739013671875,0.6105403900146484,0.028529644012451172,0.2903096675872803
1771073694006678800,8.5346787109375,0.5712852478027344,-0.013028860092163086,0.288637638092041
1771073694016618800,8.54461865234375,0.4365653991699219,-0.025665283203125,0.23790901899337769
1771073694026558500,8.554558349609374,0.2972736358642578,-0.027704954147338867,0.1557278037071228
1771073694036498400,8.56449853515625,0.19583511352539062,-0.01859760284423828,0.09394305944442749
1771073694046438100,8.574438232421874,0.17392921447753906,-0.03333091735839844,0.05083245038986206
1771073694056377900,8.5843779296875,0.15955734252929688,-0.028998374938964844,0.018959760665893555
1771073694066317800,8.59431787109375,0.11013126373291016,-0.010317564010620117,0.019037485122680664
1771073694076257500,8.604257568359374,0.02369213104248047,-0.0263824462890625,-0.031996846199035645
1771073694086197200,8.614197265625,-0.04541969299316406,-0.028293609619140625,-0.12357926368713379
1771073694096137200,8.62413720703125,-0.09779834747314453,0.027066707611083984,-0.14463946223258972
1771073694106077000,8.634076904296874,-0.0866079330444336,0.03055858612060547,-0.17510482668876648
1771073694116016600,8.6440166015625,-0.031462669372558594,-0.045888423919677734,-0.14502567052841187
1771073694125956600,8.65395654296875,0.13815975189208984,-0.11321568489074707,-0.1433873474597931
1771073694135896300,8.663896240234376,0.28452014923095703,-0.16898155212402344,-0.10656797885894775
1771073694145836000,8.6738359375,0.3990602493286133,-0.09717941284179688,0.03355669975280762
1771073694155776000,8.68377587890625,0.3081092834472656,-0.02493762969970703,0.15855038166046143
1771073694165715700,8.6937158203125,0.21259021759033203,-0.06212496757507324,0.14903217554092407
1771073694175655400,8.703655517578126,0.11711788177490234,-0.19729208946228027,0.0560489296913147
1771073694185595100,8.71359521484375,0.0074024200439453125,-0.3274714946746826,0.03814274072647095
1771073694195535000,8.72353515625,-0.15656280517578125,-0.2546515464782715,0.1261335015296936
1771073694205474800,8.733474853515625,-0.4051046371459961,-0.06521201133728027,0.184697687625885
1771073694215414500,8.74341455078125,-0.5917997360229492,0.06292414665222168,0.09886544942855835
1771073694225354500,8.7533544921875,-0.6433010101318359,0.0840153694152832,0.0179518461227417
1771073694235294200,8.763294189453125,-0.528986930847168,0.03043985366821289,-0.06902694702148438
1771073694245234000,8.77323388671875,-0.3521261215209961,0.02585744857788086,-0.1074400544166565
1771073694255174000,8.783173828125,-0.1410074234008789,-0.013329029083251953,-0.06896251440048218
1771073694265113600,8.793113525390625,0.08086585998535156,-0.017917871475219727,-0.006244301795959473
1771073694275053300,8.80305322265625,0.19805145263671875,0.011112689971923828,-0.04410594701766968
1771073694284993300,8.8129931640625,0.19361019134521484,0.10394787788391113,-0.05840933322906494
1771073694294933000,8.82293310546875,0.1521282196044922,0.07617640495300293,-0.08561688661575317
1771073694304872700,8.832872802734375,0.1540355682373047,0.06971168518066406,-0.12662720680236816
1771073694314812700,8.842812744140625,0.1491098403930664,0.07995271682739258,-0.15648329257965088
1771073694324752400,8.85275244140625,0.22919273376464844,0.12343740463256836,-0.10737419128417969
1771073694334692000,8.862692138671875,0.40973663330078125,0.1202242374420166,-0.058908939361572266
1771073694344631800,8.8726318359375,0.519993782043457,0.09510278701782227,-0.04918581247329712
1771073694354571800,8.88257177734375,0.4907550811767578,0.07091045379638672,-0.05530858039855957
1771073694364511500,8.892511474609375,0.2936563491821289,0.06900143623352051,-0.039024293422698975
1771073694374451200,8.902451171875,0.04622077941894531,0.05349254608154297,-0.022275269031524658
1771073694384391200,8.91239111328125,-0.1243753433227539,0.06695914268493652,-0.027709543704986572
1771073694394331000,8.922330810546875,-0.24596405029296875,0.09923696517944336,-0.014948427677154541
1771073694404270600,8.9322705078125,-0.2158670425415039,0.10346198081970215,-0.01823902130126953
1771073694414210600,8.94221044921875,-0.09984111785888672,0.04619145393371582,-0.028472483158111572
1771073694424150300,8.952150390625,-0.0072650909423828125,0.016972780227661133,-0.015629887580871582
1771073694434090000,8.962090087890624,0.08383750915527344,0.021231412887573242,0.05721640586853027
1771073694444030000,8.972030029296874,0.15028667449951172,0.024397611618041992,0.09945321083068848
1771073694453969700,8.9819697265625,0.17153358459472656,-0.04256868362426758,0.012933850288391113
1771073694463909400,8.991909423828124,0.2634696960449219,-0.08171224594116211,-0.050015032291412354
1771073694473849300,9.001849365234374,0.31647682189941406,-0.04862523078918457,-0.006112098693847656
1771073694483789000,9.0117890625,0.35007286071777344,-0.03163743019104004,0.036592841148376465
1771073694493728800,9.021728759765624,0.28719329833984375,-0.0804445743560791,0.04807931184768677
1771073694503668500,9.03166845703125,0.20253276824951172,-0.16573548316955566,0.07945388555526733
1771073694513608400,9.0416083984375,0.09398460388183594,-0.1875622272491455,0.13002121448516846
1771073694523548200,9.051548095703126,-0.038360595703125,-0.13654446601867676,0.17574656009674072
1771073694533487900,9.06148779296875,-0.14978694915771484,-0.11163139343261719,0.2126815915107727
1771073694543427800,9.071427734375,-0.19626426696777344,-0.11857056617736816,0.19247710704803467
1771073694553367600,9.081367431640626,-0.13194561004638672,-0.11912798881530762,0.16034704446792603
1771073694563307300,9.091307373046876,-0.02444934844970703,-0.10945630073547363,0.14119935035705566
1771073694573247200,9.101247314453126,0.05295753479003906,-0.10978984832763672,0.08015608787536621
1771073694583187000,9.11118701171875,0.12226104736328125,-0.10880875587463379,0.004949390888214111
1771073694593126700,9.121126708984375,0.1744213104248047,-0.135331392288208,-0.019097864627838135
1771073694603066600,9.131066650390625,0.13916778564453125,-0.13014698028564453,-0.00977170467376709
1771073694613006300,9.14100634765625,-0.073883056640625,-0.06992292404174805,0.0007229447364807129
1771073694622946000,9.150946044921875,-0.37964630126953125,-0.036594390869140625,-0.08652406930923462
1771073694632885800,9.1608857421875,-0.5489473342895508,-0.010781049728393555,-0.17905566096305847
1771073694642825700,9.17082568359375,-0.5282058715820312,0.013993978500366211,-0.249516099691391
1771073694652765400,9.180765380859375,-0.36092185974121094,0.012113571166992188,-0.2175830602645874
1771073694662705200,9.190705078125,-0.17592620849609375,0.14399266242980957,-0.17111241817474365
1771073694672645000,9.20064501953125,0.026299476623535156,0.13343000411987305,-0.3668545186519623
1771073694682584800,9.210584716796875,0.2823343276977539,-0.020622968673706055,-0.36924049258232117
1771073694692524500,9.220524658203125,0.26346874237060547,-0.030167818069458008,-0.08031493425369263
1771073694702464500,9.230464599609375,0.02898120880126953,-0.0017168521881103516,0.06127220392227173
1771073694712404200,9.240404296875,-0.18422985076904297,-0.024814367294311523,0.05682772397994995
1771073694722344000,9.250343994140625,-0.25692176818847656,-0.08538436889648438,0.05705296993255615
1771073694732284000,9.260283935546875,-0.21821308135986328,-0.07017064094543457,0.04616266489028931
1771073694742223600,9.2702236328125,-0.1669921875,0.04410147666931152,0.07374179363250732
1771073694752163300,9.280163330078125,-0.06570148468017578,0.0953376293182373,0.06871038675308228
1771073694762103300,9.290103271484375,0.012300491333007812,0.0459284782409668,0.0063002705574035645
1771073694772043000,9.30004296875,0.1737804412841797,0.04471421241760254,-0.07538467645645142
1771073694781982700,9.309982666015625,0.22919464111328125,0.0688323974609375,-0.00278472900390625
1771073694791922400,9.31992236328125,0.21584415435791016,0.08873939514160156,0.11191010475158691
1771073694801862400,9.3298623046875,0.20313453674316406,0.06195783615112305,0.18895405530929565
1771073694811802000,9.339802001953124,0.13196563720703125,0.0391848087310791,0.1827561855316162
1771073694821741800,9.349741943359374,0.008056640625,-0.0006513595581054688,0.16873127222061157
1771073694841621500,9.36962158203125,-0.1372365951538086,0.012833595275878906,0.22780841588974
1771073694851561200,9.379561279296874,-0.20555686950683594,0.04540252685546875,0.15978658199310303
1771073694861501200,9.389501220703124,-0.32047271728515625,0.017940044403076172,0.03474980592727661
1771073694871441000,9.39944091796875,-0.2672758102416992,0.014682292938232422,-0.06612926721572876
1771073694881380600,9.409380615234374,-0.14045143127441406,0.03223586082458496,-0.10921722650527954
1771073694891320600,9.419320556640624,-0.09145450592041016,0.06448888778686523,-0.1600027084350586
1771073694901260300,9.42926025390625,-0.033751487731933594,0.06563806533813477,-0.22553229331970215
1771073694911200000,9.439199951171876,-0.03089618682861328,0.05946826934814453,-0.19574123620986938
1771073694921140000,9.449139892578126,-0.056235313415527344,0.0323948860168457,-0.13570845127105713
1771073694931079700,9.45907958984375,-0.057646751403808594,0.006176948547363281,-0.07095903158187866
1771073694941019400,9.469019287109376,-0.026276588439941406,-0.0025784969329833984,0.028159797191619873
1771073694950959000,9.478958984375,0.07741737365722656,-0.003910064697265625,0.12408608198165894
1771073694960899000,9.488899169921876,0.13471603393554688,-0.0008995532989501953,0.11812645196914673
1771073694970838800,9.4988388671875,0.19154644012451172,0.0030896663665771484,0.08371245861053467
1771073694980778500,9.508778564453126,0.1801128387451172,-0.040247201919555664,-0.00761336088180542
1771073694990718500,9.518718505859376,0.12479782104492188,-0.03995156288146973,-0.03413820266723633
1771073695000658200,9.528658203125,0.02591228485107422,0.011241912841796875,0.03259390592575073
1771073695010598000,9.538597900390625,-0.1137685775756836,-0.01840376853942871,-0.009435653686523438
1771073695020537900,9.548537841796875,-0.19031906127929688,-0.025214672088623047,-0.024770736694335938
1771073695030477600,9.5584775390625,-0.18392276763916016,-0.027633190155029297,-0.0014489293098449707
1771073695040417300,9.568417236328125,-0.15246105194091797,-0.021033287048339844,-0.006097614765167236
1771073695050357200,9.578357177734375,-0.18547534942626953,-0.017926692962646484,-0.04471004009246826
1771073695060297000,9.588296875,-0.1944561004638672,-0.05648374557495117,-0.03836697340011597
1771073695070236700,9.598236572265625,-0.1305103302001953,-0.051058292388916016,0.0037845969200134277
1771073695080176600,9.6081767578125,-0.035015106201171875,-0.002486705780029297,0.0434529185295105
1771073695090116400,9.618116455078125,-0.007258415222167969,0.007988929748535156,0.027198970317840576
1771073695100056000,9.62805615234375,-0.0528106689453125,-0.0550687313079834,-0.0052986741065979
1771073695109995800,9.637995849609375,-0.05249595642089844,-0.09200930595397949,-0.031282663345336914
1771073695119935700,9.647935791015625,-0.07309818267822266,-0.08665585517883301,-0.06900280714035034
1771073695129875500,9.65787548828125,-0.07458019256591797,-0.038918495178222656,-0.06103324890136719
1771073695139815200,9.667815185546875,0.010715484619140625,-0.026599407196044922,-0.07997602224349976
1771073695149755100,9.677755126953125,0.1553058624267578,-0.03966927528381348,-0.13779127597808838
1771073695159694800,9.68769482421875,0.25270652770996094,-0.043459177017211914,-0.09581232070922852
1771073695169634600,9.697634521484375,0.3114957809448242,-0.12665486335754395,-0.08590805530548096
1771073695179574500,9.707574462890625,0.1514892578125,-0.07896852493286133,-0.05207186937332153
1771073695189514200,9.71751416015625,0.26378345489501953,-0.004082918167114258,0.07331383228302002
1771073695199454000,9.727453857421875,0.23871421813964844,-0.08849167823791504,0.05846428871154785
1771073695209394000,9.737393798828125,0.1653432846069336,-0.11457276344299316,0.05991792678833008
1771073695219333600,9.747333740234374,0.13348007202148438,-0.10582399368286133,0.03403395414352417
1771073695229273300,9.7572734375,-0.03431129455566406,-0.045734405517578125,0.023095786571502686
1771073695239213000,9.767213134765624,-0.19010543823242188,0.11077380180358887,0.13137531280517578
1771073695249153000,9.777153076171874,-0.2358541488647461,0.11632943153381348,0.1630377173423767
1771073695259092700,9.7870927734375,-0.20656585693359375,0.0584259033203125,0.1091422438621521
1771073695269032400,9.797032470703124,-0.20442962646484375,-0.008531808853149414,0.06501299142837524
1771073695278972400,9.806972412109374,-0.19787216186523438,-0.02191901206970215,0.04539000988006592
1771073695288912100,9.816912109375,-0.0926828384399414,0.021737337112426758,0.02879178524017334
1771073695298851800,9.826851806640626,-0.0011911392211914062,0.045767784118652344,0.02187943458557129
1771073695308791800,9.836791748046876,0.057964324951171875,0.04797077178955078,-0.007297217845916748
1771073695318731500,9.8467314453125,-0.018304824829101562,0.015014171600341797,-0.03852754831314087
1771073695328671200,9.856671142578126,-0.10521221160888672,-0.04967021942138672,-0.09166675806045532
1771073695338611200,9.866611083984376,-0.09643936157226562,-0.05159759521484375,-0.054863572120666504
1771073695348551000,9.876551025390626,-0.038631439208984375,-0.0006182193756103516,0.0244903564453125
1771073695358490600,9.88649072265625,0.07439804077148438,0.029230356216430664,0.08831435441970825
1771073695368430600,9.8964306640625,0.12197494506835938,0.03973507881164551,0.11585545539855957
1771073695378370300,9.906370361328126,0.21167945861816406,-0.045432329177856445,0.06202554702758789
1771073695388310000,9.91631005859375,0.2490224838256836,-0.07038617134094238,0.048297226428985596
1771073695398249700,9.926249755859375,0.1831836700439453,-0.029466867446899414,0.12163388729095459
1771073695408189700,9.936189697265625,0.1306905746459961,-0.0073010921478271484,0.12896233797073364
1771073695418129400,9.94612939453125,0.048607826232910156,-0.0028040409088134766,0.05808424949645996
1771073695428069400,9.9560693359375,0.0055179595947265625,0.008461236953735352,0.011149585247039795
1771073695438009000,9.966009033203125,0.00559234619140625,-0.009090662002563477,-0.036398470401763916
1771073695447949000,9.975948974609375,-0.015324592590332031,-0.01728653907775879,-0.010938167572021484
1771073695457888800,9.985888671875,-0.03823280334472656,-0.006285190582275391,-0.05291104316711426
1771073695467828700,9.995828857421875,-0.0940103530883789,0.024179935455322266,-0.11999982595443726
1771073695477768400,10.0057685546875,-0.05526447296142578,0.020508527755737305,-0.2004665732383728
1771073695487708400,10.01570849609375,-0.005665779113769531,0.034505367279052734,-0.21535205841064453
1771073695497648000,10.025648193359375,0.12587356567382812,0.05505704879760742,-0.21920806169509888
1771073695507588000,10.035588134765625,0.16867733001708984,0.046079158782958984,-0.17401432991027832
1771073695517527800,10.04552783203125,0.15952110290527344,0.03617548942565918,-0.06313854455947876
1771073695527467800,10.0554677734375,0.08266448974609375,0.046651601791381836,0.07583737373352051
1771073695537407500,10.065407470703125,-0.002315521240234375,0.0214540958404541,0.1498296856880188
1771073695547347500,10.075347412109375,-0.03907012939453125,-0.003064393997192383,0.1331462860107422
1771073695557287200,10.085287109375,-0.06845283508300781,-0.01985454559326172,0.11234015226364136
1771073695567227100,10.09522705078125,-0.010394096374511719,0.001203775405883789,0.06373625993728638
1771073695577166800,10.105166748046875,0.02074146270751953,0.028747081756591797,-0.022282660007476807
1771073695587106800,10.11510693359375,-0.00039005279541015625,0.09098267555236816,-0.1065899133682251
1771073695597046500,10.125046630859375,0.09692764282226562,0.10188865661621094,-0.13831067085266113
1771073695606986500,10.134986572265625,0.10374641418457031,0.07579493522644043,-0.16020208597183228
1771073695616926200,10.14492626953125,0.00035572052001953125,0.07246828079223633,-0.14036202430725098
1771073695626866200,10.1548662109375,-0.004549980163574219,0.02643561363220215,-0.14997458457946777
1771073695636806000,10.164805908203125,0.1106576919555664,0.040079355239868164,-0.0506824254989624
1771073695646745900,10.174745849609375,0.1465892791748047,0.09029126167297363,0.014196991920471191
1771073695656685600,10.184685546875,0.06275081634521484,0.0507054328918457,0.0053438544273376465
1771073695666625500,10.19462548828125,0.009271621704101562,0.012863636016845703,-0.01747196912765503
1771073695676565200,10.204565185546874,-0.07833385467529297,0.00803232192993164,-0.007401525974273682
1771073695686505200,10.214505126953124,-0.16239356994628906,-0.024403810501098633,-0.02943319082260132
1771073695696445000,10.22444482421875,-0.22193527221679688,-0.008173465728759766,0.0036980509757995605
1771073695706385000,10.234385009765624,-0.21248340606689453,0.03450179100036621,0.10430872440338135
1771073695716324900,10.244324951171874,-0.19628047943115234,0.03696703910827637,0.12760746479034424
1771073695726264600,10.2542646484375,-0.24625396728515625,-0.0004394054412841797,0.04622018337249756
1771073695736204300,10.264204345703124,-0.2436237335205078,0.007672309875488281,-0.04338866472244263
1771073695746144000,10.27414404296875,-0.2556438446044922,0.03317856788635254,-0.11170554161071777
1771073695756084000,10.284083984375,-0.2423267364501953,0.055117130279541016,-0.17712026834487915
1771073695766023700,10.294023681640626,-0.2416839599609375,0.0852203369140625,-0.16020715236663818
1771073695775963400,10.30396337890625,-0.21353721618652344,0.02704143524169922,-0.12634527683258057
1771073695785903400,10.3139033203125,-0.08936882019042969,-0.041478872299194336,-0.03117281198501587
1771073695795843000,10.323843017578126,0.16989421844482422,-0.03930521011352539,0.04867285490036011
1771073695805782800,10.33378271484375,0.3455619812011719,-0.0039713382720947266,0.1378483772277832
1771073695815722800,10.34372265625,0.3279848098754883,0.003298521041870117,0.15818756818771362
1771073695825662500,10.353662353515626,0.20253467559814453,0.0024809837341308594,0.21647512912750244
1771073695835602200,10.363602294921876,0.04158210754394531,-0.012663602828979492,0.26240217685699463
1771073695845542100,10.373542236328126,-0.09098434448242188,-0.04095578193664551,0.2571074366569519
1771073695855481900,10.38348193359375,-0.18428707122802734,-0.06226396560668945,0.18925970792770386
1771073695865421600,10.393421630859375,-0.15680503845214844,-0.040953636169433594,0.1356806755065918
1771073695875361300,10.403361328125,-0.06707096099853516,0.06439781188964844,0.10214376449584961
1771073695885301200,10.41330126953125,-0.043457984924316406,0.0926063060760498,0.030235588550567627
1771073695895241000,10.423240966796875,-0.04465961456298828,0.09880447387695312,-0.06826722621917725
1771073695905180700,10.4331806640625,-0.07721805572509766,0.059746503829956055,-0.14208602905273438
1771073695915120600,10.44312060546875,-0.12854576110839844,-0.0055332183837890625,-0.11227983236312866
1771073695925060400,10.453060302734375,-0.12816619873046875,0.026665925979614258,0.013668358325958252
1771073695935000000,10.463,-0.12903118133544922,0.08684825897216797,0.12032407522201538
1771073695944940000,10.47293994140625,-0.11684703826904297,0.10840940475463867,0.09912174940109253
1771073695954879700,10.482879638671875,-0.15770816802978516,0.06599760055541992,0.05582082271575928
1771073695964819500,10.4928193359375,-0.15206050872802734,0.015235424041748047,0.022080302238464355
1771073695974759400,10.502759521484375,-0.16436004638671875,0.04601097106933594,0.06620466709136963
1771073695984699100,10.51269921875,-0.1614208221435547,0.09599423408508301,0.10209566354751587
1771073695994638800,10.522638916015625,-0.07073211669921875,0.10657978057861328,0.08770197629928589
1771073696004578800,10.532578857421875,0.0831613540649414,0.12460517883300781,0.06560462713241577
1771073696014518500,10.5425185546875,0.1804065704345703,0.09071803092956543,0.0412367582321167
1771073696024458200,10.552458251953125,0.1945953369140625,-0.02206897735595703,-0.01990717649459839
1771073696034398000,10.56239794921875,0.16487884521484375,-0.04563450813293457,0.012546002864837646
1771073696044338000,10.572337890625,-0.014761924743652344,0.003614187240600586,0.12761425971984863
1771073696054277600,10.582277587890625,-0.2247915267944336,0.13321757316589355,0.2675514817237854
1771073696064217300,10.59221728515625,-0.48404979705810547,0.543304443359375,0.41768544912338257
1771073696074157300,10.6021572265625,-0.4499092102050781,0.01647043228149414,-0.11923372745513916
1771073696084097000,10.612096923828124,0.47441959381103516,-0.5431711673736572,-0.3195306062698364
1771073696094036700,10.62203662109375,1.1437702178955078,-0.4807910919189453,0.035649001598358154
1771073696103976700,10.631976806640624,0.9802656173706055,-0.22548484802246094,0.273215115070343
1771073696113916400,10.64191650390625,0.29203319549560547,-0.072967529296875,0.06876474618911743
1771073696123856100,10.651856201171874,-0.21079635620117188,-0.0658259391784668,-0.12984037399291992
1771073696133796000,10.661796142578124,-0.3133268356323242,0.001466989517211914,-0.09688940644264221
1771073696143735800,10.67173583984375,-0.294891357421875,0.07529067993164062,0.018219590187072754
1771073696153675500,10.681675537109374,-0.31976795196533203,0.09394264221191406,0.10763657093048096
1771073696163615500,10.691615478515626,-0.22341346740722656,-0.031421661376953125,-0.010967016220092773
1771073696173555200,10.70155517578125,0.02203369140625,-0.12785720825195312,-0.11254987120628357
1771073696183495000,10.711494873046876,0.1822795867919922,-0.10035109519958496,-0.05639132857322693
1771073696193434600,10.7214345703125,0.2709388732910156,-0.06796622276306152,-0.03280094265937805
1771073696203374600,10.73137451171875,0.24187850952148438,-0.018904685974121094,-0.05904027819633484
1771073696213314300,10.741314208984376,0.14597702026367188,0.04525136947631836,-0.09425672888755798
1771073696223254000,10.75125390625,-0.06555652618408203,0.0807795524597168,-0.11950546503067017
1771073696233194000,10.761194091796876,-0.20290374755859375,0.05891847610473633,-0.17349815368652344
1771073696243133700,10.7711337890625,-0.2346668243408203,0.0450739860534668,-0.19453221559524536
1771073696253073400,10.781073486328125,-0.2712211608886719,0.07535052299499512,-0.16001230478286743
1771073696263013400,10.791013427734375,-0.20649051666259766,0.07834553718566895,-0.1586804986000061
1771073696272953000,10.800953125,-0.18782806396484375,0.06327199935913086,-0.19345489144325256
1771073696282892800,10.810892822265625,-0.21203899383544922,0.03514266014099121,-0.18985781073570251
1771073696292832800,10.820832763671875,-0.17247390747070312,0.029502153396606445,-0.17208057641983032
1771073696302772500,10.8307724609375,-0.13382911682128906,0.039002418518066406,-0.09727910161018372
1771073696312712200,10.840712158203125,-0.16942691802978516,0.05488872528076172,-0.029592245817184448
1771073696322652200,10.850652099609375,-0.20488739013671875,0.03660917282104492,0.014649450778961182
1771073696332591900,10.860591796875,-0.19549846649169922,-0.017611265182495117,-0.006229609251022339
1771073696342531600,10.870531494140625,-0.04553031921386719,0.008092880249023438,0.054275840520858765
1771073696352471300,10.88047119140625,0.06403446197509766,0.05021023750305176,0.09965837001800537
1771073696362411300,10.890411376953125,0.054200172424316406,0.04875493049621582,0.08646062016487122
1771073696372351000,10.90035107421875,0.033202171325683594,0.00850820541381836,0.07317423820495605
1771073696382290700,10.910290771484375,0.01999664306640625,-0.027307510375976562,0.08082452416419983
1771073696392230700,10.920230712890625,0.023519515991210938,-0.060358285903930664,0.056343257427215576
1771073696402170400,10.93017041015625,0.10674476623535156,-0.06648588180541992,-0.010039836168289185
1771073696412110000,10.940110107421875,0.17428016662597656,0.010179996490478516,-0.024153441190719604
1771073696422050000,10.950050048828125,0.1489238739013672,0.012595415115356445,-0.04824051260948181
1771073696431989800,10.95998974609375,0.14556217193603516,-0.04217720031738281,-0.07237735390663147
1771073696441929500,10.969929443359375,0.19925308227539062,-0.07586121559143066,-0.01859256625175476
1771073696451869400,10.979869384765625,0.23625469207763672,-0.05195307731628418,0.06894892454147339
1771073696461809200,10.98980908203125,0.16271209716796875,-0.05404067039489746,0.06326374411582947
1771073696471748900,10.999748779296874,0.05558586120605469,-0.0575714111328125,-0.005590498447418213
1771073696481688600,11.0096884765625,-0.00027942657470703125,0.002321958541870117,0.007486909627914429
1771073696491628500,11.019628662109374,-0.0718526840209961,0.04736924171447754,0.05452343821525574
1771073696501568300,11.029568359375,-0.116729736328125,0.01963067054748535,0.01959240436553955
1771073696511508000,11.039508056640624,-0.11881351470947266,-0.004505634307861328,-0.022965669631958008
1771073696521448000,11.049447998046874,-0.14937973022460938,-0.018032312393188477,-0.0602719783782959
1771073696531387600,11.0593876953125,-0.13016796112060547,-0.01660466194152832,-0.07879981398582458
1771073696541327400,11.069327392578124,-0.05039024353027344,-0.02362227439880371,-0.05725973844528198
1771073696551267300,11.079267333984374,0.1100149154663086,-0.0011932849884033203,-0.010973513126373291
1771073696561207000,11.08920703125,0.20648574829101562,0.01144719123840332,0.042759865522384644
1771073696571146800,11.099146728515626,0.22171592712402344,-0.0572202205657959,-0.0017853975296020508
1771073696581086700,11.109086669921876,0.18779754638671875,-0.13301324844360352,-0.10465270280838013
1771073696591026400,11.1190263671875,0.18065547943115234,-0.09034132957458496,-0.04373157024383545
1771073696600966100,11.128966064453126,0.13593482971191406,-0.03857016563415527,0.10359084606170654
1771073696610906000,11.138906005859376,0.13173770904541016,-0.04559898376464844,0.1860378384590149
1771073696620845800,11.148845703125,0.2050790786743164,-0.08005356788635254,0.21519750356674194
1771073696630785500,11.15878564453125,0.34801673889160156,-0.07454490661621094,0.26341745257377625
1771073696640725200,11.168725341796875,0.3433675765991211,-0.059639930725097656,0.28061649203300476
1771073696650665200,11.178665283203125,0.3162965774536133,-0.08796119689941406,0.21664822101593018
1771073696660605000,11.18860498046875,0.24603271484375,-0.09302020072937012,0.1388789415359497
1771073696670544600,11.198544677734375,0.07863807678222656,-0.038515567779541016,0.16615372896194458
1771073696680484600,11.208484619140625,-0.0743408203125,0.03193521499633789,0.2240309715270996
1771073696690424300,11.21842431640625,-0.11460304260253906,0.0012938976287841797,0.23237496614456177
1771073696700364000,11.228364013671875,-0.14757156372070312,-0.013582706451416016,0.2393537163734436
1771073696710304000,11.238303955078125,-0.19182968139648438,-0.025603294372558594,0.24122178554534912
1771073696720243700,11.24824365234375,-0.13388729095458984,-0.04979228973388672,0.20500749349594116
1771073696730183400,11.258183349609375,-0.02706432342529297,-0.02075648307800293,0.21251296997070312
1771073696740123400,11.268123291015625,0.04776763916015625,0.04865407943725586,0.2477806806564331
1771073696750063000,11.27806298828125,0.011239051818847656,0.056220054626464844,0.25085002183914185
1771073696760002800,11.2880029296875,-0.03833580017089844,-0.02017831802368164,0.20242798328399658
1771073696769942800,11.29794287109375,-0.06808090209960938,-0.07945895195007324,0.2121800184249878
1771073696779882500,11.307882568359375,-0.09525775909423828,-0.06884932518005371,0.31241416931152344
1771073696789822200,11.317822265625,-0.049590110778808594,-0.04285764694213867,0.3797175884246826
1771073696799762000,11.327761962890625,0.020638465881347656,-0.05829310417175293,0.3486931324005127
1771073696809702000,11.337701904296875,0.13399314880371094,-0.08411908149719238,0.2554575204849243
1771073696819641600,11.3476416015625,0.22886371612548828,-0.05252480506896973,0.2336040735244751
1771073696829581300,11.357581298828125,0.2281970977783203,-0.02638864517211914,0.23577481508255005
1771073696839521300,11.367521240234375,0.2467498779296875,-0.05545783042907715,0.20474618673324585
1771073696849461000,11.3774609375,0.32642173767089844,-0.09641146659851074,0.11518865823745728
1771073696859400700,11.387400634765624,0.38124752044677734,-0.03582286834716797,0.09000349044799805
1771073696869340700,11.397340576171874,0.3482189178466797,0.027800798416137695,0.04739952087402344
1771073696879280400,11.4072802734375,0.3206644058227539,0.0027294158935546875,-0.049131155014038086
1771073696889220000,11.41722021484375,0.2536964416503906,-0.022137165069580078,-0.09110504388809204
1771073696899160000,11.42716015625,0.18792724609375,-0.018291473388671875,-0.051497817039489746
1771073696909099800,11.437099853515624,0.1256275177001953,-0.03784298896789551,-0.06814950704574585
1771073696919039500,11.44703955078125,0.07361888885498047,-0.054009437561035156,-0.07868874073028564
1771073696928979500,11.4569794921875,0.05290794372558594,-0.04813265800476074,-0.10595163702964783
1771073696938919200,11.466919189453124,0.013669013977050781,-0.03735542297363281,-0.1125357449054718
1771073696948859100,11.476859130859374,0.048195838928222656,-0.03638505935668945,-0.12222769856452942
1771073696958798800,11.486798828125,0.023519515991210938,-0.03601479530334473,-0.10385820269584656
1771073696968738800,11.49673876953125,-0.024141311645507812,-0.08087563514709473,-0.14890724420547485
1771073696978678500,11.506678466796876,-0.06403827667236328,-0.08493399620056152,-0.16828760504722595
1771073696988618500,11.516618408203126,-0.15046405792236328,-0.04631638526916504,-0.1845175325870514
1771073696998558200,11.52655810546875,-0.22385787963867188,-0.03597736358642578,-0.22686490416526794
1771073697008498200,11.536498291015626,-0.28937435150146484,-0.05274820327758789,-0.2952217161655426
1771073697018438100,11.546438232421876,-0.31444549560546875,-0.041332244873046875,-0.3488810062408447
1771073697028377900,11.5563779296875,-0.32590293884277344,-0.04626750946044922,-0.37354302406311035
1771073697038317800,11.56631787109375,-0.21562671661376953,-0.041561126708984375,-0.35773101449012756
1771073697048257500,11.576257568359376,-0.16917991638183594,-0.03236031532287598,-0.3562376797199249
1771073697058197500,11.586197509765626,-0.09810638427734375,-0.04069709777832031,-0.3713669776916504
1771073697068137200,11.59613720703125,-0.10838699340820312,-0.04587531089782715,-0.34315812587738037
1771073697078077200,11.6060771484375,-0.12543487548828125,-0.0202023983001709,-0.27341175079345703
1771073697088017000,11.616016845703125,-0.0668020248413086,0.024112939834594727,-0.14327454566955566
1771073697097956900,11.625956787109375,-0.07047843933105469,0.023380517959594727,-0.050742387771606445
1771073697107896600,11.635896484375,-0.008536338806152344,0.06355118751525879,0.05805528163909912
1771073697117836500,11.64583642578125,0.08031654357910156,0.09160542488098145,0.18481093645095825
1771073697127776300,11.6557763671875,0.10646820068359375,0.07612395286560059,0.19096869230270386
1771073697137716200,11.66571630859375,0.2312145233154297,0.029045820236206055,0.10478460788726807
1771073697147656000,11.675656005859375,0.3281879425048828,0.07767724990844727,0.058245182037353516
1771073697157596000,11.685595947265625,0.35327625274658203,0.12371182441711426,-0.01418834924697876
1771073697167535600,11.69553564453125,0.3573951721191406,0.10327982902526855,-0.16387200355529785
1771073697177475600,11.7054755859375,0.30330657958984375,0.07884597778320312,-0.2643212676048279
1771073697187415300,11.715415283203125,0.21775245666503906,0.06046175956726074,-0.3151324987411499
1771073697197355300,11.725355224609375,0.10334300994873047,0.07253813743591309,-0.37002813816070557
1771073697207295000,11.735294921875,-0.025636672973632812,0.08493971824645996,-0.3563169240951538
1771073697217235000,11.74523486328125,-0.10564994812011719,0.04898405075073242,-0.3527703881263733
1771073697227174700,11.755174560546875,-0.1611928939819336,0.01522517204284668,-0.339901328086853
1771073697237114400,11.7651142578125,-0.2324962615966797,0.013637781143188477,-0.25193968415260315
1771073697247054300,11.775054443359375,-0.28141307830810547,-0.008802175521850586,-0.1816282570362091
1771073697256994000,11.784994140625,-0.36942291259765625,-0.026237964630126953,-0.10461217164993286
1771073697266933800,11.794933837890625,-0.4582643508911133,-0.01748037338256836,-0.011003434658050537
1771073697276873700,11.804873779296875,-0.43529224395751953,-0.005855083465576172,0.05457103252410889
1771073697286813400,11.8148134765625,-0.3896169662475586,-0.038487911224365234,0.0949200987815857
1771073697296753200,11.824753173828125,-0.30972862243652344,-0.020917892456054688,0.10864990949630737
1771073697306693000,11.834693115234375,-0.24520397186279297,-0.009222269058227539,0.12807172536849976
1771073697316632800,11.8446328125,-0.21416282653808594,-0.05146217346191406,0.11375057697296143
1771073697326572500,11.854572509765624,-0.17606639862060547,-0.09943914413452148,0.04699361324310303
1771073697336512500,11.864512451171874,-0.1335773468017578,-0.04407382011413574,0.08573716878890991
1771073697346452200,11.8744521484375,-0.12926578521728516,0.02399444580078125,0.14937660098075867
1771073697356392000,11.884391845703124,-0.1366729736328125,0.024961471557617188,0.1559123992919922
1771073697366331600,11.89433154296875,-0.11545372009277344,-0.005004167556762695,0.14787176251411438
1771073697376271600,11.904271728515624,-0.09438610076904297,0.007696866989135742,0.1845492124557495
1771073697386211300,11.91421142578125,-0.05721092224121094,0.0487215518951416,0.18153399229049683
1771073697396151000,11.924151123046874,0.02119731903076172,0.11650776863098145,0.17153480648994446
1771073697406091000,11.934091064453124,0.13536643981933594,0.17065215110778809,0.20987826585769653
1771073697416030700,11.94403076171875,0.30376434326171875,0.17763757705688477,0.19520094990730286
1771073697425970400,11.953970458984376,0.37042903900146484,0.13504958152770996,0.10649606585502625
1771073697435910400,11.963910400390626,0.5023069381713867,0.10615324974060059,0.03546798229217529
1771073697445850000,11.97385009765625,0.6397380828857422,0.14164423942565918,0.012620627880096436
1771073697455789800,11.983789794921876,0.719329833984375,0.16205358505249023,-0.012900888919830322
1771073697465729800,11.993729736328126,0.7070093154907227,0.17871809005737305,-0.08436810970306396
1771073697475669500,12.00366943359375,0.5786275863647461,0.16541171073913574,-0.1601937711238861
1771073697485609200,12.013609130859376,0.35720062255859375,0.13736963272094727,-0.2021336555480957
1771073697495549200,12.023549072265626,0.13807296752929688,0.1548776626586914,-0.20376235246658325
1771073697505489000,12.033489013671876,-0.03710460662841797,0.21899771690368652,-0.1311410665512085
1771073697515428600,12.0434287109375,-0.23553752899169922,0.19588303565979004,-0.1349441409111023
1771073697525368300,12.053368408203125,-0.35141563415527344,0.10723352432250977,-0.2535426616668701
1771073697535308300,12.063308349609375,-0.3556022644042969,0.10957026481628418,-0.25789791345596313
1771073697545248000,12.073248046875,-0.35103893280029297,0.137434720993042,-0.2424161434173584
1771073697555187700,12.083187744140625,-0.3233489990234375,0.11872172355651855,-0.23162105679512024
1771073697565127700,12.093127685546875,-0.3456296920776367,0.025084257125854492,-0.22247359156608582
1771073697575067400,12.1030673828125,-0.4242391586303711,-0.014926433563232422,-0.1267423927783966
1771073697585007000,12.113007080078125,-0.567875862121582,-0.025327444076538086,-0.062350183725357056
1771073697594947000,12.122947021484375,-0.6628665924072266,-0.11625337600708008,-0.02080690860748291
1771073697604886800,12.13288671875,-0.5645160675048828,-0.20046472549438477,-0.18218877911567688
1771073697614826500,12.142826416015625,-0.6225595474243164,-0.18276619911193848,-0.28348487615585327
1771073697624766500,12.152766357421875,-0.5826559066772461,-0.13905549049377441,-0.24476875364780426
1771073697644646000,12.17264599609375,-0.09174823760986328,-0.17217373847961426,-0.29422301054000854
1771073697654585900,12.1825859375,0.2978506088256836,-0.23193740844726562,-0.24562868475914001
1771073697664525600,12.192525634765625,0.5578327178955078,-0.26938819885253906,-0.1671942174434662
1771073697674465300,12.20246533203125,0.6182565689086914,-0.30606555938720703,-0.028525561094284058
1771073697684405000,12.212405029296875,0.45661354064941406,-0.30423521995544434,0.1430644989013672
