time,seconds_elapsed,z,y,x
1771073685577722600,0.10572265625,-0.014514217153191566,0.15206637978553772,0.13768532872200012
1771073685587658500,0.115658447265625,-0.009187898598611355,0.18508955836296082,0.15472954511642456
1771073685597595000,0.125594970703125,-0.014514217153191566,0.18295903503894806,0.16431692242622375
1771073685607531800,0.13553173828125,-0.015579480677843094,0.15845796465873718,0.15472954511642456
1771073685617469400,0.145469482421875,-0.030493171885609627,0.14141374826431274,0.13981585204601288
1771073685627408000,0.155407958984375,-0.06138581782579422,0.14247901737689972,0.12703268229961395
1771073685637347000,0.16534716796875,-0.09227846562862396,0.14567480981349945,0.10253162682056427
1771073685647286800,0.175286865234375,-0.10719215124845505,0.14567480981349945,0.05992107838392258
1771073685657227500,0.1852275390625,-0.10186583548784256,0.12650005519390106,0.00985368900001049
1771073685667168800,0.195168701171875,-0.07523424178361893,0.07004108279943466,-0.04340949282050133
1771073685677110500,0.205110595703125,-0.0294279083609581,-0.015180006623268127,-0.09454214572906494
1771073685687052800,0.215052734375,0.028096329420804977,-0.11424952745437622,-0.1531316488981247
1771073685696995600,0.22499560546875,0.0834900364279747,-0.19627483189105988,-0.22024326026439667
1771073685706938400,0.2349384765625,0.12397005409002304,-0.26338642835617065,-0.28202855587005615
1771073685716881400,0.24488134765625,0.15166690945625305,-0.29640960693359375,-0.3278348743915558
1771073685726824000,0.254823974609375,0.17616797983646393,-0.2697780132293701,-0.3448790907859802
1771073685736763600,0.264763671875,0.1964079886674881,-0.18881797790527344,-0.3352917432785034
1771073685746703600,0.27470361328125,0.21238693594932556,-0.07163897901773453,-0.29694223403930664
1771073685756643300,0.284643310546875,0.21877852082252502,0.0870852991938591,-0.22663484513759613
1771073685766583000,0.2945830078125,0.21451745927333832,0.2468748539686203,-0.12543480098247528
1771073685776522800,0.304522705078125,0.20919114351272583,0.3747064769268036,-0.0018642114009708166
1771073685786462700,0.314462646484375,0.20279955863952637,0.45247071981430054,0.12809795141220093
1771073685796402400,0.32440234375,0.19001640379428864,0.5004075765609741,0.2474074810743332
1771073685806342100,0.334342041015625,0.1687111258506775,0.5440834164619446,0.33369383215904236
1771073685816282000,0.3442822265625,0.14101427793502808,0.5952160358428955,0.3880222737789154
1771073685826221800,0.354221923828125,0.10799109935760498,0.6410223841667175,0.41465386748313904
1771073685836161500,0.36416162109375,0.06538055837154388,0.6516750454902649,0.4071970283985138
1771073685846101500,0.3741015625,0.014247900806367397,0.6058686971664429,0.35286858677864075
1771073685856041200,0.384041259765625,-0.047537390142679214,0.49827706813812256,0.24314641952514648
1771073685865981000,0.39398095703125,-0.1093226820230484,0.3640538454055786,0.09400951862335205
1771073685875921000,0.4039208984375,-0.1657816469669342,0.20319904386997223,-0.06258423626422882
1771073685885860600,0.413860595703125,-0.20519641041755676,0.035952646285295486,-0.19680745899677277
1771073685895800300,0.42380029296875,-0.2041311413049698,-0.09294424951076508,-0.28735485672950745
1771073685905740000,0.433739990234375,-0.15512901544570923,-0.16112112998962402,-0.32890015840530396
1771073685915680000,0.443679931640625,-0.06884266436100006,-0.16857796907424927,-0.31505173444747925
1771073685925619700,0.45361962890625,0.020639482885599136,-0.1579253375530243,-0.2575274705886841
1771073685935559400,0.463559326171875,0.0930774137377739,-0.16325165331363678,-0.17443692684173584
1771073685945499400,0.47349951171875,0.13888375461101532,-0.17923060059547424,-0.09773793816566467
1771073685955439000,0.483439208984375,0.15592797100543976,-0.18242639303207397,-0.05193160101771355
1771073685965378800,0.49337890625,0.14101427793502808,-0.17070849239826202,-0.05086633935570717
1771073685975318800,0.50331884765625,0.10159952193498611,-0.10998847335577011,-0.07962846010923386
1771073685985258500,0.513258544921875,0.05259739235043526,-0.02583264373242855,-0.11371689289808273
1771073685995198200,0.5231982421875,0.005725792143493891,0.03382211923599243,-0.13076111674308777
1771073686005138200,0.53313818359375,-0.027297381311655045,0.011451584286987782,-0.1339569091796875
1771073686015078000,0.543077880859375,-0.04114580899477005,-0.09081372618675232,-0.14247901737689972
1771073686025017600,0.553017578125,-0.04540686309337616,-0.19627483189105988,-0.15632744133472443
1771073686034957600,0.56295751953125,-0.06138581782579422,-0.2420811653137207,-0.17443692684173584
1771073686044897300,0.572897216796875,-0.07949529588222504,-0.21758009493350983,-0.17763271927833557
1771073686054837000,0.5828369140625,-0.07843003422021866,-0.1675127148628235,-0.15845796465873718
1771073686064776700,0.592776611328125,-0.050733182579278946,-0.12277163565158844,-0.12117373943328857
1771073686074716700,0.602716552734375,-0.002796316985040903,-0.07163897901773453,-0.0774979293346405
1771073686084656400,0.612656494140625,0.045140545815229416,0.0050600022077560425,-0.030626330524683
1771073686094596000,0.62259619140625,0.08242477476596832,0.1009337306022644,0.02157158963382244
1771073686104536000,0.6325361328125,0.11225215345621109,0.16484954953193665,0.06631266325712204
1771073686114475800,0.642475830078125,0.13781848549842834,0.1765674501657486,0.07696529477834702
1771073686124415500,0.65241552734375,0.1591237634420395,0.1573926955461502,0.05566002428531647
1771073686134355500,0.66235546875,0.16125428676605225,0.1339569091796875,0.013049479573965073
1771073686144295200,0.672295166015625,0.14634059369564056,0.12756532430648804,-0.035952646285295486
1771073686154235000,0.68223486328125,0.11118689179420471,0.12330426275730133,-0.07856319099664688
1771073686164174800,0.6921748046875,0.06218476593494415,0.09028109163045883,-0.09454214572906494
1771073686174114600,0.702114501953125,0.02277000993490219,0.05193160101771355,-0.08815056830644608
1771073686184054300,0.71205419921875,0.0025300011038780212,0.024234747514128685,-0.06897582113742828
1771073686193994200,0.721994140625,0.0003994738799519837,0.013582111336290836,-0.04340949282050133
1771073686203934000,0.731933837890625,0.004660528618842363,0.019973693415522575,-0.010386320762336254
1771073686213873700,0.741873779296875,0.014247900806367397,0.03914843872189522,0.019441060721874237
1771073686223813400,0.7518134765625,0.02383527345955372,0.08388951420783997,0.04394212365150452
1771073686233753300,0.76175341796875,0.028096329420804977,0.14460954070091248,0.06311687082052231
1771073686243693000,0.771693115234375,0.014247900806367397,0.19787272810935974,0.08974846452474594
1771073686253632800,0.7816328125,-0.009187898598611355,0.2234390527009964,0.13129374384880066
1771073686263572700,0.79157275390625,-0.034754227846860886,0.22130851447582245,0.17390428483486176
1771073686273512400,0.801512451171875,-0.056059498339891434,0.2000032514333725,0.20799273252487183
1771073686283452200,0.8114521484375,-0.06990792602300644,0.1531316488981247,0.21544957160949707
1771073686293392100,0.82139208984375,-0.07523424178361893,0.0913463607430458,0.1994706094264984
1771073686303331800,0.831331787109375,-0.07310371845960617,0.03914843872189522,0.17070849239826202
1771073686313271600,0.841271484375,-0.06032055243849754,0.007190529722720385,0.13981585204601288
1771073686323211500,0.85121142578125,-0.04008054360747337,-0.020506324246525764,0.11105373501777649
1771073686333151200,0.861151123046875,-0.02090579830110073,-0.056725289672613144,0.08761793375015259
1771073686343091000,0.871091064453125,-0.004926844500005245,-0.08868319541215897,0.06737792491912842
1771073686353030700,0.88103076171875,0.0035952648613601923,-0.10253162682056427,0.048203181475400925
1771073686362970600,0.890970703125,0.004660528618842363,-0.10359688848257065,0.032224226742982864
1771073686372910300,0.900910400390625,-0.002796316985040903,-0.09294424951076508,0.020506324246525764
1771073686382850000,0.91085009765625,-0.01664474420249462,-0.07590003311634064,0.017310533672571182
1771073686392790000,0.9207900390625,-0.02516685426235199,-0.05139897018671036,0.020506324246525764
1771073686402729700,0.930729736328125,-0.02197106182575226,-0.02157158963382244,0.029028434306383133
1771073686412669400,0.94066943359375,-0.010253162123262882,0.008255792781710625,0.0354200154542923
1771073686422609400,0.950609375,0.004660528618842363,0.024234747514128685,0.0354200154542923
1771073686432549000,0.960549072265625,0.0153131652623415,0.029561065137386322,0.03009369783103466
1771073686442488800,0.97048876953125,0.029161592945456505,0.044474758207798004,0.026897907257080078
1771073686452428800,0.9804287109375,0.04620581120252609,0.05832318589091301,0.02583264373242855
1771073686462368500,0.990368408203125,0.05472791939973831,0.0636495053768158,0.023702116683125496
1771073686472308200,1.00030810546875,0.05792371183633804,0.04767054691910744,0.019441060721874237
1771073686482248200,1.010248291015625,0.06538055837154388,0.01784316636621952,0.011984216049313545
1771073686492188000,1.02018798828125,0.07816372066736221,-0.015180006623268127,0.005592633970081806
1771073686502127600,1.030127685546875,0.08455529808998108,-0.05033370852470398,0.006657897960394621
1771073686512067300,1.0400673828125,0.08562056720256805,-0.08974846452474594,0.02157158963382244
1771073686522007300,1.05000732421875,0.08562056720256805,-0.12809795141220093,0.040746334940195084
1771073686531947000,1.059947021484375,0.08242477476596832,-0.14727269113063812,0.056725289672613144
1771073686541886700,1.06988671875,0.06857634335756302,-0.14194637537002563,0.06418213248252869
1771073686551826700,1.07982666015625,0.03555317223072052,-0.12170637398958206,0.07057371735572815
1771073686561766400,1.089766357421875,-0.002796316985040903,-0.09933583438396454,0.07483477145433426
1771073686571706000,1.0997060546875,-0.03262370079755783,-0.08548741042613983,0.07376950979232788
1771073686581646000,1.10964599609375,-0.051798444241285324,-0.08016108721494675,0.06631266325712204
1771073686591585800,1.119585693359375,-0.059255290776491165,-0.07376950979232788,0.06205160543322563
1771073686601525800,1.12952587890625,-0.06138581782579422,-0.07057371735572815,0.06418213248252869
1771073686611465500,1.139465576171875,-0.06138581782579422,-0.0727042406797409,0.06311687082052231
1771073686621405400,1.149405517578125,-0.05712476372718811,-0.06524740159511566,0.056725289672613144
1771073686631345200,1.15934521484375,-0.052863709628582,-0.052464235574007034,0.04394212365150452
1771073686641285000,1.16928515625,-0.056059498339891434,-0.04713791608810425,0.032224226742982864
1771073686651224800,1.179224853515625,-0.06458161026239395,-0.03861580789089203,0.02263685315847397
1771073686661164800,1.189164794921875,-0.07843003422021866,-0.031158961355686188,0.01837579719722271
1771073686671104500,1.1991044921875,-0.09440898895263672,-0.02583264373242855,0.016245270147919655
1771073686681044500,1.20904443359375,-0.10825742036104202,-0.027963170781731606,0.011984216049313545
1771073686690984200,1.218984130859375,-0.12210584431886673,-0.027963170781731606,0.0034621069207787514
1771073686700924200,1.228924072265625,-0.13382373750209808,-0.0141147430986166,-0.0018642114009708166
1771073686710864000,1.23886376953125,-0.14128059148788452,0.012516847811639309,0.006657897960394621
1771073686720803800,1.248803955078125,-0.13701952993869781,0.04127896577119827,0.026897907257080078
1771073686730743600,1.25874365234375,-0.12956269085407257,0.06684529036283493,0.0588558167219162
1771073686740683500,1.26868359375,-0.11784479022026062,0.07643266767263412,0.0918789878487587
1771073686750623200,1.278623291015625,-0.10825742036104202,0.07536740601062775,0.11318425834178925
1771073686760563200,1.288563232421875,-0.10293109714984894,0.0774979293346405,0.11851058155298233
1771073686770503000,1.2985029296875,-0.10719215124845505,0.0636495053768158,0.11105373501777649
1771073686780443000,1.30844287109375,-0.10825742036104202,0.035952646285295486,0.08655267208814621
1771073686790382600,1.318382568359375,-0.09760478138923645,0.010386320762336254,0.05459476262331009
1771073686800322600,1.328322509765625,-0.08162582665681839,-0.0023968431632965803,0.019441060721874237
1771073686810262300,1.33826220703125,-0.06564687192440033,0.010386320762336254,-0.007190529722720385
1771073686820202200,1.3482021484375,-0.052863709628582,0.04340949282050133,-0.01784316636621952
1771073686830142200,1.35814208984375,-0.051798444241285324,0.0732368752360344,-0.011451584286987782
1771073686840082000,1.36808203125,-0.059255290776491165,0.08921582996845245,0.008788425475358963
1771073686850022000,1.37802197265625,-0.06884266436100006,0.0966726765036583,0.03009369783103466
1771073686859961600,1.387961669921875,-0.07736477255821228,0.10732531547546387,0.04181159660220146
1771073686869901600,1.397901611328125,-0.08482161909341812,0.12650005519390106,0.05139897018671036
1771073686879841300,1.40784130859375,-0.08482161909341812,0.13502216339111328,0.06205160543322563
1771073686889781200,1.41778125,-0.08162582665681839,0.11691268533468246,0.07376950979232788
1771073686899721000,1.427720947265625,-0.0762995108962059,0.08388951420783997,0.08016108721494675
1771073686909661000,1.437660888671875,-0.06990792602300644,0.04980107396841049,0.07483477145433426
1771073686919600600,1.4476005859375,-0.06351634114980698,0.028495801612734795,0.05459476262331009
1771073686929540400,1.457540283203125,-0.06032055243849754,0.013582111336290836,0.023702116683125496
1771073686939480300,1.467480224609375,-0.059255290776491165,-0.0034621069207787514,-0.00612526573240757
1771073686949420000,1.477419921875,-0.059255290776491165,-0.011984216049313545,-0.03382211923599243
1771073686959359700,1.48735986328125,-0.052863709628582,0.003994738683104515,-0.05299686640501022
1771073686969299700,1.4972998046875,-0.04860265180468559,0.023169483989477158,-0.060453712940216064
1771073686979239400,1.507239501953125,-0.04434159770607948,0.03808317333459854,-0.05299686640501022
1771073686989179100,1.51717919921875,-0.03262370079755783,0.05938844755291939,-0.035952646285295486
1771073686999119000,1.527119140625,-0.024101590737700462,0.09560741484165192,-0.014647374860942364
1771073687009058800,1.537058837890625,-0.027297381311655045,0.12650005519390106,0.006657897960394621
1771073687018998500,1.54699853515625,-0.030493171885609627,0.13502216339111328,0.02157158963382244
1771073687028938500,1.5569384765625,-0.028362644836306572,0.12117373943328857,0.03435475379228592
1771073687038878200,1.566878173828125,-0.031558435410261154,0.07643266767263412,0.05139897018671036
1771073687048818000,1.57681787109375,-0.03688475489616394,0.015712639316916466,0.07057371735572815
1771073687058758000,1.5867578125,-0.03795001655817032,-0.03755054250359535,0.0822916179895401
1771073687068697600,1.596697509765625,-0.03368896245956421,-0.07483477145433426,0.08016108721494675
1771073687088577000,1.616576904296875,-0.02090579830110073,-0.08655267208814621,0.03435475379228592
1771073687098517000,1.62651708984375,-0.012383690103888512,-0.06418213248252869,-0.0018642114009708166
1771073687108456700,1.636456787109375,-0.0006657897611148655,-0.029028434306383133,-0.03914843872189522
1771073687118396400,1.646396484375,0.01318263728171587,0.014647374860942364,-0.0732368752360344
1771073687128336400,1.65633642578125,0.024900536984205246,0.04234423115849495,-0.09454214572906494
1771073687138276000,1.666276123046875,0.03235738351941109,0.03808317333459854,-0.09880319982767105
1771073687148215800,1.6762158203125,0.0366184376180172,0.009321057237684727,-0.08602003753185272
1771073687158155800,1.68615576171875,0.03874896466732025,-0.02263685315847397,-0.06471476703882217
1771073687168095500,1.696095458984375,0.04194475710391998,-0.04713791608810425,-0.04660528525710106
1771073687178035200,1.70603515625,0.049401599913835526,-0.06205160543322563,-0.03488738462328911
1771073687187975200,1.71597509765625,0.05685844644904137,-0.06737792491912842,-0.03169159218668938
1771073687197915000,1.725914794921875,0.06325002759695053,-0.06418213248252869,-0.03275685757398605
1771073687207854600,1.7358544921875,0.06751108169555664,-0.06737792491912842,-0.03382211923599243
1771073687217794300,1.745794189453125,0.06751108169555664,-0.07590003311634064,-0.035952646285295486
1771073687227734300,1.755734375,0.06218476593494415,-0.0822916179895401,-0.03382211923599243
1771073687237674000,1.765674072265625,0.0504668653011322,-0.08122635632753372,-0.02636527456343174
1771073687247613700,1.77561376953125,0.03768370300531387,-0.06950845569372177,-0.014647374860942364
1771073687257553700,1.7855537109375,0.03129211813211441,-0.052464235574007034,-0.0018642114009708166
1771073687267493400,1.795493408203125,0.03235738351941109,-0.029028434306383133,0.008788425475358963
1771073687277433000,1.80543310546875,0.03981423005461693,-0.0023968431632965803,0.017310533672571182
1771073687287373000,1.815373046875,0.05472791939973831,0.025300011038780212,0.026897907257080078
1771073687297312800,1.825312744140625,0.07177213579416275,0.04767054691910744,0.03755054250359535
1771073687307252500,1.83525244140625,0.08668582886457443,0.06471476703882217,0.05352949723601341
1771073687317192400,1.8451923828125,0.0930774137377739,0.08175898343324661,0.0727042406797409
1771073687327132200,1.855132080078125,0.09733846783638,0.110521100461483,0.09400951862335205
1771073687337071900,1.86507177734375,0.10266478359699249,0.1435442715883255,0.11105373501777649
1771073687347011800,1.87501171875,0.09946899116039276,0.16058848798274994,0.12383689731359482
1771073687356951600,1.88495166015625,0.0930774137377739,0.15526217222213745,0.13555480539798737
1771073687366891300,1.894891357421875,0.08562056720256805,0.12756532430648804,0.13022847473621368
1771073687376831000,1.9048310546875,0.07603318989276886,0.08069372177124023,0.10785794258117676
1771073687386771000,1.91477099609375,0.0600542388856411,0.01784316636621952,0.0684431865811348
1771073687396710700,1.924710693359375,0.049401599913835526,-0.04607265070080757,0.017310533672571182
1771073687406650400,1.934650390625,0.04194475710391998,-0.10892320424318314,-0.04234423115849495
1771073687416590300,1.94459033203125,0.040879491716623306,-0.16964323818683624,-0.10199899226427078
1771073687426530000,1.954530029296875,0.045140545815229416,-0.21331904828548431,-0.1531316488981247
1771073687436469800,1.9644697265625,0.05259739235043526,-0.23036326467990875,-0.18508955836296082
1771073687446409700,1.97440966796875,0.05898897349834442,-0.21758009493350983,-0.19893798232078552
1771073687456349400,1.984349365234375,0.06644582003355026,-0.1760348230600357,-0.1957421898841858
1771073687466289200,1.9942890625,0.08029424399137497,-0.12064110487699509,-0.1808284968137741
1771073687476229000,2.00422900390625,0.09946899116039276,-0.07483477145433426,-0.1669800728559494
1771073687486168800,2.0141689453125,0.12503531575202942,-0.03968106955289841,-0.1573926955461502
1771073687496108500,2.024108642578125,0.1452753245830536,-0.011984216049313545,-0.1531316488981247
1771073687506048500,2.034048583984375,0.15273217856884003,0.0050600022077560425,-0.1531316488981247
1771073687515988200,2.04398828125,0.1495363861322403,0.013582111336290836,-0.15100112557411194
1771073687525928000,2.053927978515625,0.14314480125904083,0.021038956940174103,-0.14674006402492523
1771073687535867600,2.06386767578125,0.1356879621744156,0.028495801612734795,-0.13715268671512604
1771073687545807600,2.0738076171875,0.1303616315126419,0.03701791167259216,-0.1296958476305008
1771073687555747300,2.083747314453125,0.12290479242801666,0.03382211923599243,-0.12756532430648804
1771073687565687000,2.09368701171875,0.1165132075548172,0.018908429890871048,-0.13076111674308777
1771073687575627000,2.103626953125,0.11012163013219833,0.0050600022077560425,-0.13608743250370026
1771073687585566700,2.113566650390625,0.10373004525899887,0.0050600022077560425,-0.138217955827713
1771073687595506400,2.12350634765625,0.09520793706178665,0.014647374860942364,-0.13076111674308777
1771073687605446400,2.1334462890625,0.08562056720256805,0.023169483989477158,-0.11158636957406998
1771073687615386000,2.14338623046875,0.0739026665687561,0.027430538088083267,-0.08495477586984634
1771073687625325800,2.153325927734375,0.06538055837154388,0.03382211923599243,-0.056192658841609955
1771073687635265800,2.163265869140625,0.06218476593494415,0.04340949282050133,-0.029561065137386322
1771073687645205500,2.17320556640625,0.05579318478703499,0.04980107396841049,-0.002929474925622344
1771073687655145200,2.183145263671875,0.04727107286453247,0.048735812306404114,0.020506324246525764
1771073687665085000,2.1930849609375,0.04407528415322304,0.04660528525710106,0.03435475379228592
1771073687675025000,2.20302490234375,0.04194475710391998,0.048735812306404114,0.036485280841588974
1771073687684964600,2.212964599609375,0.03448791056871414,0.056192658841609955,0.0354200154542923
1771073687694904300,2.222904296875,0.020639482885599136,0.06684529036283493,0.03861580789089203
1771073687704844300,2.23284423828125,0.006791055668145418,0.07962846010923386,0.048203181475400925
1771073687714784000,2.242783935546875,-0.0070573715493083,0.09028109163045883,0.060986343771219254
1771073687724723700,2.2527236328125,-0.023036325350403786,0.10199899226427078,0.06631266325712204
1771073687734663700,2.26266357421875,-0.035819489508867264,0.11265163123607635,0.0588558167219162
1771073687744603400,2.272603271484375,-0.047537390142679214,0.1201084777712822,0.05033370852470398
1771073687754543000,2.282543212890625,-0.05819002538919449,0.11478215456008911,0.0492684431374073
1771073687764483000,2.292483154296875,-0.06138581782579422,0.0966726765036583,0.05139897018671036
1771073687774422800,2.3024228515625,-0.054994236677885056,0.07856319099664688,0.04713791608810425
1771073687784362500,2.312362548828125,-0.04221107065677643,0.0732368752360344,0.03755054250359535
1771073687794302500,2.322302490234375,-0.024101590737700462,0.06684529036283493,0.023702116683125496
1771073687804242200,2.3322421875,-0.0006657897611148655,0.05193160101771355,0.016245270147919655
1771073687814182000,2.342181884765625,0.028096329420804977,0.030626330524683,0.02157158963382244
1771073687824121600,2.35212158203125,0.049401599913835526,0.016777902841567993,0.03755054250359535
1771073687834061600,2.3620615234375,0.0600542388856411,0.010386320762336254,0.05566002428531647
1771073687844001300,2.372001220703125,0.05792371183633804,0.029561065137386322,0.06950845569372177
1771073687853941000,2.38194091796875,0.04620581120252609,0.05725792050361633,0.0822916179895401
1771073687863881000,2.391880859375,0.024900536984205246,0.06684529036283493,0.09720530360937119
1771073687873820700,2.401820556640625,0.0035952648613601923,0.04660528525710106,0.10998847335577011
1771073687883760400,2.411760498046875,-0.015579480677843094,0.0050600022077560425,0.11105373501777649
1771073687893700400,2.421700439453125,-0.03795001655817032,-0.04181159660220146,0.09507478028535843
1771073687903640000,2.43164013671875,-0.056059498339891434,-0.07057371735572815,0.060986343771219254
1771073687913579800,2.441579833984375,-0.06884266436100006,-0.0822916179895401,0.020506324246525764
1771073687923519700,2.451519775390625,-0.07097318768501282,-0.09081372618675232,-0.009321057237684727
1771073687933459500,2.46145947265625,-0.06458161026239395,-0.09400951862335205,-0.025300011038780212
1771073687943399400,2.4713994140625,-0.04647212475538254,-0.09081372618675232,-0.027430538088083267
1771073687953339100,2.481339111328125,-0.024101590737700462,-0.08122635632753372,-0.019973693415522575
1771073687963279000,2.491279052734375,0.0003994738799519837,-0.06524740159511566,-0.015712639316916466
1771073687973218800,2.50121875,0.02277000993490219,-0.05459476262331009,-0.012516847811639309
1771073687983158800,2.51115869140625,0.0366184376180172,-0.056725289672613144,-0.009321057237684727
1771073687993098500,2.521098388671875,0.03981423005461693,-0.0684431865811348,-0.0050600022077560425
1771073688003038500,2.53103857421875,0.033422645181417465,-0.07057371735572815,-0.003994738683104515
1771073688012978200,2.540978271484375,0.01850895583629608,-0.06524740159511566,-0.007190529722720385
1771073688022918100,2.550918212890625,-0.0006657897611148655,-0.05566002428531647,-0.009321057237684727
1771073688032857900,2.56085791015625,-0.014514217153191566,-0.04287686198949814,-0.003994738683104515
1771073688042797800,2.5707978515625,-0.024101590737700462,-0.0354200154542923,0.007723161485046148
1771073688052737500,2.580737548828125,-0.030493171885609627,-0.03861580789089203,0.024767380207777023
1771073688062677500,2.590677490234375,-0.028362644836306572,-0.03968106955289841,0.031158961355686188
1771073688072617200,2.6006171875,-0.018775271251797676,-0.026897907257080078,0.015180006623268127
1771073688082557200,2.61055712890625,-0.01664474420249462,-0.01837579719722271,-0.010386320762336254
1771073688092497000,2.620496826171875,-0.02090579830110073,-0.019441060721874237,-0.03382211923599243
1771073688102436900,2.630436767578125,-0.02516685426235199,-0.019441060721874237,-0.04554001986980438
1771073688112376600,2.64037646484375,-0.028362644836306572,-0.017310533672571182,-0.044474758207798004
1771073688122316500,2.650316650390625,-0.0294279083609581,-0.010918952524662018,-0.03914843872189522
1771073688132256300,2.66025634765625,-0.03368896245956421,-0.001331579522229731,-0.03382211923599243
1771073688142196200,2.6701962890625,-0.035819489508867264,0.007190529722720385,-0.03808317333459854
1771073688152136000,2.680135986328125,-0.034754227846860886,0.01784316636621952,-0.056192658841609955
1771073688162076000,2.690075927734375,-0.034754227846860886,0.013582111336290836,-0.07430213689804077
1771073688172015600,2.700015625,-0.04008054360747337,-0.001331579522229731,-0.08495477586984634
1771073688181955600,2.70995556640625,-0.047537390142679214,-0.015180006623268127,-0.08495477586984634
1771073688191895300,2.719895263671875,-0.05392897129058838,-0.024767380207777023,-0.0774979293346405
1771073688201835300,2.729835205078125,-0.06458161026239395,-0.03328948840498924,-0.06151897460222244
1771073688211775200,2.739775146484375,-0.07310371845960617,-0.03755054250359535,-0.040213704109191895
1771073688221715000,2.74971484375,-0.07949529588222504,-0.032224226742982864,-0.01784316636621952
1771073688231655000,2.759655029296875,-0.08482161909341812,-0.03328948840498924,0.0034621069207787514
1771073688241594600,2.7695947265625,-0.08375635743141174,-0.03861580789089203,0.02157158963382244
1771073688251534300,2.779534423828125,-0.08056056499481201,-0.03861580789089203,0.032224226742982864
1771073688261474300,2.789474365234375,-0.07310371845960617,-0.020506324246525764,0.0354200154542923
1771073688271414000,2.7994140625,-0.06564687192440033,0.012516847811639309,0.036485280841588974
1771073688281353700,2.809353759765625,-0.06138581782579422,0.048735812306404114,0.03861580789089203
1771073688291293700,2.819293701171875,-0.04540686309337616,0.09773793816566467,0.04500738903880119
1771073688301233400,2.8292333984375,-0.015579480677843094,0.14460954070091248,0.04500738903880119
1771073688311173000,2.839173095703125,0.020639482885599136,0.1765674501657486,0.03435475379228592
1771073688321113000,2.849113037109375,0.05792371183633804,0.1957421898841858,0.008788425475358963
1771073688331052800,2.859052734375,0.08775109052658081,0.2138516753911972,-0.024234747514128685
1771073688340992500,2.868992431640625,0.1069258376955986,0.21491694450378418,-0.05193160101771355
1771073688350932200,2.87893212890625,0.1165132075548172,0.18722008168697357,-0.06578002870082855
1771073688360872200,2.8888720703125,0.11864373832941055,0.13608743250370026,-0.0636495053768158
1771073688370812000,2.89881201171875,0.11544794589281082,0.09347688406705856,-0.04660528525710106
1771073688380751600,2.908751708984375,0.10159952193498611,0.05725792050361633,-0.019973693415522575
1771073688390691600,2.918691650390625,0.07922898232936859,0.018908429890871048,0.00985368900001049
1771073688400631300,2.92863134765625,0.05898897349834442,-0.019441060721874237,0.023702116683125496
1771073688410571000,2.938571044921875,0.04194475710391998,-0.04607265070080757,0.01837579719722271
1771073688420511000,2.948510986328125,0.01957421936094761,-0.05566002428531647,0.004527370445430279
1771073688430450700,2.95845068359375,-0.005992108024656773,-0.05139897018671036,-0.0018642114009708166
1771073688440390400,2.968390380859375,-0.027297381311655045,-0.03861580789089203,-0.0018642114009708166
1771073688450330400,2.978330322265625,-0.04221107065677643,-0.019441060721874237,0.006657897960394621
1771073688460270000,2.98827001953125,-0.047537390142679214,0.010386320762336254,0.020506324246525764
1771073688470209800,2.998209716796875,-0.043276336044073105,0.035952646285295486,0.03755054250359535
1771073688480149800,3.008149658203125,-0.03368896245956421,0.03275685757398605,0.052464235574007034
1771073688490089500,3.01808935546875,-0.018775271251797676,0.0050600022077560425,0.060986343771219254
1771073688500029200,3.028029296875,-0.005992108024656773,-0.03009369783103466,0.06737792491912842
1771073688509969000,3.037968994140625,-0.0006657897611148655,-0.052464235574007034,0.07696529477834702
1771073688519908900,3.047908935546875,0.006791055668145418,-0.052464235574007034,0.0822916179895401
1771073688529848600,3.0578486328125,0.0153131652623415,-0.05033370852470398,0.08548741042613983
1771073688539788300,3.067788330078125,0.021704746410250664,-0.05992107838392258,0.08761793375015259
1771073688549728300,3.077728271484375,0.0270310640335083,-0.0684431865811348,0.09081372618675232
1771073688559668000,3.08766796875,0.029161592945456505,-0.06205160543322563,0.08761793375015259
1771073688569607700,3.097607666015625,0.024900536984205246,-0.040746334940195084,0.08016108721494675
1771073688579547600,3.107547607421875,0.014247900806367397,-0.013049479573965073,0.07057371735572815
1771073688589487400,3.1174873046875,0.004660528618842363,0.019973693415522575,0.05992107838392258
1771073688599427000,3.127427001953125,-0.0006657897611148655,0.04767054691910744,0.05139897018671036
1771073688609367000,3.137366943359375,-0.004926844500005245,0.05832318589091301,0.05033370852470398
1771073688619306800,3.147306640625,-0.010253162123262882,0.04234423115849495,0.05459476262331009
1771073688629246500,3.15724658203125,-0.013448953628540039,0.014647374860942364,0.06205160543322563
1771073688639186200,3.167186279296875,-0.011318426579236984,-0.0034621069207787514,0.06631266325712204
1771073688649126100,3.177126220703125,-0.0017310534603893757,-0.005592633970081806,0.0588558167219162
1771073688659065900,3.18706591796875,0.011052110232412815,0.00612526573240757,0.04394212365150452
1771073688669005600,3.197005615234375,0.020639482885599136,0.019973693415522575,0.032224226742982864
1771073688678945500,3.206945556640625,0.03129211813211441,0.030626330524683,0.023702116683125496
1771073688688885200,3.21688525390625,0.040879491716623306,0.03275685757398605,0.0141147430986166
1771073688698825000,3.226824951171875,0.04620581120252609,0.027430538088083267,0.0002663159102667123
1771073688708765000,3.236764892578125,0.033422645181417465,0.015712639316916466,-0.012516847811639309
1771073688718704600,3.24670458984375,0.005725792143493891,-0.007723161485046148,-0.015712639316916466
1771073688728644400,3.256644287109375,-0.024101590737700462,-0.02263685315847397,-0.015712639316916466
1771073688738584300,3.266584228515625,-0.04434159770607948,-0.01837579719722271,-0.018908429890871048
1771073688748524000,3.27652392578125,-0.056059498339891434,-0.007723161485046148,-0.018908429890871048
1771073688758463700,3.286463623046875,-0.06138581782579422,-0.004527370445430279,-0.009321057237684727
1771073688768403700,3.29640380859375,-0.05712476372718811,-0.008788425475358963,0.007723161485046148
1771073688778343400,3.306343505859375,-0.04221107065677643,-0.007723161485046148,0.027963170781731606
1771073688788283100,3.316283203125,-0.02090579830110073,0.002929474925622344,0.036485280841588974
1771073688798222800,3.326222900390625,-0.0017310534603893757,0.019973693415522575,0.029028434306383133
1771073688808162800,3.336162841796875,0.005725792143493891,0.029561065137386322,0.0141147430986166
1771073688818102500,3.3461025390625,0.001464737462811172,0.018908429890871048,0.0002663159102667123
1771073688828042200,3.356042236328125,-0.009187898598611355,0.0050600022077560425,-0.009321057237684727
1771073688837982200,3.365982177734375,-0.015579480677843094,-0.013049479573965073,-0.016777902841567993
1771073688847922000,3.375921875,-0.02197106182575226,-0.0354200154542923,-0.025300011038780212
1771073688857861600,3.385861572265625,-0.0294279083609581,-0.05566002428531647,-0.03275685757398605
1771073688867801600,3.395801513671875,-0.031558435410261154,-0.05352949723601341,-0.03701791167259216
1771073688877741300,3.4057412109375,-0.026232117787003517,-0.029028434306383133,-0.03701791167259216
1771073688887681000,3.415680908203125,-0.02090579830110073,-0.0023968431632965803,-0.023169483989477158
1771073688897621000,3.42562109375,-0.01771000772714615,0.009321057237684727,0.001331579522229731
1771073688907560700,3.435560791015625,-0.018775271251797676,0.008255792781710625,0.027963170781731606
1771073688917500400,3.44550048828125,-0.019840534776449203,0.002929474925622344,0.048203181475400925
1771073688927440400,3.4554404296875,-0.024101590737700462,-0.0002663159102667123,0.056725289672613144
1771073688937380000,3.465380126953125,-0.028362644836306572,-0.004527370445430279,0.0492684431374073
1771073688947319800,3.47531982421875,-0.03368896245956421,-0.008788425475358963,0.03435475379228592
1771073688957259500,3.485259521484375,-0.03262370079755783,-0.006657897960394621,0.019441060721874237
1771073688967199500,3.495199462890625,-0.026232117787003517,-0.008788425475358963,-0.0007989477599039674
1771073688977139200,3.50513916015625,-0.01771000772714615,-0.010918952524662018,-0.01784316636621952
1771073688987079000,3.515078857421875,-0.012383690103888512,-0.006657897960394621,-0.03382211923599243
1771073688997019000,3.525018798828125,-0.0070573715493083,0.007190529722720385,-0.05299686640501022
1771073689006958600,3.53495849609375,-0.004926844500005245,0.02210422046482563,-0.07110634446144104
1771073689016898300,3.544898193359375,-0.0006657897611148655,0.04340949282050133,-0.08495477586984634
1771073689026838300,3.55483837890625,0.006791055668145418,0.06471476703882217,-0.09986846894025803
1771073689036778000,3.564778076171875,0.016378428786993027,0.07962846010923386,-0.10732531547546387
1771073689046717700,3.5747177734375,0.020639482885599136,0.07430213689804077,-0.10199899226427078
1771073689056657700,3.58465771484375,0.01957421936094761,0.0540621280670166,-0.08388951420783997
1771073689066597400,3.594597412109375,0.0153131652623415,0.035952646285295486,-0.05938844755291939
1771073689076537000,3.604537109375,0.005725792143493891,0.03488738462328911,-0.03382211923599243
1771073689086476800,3.614476806640625,-0.010253162123262882,0.04980107396841049,-0.010386320762336254
1771073689096416800,3.624416748046875,-0.027297381311655045,0.05832318589091301,0.015180006623268127
1771073689106356500,3.6343564453125,-0.039015281945466995,0.05299686640501022,0.03968106955289841
1771073689116296200,3.644296142578125,-0.04114580899477005,0.03808317333459854,0.0588558167219162
1771073689126236200,3.654236083984375,-0.04221107065677643,0.019973693415522575,0.06631266325712204
1771073689136175900,3.66417578125,-0.047537390142679214,-0.004527370445430279,0.06737792491912842
1771073689146115600,3.674115478515625,-0.05392897129058838,-0.03009369783103466,0.06311687082052231
1771073689156055600,3.6840556640625,-0.0624510794878006,-0.052464235574007034,0.05992107838392258
1771073689165995300,3.693995361328125,-0.06884266436100006,-0.06205160543322563,0.05566002428531647
1771073689175935000,3.70393505859375,-0.06671213358640671,-0.05139897018671036,0.052464235574007034
1771073689185875000,3.713875,-0.059255290776491165,-0.027963170781731606,0.05033370852470398
1771073689195814700,3.723814697265625,-0.052863709628582,-0.005592633970081806,0.05139897018671036
1771073689205754400,3.73375439453125,-0.054994236677885056,0.007190529722720385,0.06524740159511566
1771073689215694300,3.7436943359375,-0.056059498339891434,0.018908429890871048,0.08548741042613983
1771073689225634000,3.753634033203125,-0.05712476372718811,0.01784316636621952,0.10466215014457703
1771073689235573800,3.76357373046875,-0.0624510794878006,-0.004527370445430279,0.1153147891163826
1771073689245513500,3.773513427734375,-0.06351634114980698,-0.027963170781731606,0.11851058155298233
1771073689255453400,3.783453369140625,-0.056059498339891434,-0.04394212365150452,0.11318425834178925
1771073689265393200,3.79339306640625,-0.04860265180468559,-0.06205160543322563,0.105727419257164
1771073689275332900,3.803332763671875,-0.04114580899477005,-0.07590003311634064,0.09507478028535843
1771073689285272800,3.81327294921875,-0.031558435410261154,-0.08016108721494675,0.08442214131355286
1771073689295212500,3.823212646484375,-0.019840534776449203,-0.06950845569372177,0.06950845569372177
1771073689305152300,3.83315234375,-0.002796316985040903,-0.04181159660220146,0.05139897018671036
1771073689315092200,3.84309228515625,0.014247900806367397,-0.00985368900001049,0.03755054250359535
1771073689325032000,3.853031982421875,0.030226856470108032,0.0050600022077560425,0.031158961355686188
1771073689334971600,3.8629716796875,0.040879491716623306,-0.007723161485046148,0.03861580789089203
1771073689344911600,3.87291162109375,0.04833633825182915,-0.031158961355686188,0.052464235574007034
1771073689354851300,3.882851318359375,0.0504668653011322,-0.05566002428531647,0.060986343771219254
1771073689364791000,3.892791015625,0.04407528415322304,-0.07163897901773453,0.060986343771219254
1771073689374731000,3.90273095703125,0.03768370300531387,-0.0727042406797409,0.05033370852470398
1771073689384670700,3.912670654296875,0.0366184376180172,-0.0588558167219162,0.0354200154542923
1771073689394610400,3.9226103515625,0.03555317223072052,-0.04181159660220146,0.02583264373242855
1771073689404550100,3.932550048828125,0.03555317223072052,-0.032224226742982864,0.029028434306383133
1771073689414490000,3.942489990234375,0.03874896466732025,-0.027963170781731606,0.03861580789089203
1771073689424429800,3.952429931640625,0.04194475710391998,-0.027963170781731606,0.04607265070080757
1771073689434369500,3.96236962890625,0.045140545815229416,-0.02157158963382244,0.04394212365150452
1771073689444309500,3.9723095703125,0.04194475710391998,-0.010918952524662018,0.036485280841588974
1771073689454249200,3.982249267578125,0.0366184376180172,-0.005592633970081806,0.024767380207777023
1771073689464189000,3.99218896484375,0.03448791056871414,0.0050600022077560425,0.016245270147919655
1771073689474129000,4.00212890625,0.0366184376180172,0.007190529722720385,0.015180006623268127
1771073689484068600,4.012068603515625,0.03874896466732025,-0.0034621069207787514,0.0141147430986166
1771073689494008300,4.02200830078125,0.03874896466732025,-0.020506324246525764,0.017310533672571182
1771073689503948300,4.0319482421875,0.03768370300531387,-0.03328948840498924,0.017310533672571182
1771073689513888000,4.041887939453125,0.03235738351941109,-0.04287686198949814,0.01837579719722271
1771073689523828000,4.051827880859375,0.024900536984205246,-0.04181159660220146,0.01837579719722271
1771073689533768000,4.061767822265625,0.020639482885599136,-0.02583264373242855,0.015180006623268127
1771073689543707600,4.071707763671875,0.016378428786993027,-0.006657897960394621,0.013049479573965073
1771073689553647600,4.081647705078125,0.01318263728171587,0.00612526573240757,0.016245270147919655
1771073689563587300,4.09158740234375,0.012117373757064342,0.008255792781710625,0.020506324246525764
1771073689573527300,4.10152734375,0.01318263728171587,0.009321057237684727,0.017310533672571182
1771073689583467000,4.111467041015625,0.011052110232412815,0.012516847811639309,0.008788425475358963
1771073689593407000,4.121406982421875,0.0035952648613601923,0.012516847811639309,-0.002929474925622344
1771073689603346700,4.1313466796875,-0.002796316985040903,0.012516847811639309,-0.011451584286987782
1771073689613286700,4.14128662109375,-0.0070573715493083,0.013582111336290836,-0.015712639316916466
1771073689623226400,4.151226318359375,-0.010253162123262882,0.014647374860942364,-0.011451584286987782
1771073689633166300,4.161166259765625,-0.01771000772714615,0.018908429890871048,0.001331579522229731
1771073689643106000,4.17110595703125,-0.026232117787003517,0.029561065137386322,0.02157158963382244
1771073689653046000,4.1810458984375,-0.035819489508867264,0.03701791167259216,0.03968106955289841
1771073689662985700,4.19098583984375,-0.04647212475538254,0.04554001986980438,0.0492684431374073
1771073689672925700,4.20092578125,-0.054994236677885056,0.05938844755291939,0.04713791608810425
1771073689682865400,4.210865478515625,-0.06138581782579422,0.06151897460222244,0.029028434306383133
1771073689692805400,4.220805419921875,-0.06458161026239395,0.044474758207798004,-0.0007989477599039674
1771073689702745000,4.2307451171875,-0.059255290776491165,0.025300011038780212,-0.03382211923599243
1771073689712685000,4.24068505859375,-0.04647212475538254,0.030626330524683,-0.05832318589091301
1771073689722624800,4.250624755859375,-0.0294279083609581,0.04554001986980438,-0.07004108279943466
1771073689732564700,4.260564697265625,-0.005992108024656773,0.0540621280670166,-0.07004108279943466
1771073689742504400,4.27050439453125,0.0270310640335083,0.05938844755291939,-0.060453712940216064
1771073689752444400,4.2804443359375,0.05792371183633804,0.07430213689804077,-0.05086633935570717
1771073689762384100,4.290384033203125,0.07709845900535583,0.07856319099664688,-0.03914843872189522
1771073689772324000,4.300323974609375,0.08775109052658081,0.06897582113742828,-0.03701791167259216
1771073689782263800,4.310263916015625,0.09520793706178665,0.06258423626422882,-0.04127896577119827
1771073689792203800,4.320203857421875,0.08988162130117416,0.05938844755291939,-0.04554001986980438
1771073689802143500,4.3301435546875,0.07283740490674973,0.03808317333459854,-0.03914843872189522
1771073689812083200,4.340083251953125,0.045140545815229416,-0.0023968431632965803,-0.025300011038780212
1771073689822023200,4.350023193359375,0.014247900806367397,-0.052464235574007034,-0.0050600022077560425
1771073689831963000,4.359962890625,-0.01664474420249462,-0.09081372618675232,0.0141147430986166
1771073689841902600,4.369902587890625,-0.04221107065677643,-0.10892320424318314,0.026897907257080078
1771073689851842600,4.379842529296875,-0.05819002538919449,-0.10466215014457703,0.036485280841588974
1771073689861782300,4.3897822265625,-0.0624510794878006,-0.08761793375015259,0.04287686198949814
1771073689871722000,4.399721923828125,-0.059255290776491165,-0.06418213248252869,0.04607265070080757
1771073689881662000,4.409661865234375,-0.05392897129058838,-0.03968106955289841,0.05459476262331009
1771073689891601700,4.4196015625,-0.04647212475538254,-0.03328948840498924,0.06631266325712204
1771073689901541400,4.429541259765625,-0.03262370079755783,-0.03755054250359535,0.07163897901773453
1771073689911481000,4.439481201171875,-0.013448953628540039,-0.03755054250359535,0.06737792491912842
1771073689921421000,4.449421142578125,0.0025300011038780212,-0.02583264373242855,0.04713791608810425
1771073689931360800,4.45936083984375,0.016378428786993027,-0.017310533672571182,0.024767380207777023
1771073689941300500,4.469300537109375,0.021704746410250664,-0.02263685315847397,0.010918952524662018
1771073689951240400,4.479240478515625,0.024900536984205246,-0.036485280841588974,0.005592633970081806
1771073689961180200,4.48918017578125,0.029161592945456505,-0.04607265070080757,0.0023968431632965803
1771073689971119900,4.499119873046875,0.030226856470108032,-0.04607265070080757,-0.003994738683104515
1771073689981059800,4.509059814453125,0.028096329420804977,-0.040746334940195084,-0.010386320762336254
1771073689990999600,4.51899951171875,0.020639482885599136,-0.04394212365150452,-0.010386320762336254
1771073690000939300,4.528939208984375,0.012117373757064342,-0.05992107838392258,-0.0018642114009708166
1771073690010879200,4.538879150390625,0.00892158318310976,-0.07376950979232788,0.00985368900001049
1771073690020819000,4.54881884765625,0.007856319658458233,-0.07590003311634064,0.020506324246525764
1771073690030758700,4.558758544921875,0.005725792143493891,-0.07163897901773453,0.027963170781731606
1771073690040698400,4.568698486328125,0.0025300011038780212,-0.060986343771219254,0.03755054250359535
1771073690050638300,4.578638427734375,0.004660528618842363,-0.04500738903880119,0.04181159660220146
1771073690060578000,4.588578125,0.014247900806367397,-0.015180006623268127,0.027963170781731606
1771073690070517800,4.598517822265625,0.020639482885599136,0.0050600022077560425,0.013049479573965073
1771073690080457700,4.608457763671875,0.02277000993490219,0.013582111336290836,0.011984216049313545
1771073690090397400,4.6183974609375,0.02383527345955372,0.023169483989477158,0.016245270147919655
1771073690100337200,4.628337158203125,0.025965800508856773,0.02210422046482563,0.023702116683125496
1771073690110277000,4.638277099609375,0.024900536984205246,0.012516847811639309,0.026897907257080078
1771073690120216800,4.648216796875,0.020639482885599136,0.002929474925622344,0.024767380207777023
1771073690130156500,4.658156494140625,0.014247900806367397,-0.006657897960394621,0.026897907257080078
1771073690140096500,4.668096435546875,0.005725792143493891,-0.017310533672571182,0.029028434306383133
1771073690150036200,4.6780361328125,0.004660528618842363,-0.031158961355686188,0.03435475379228592
1771073690159976000,4.687975830078125,0.00892158318310976,-0.04394212365150452,0.04181159660220146
1771073690169916000,4.697916015625,0.007856319658458233,-0.05992107838392258,0.05139897018671036
1771073690179855600,4.707855712890625,0.007856319658458233,-0.06205160543322563,0.05033370852470398
1771073690189795300,4.71779541015625,0.016378428786993027,-0.05033370852470398,0.03328948840498924
1771073690199735000,4.727735107421875,0.02277000993490219,-0.023702116683125496,0.00985368900001049
1771073690209675000,4.737675048828125,0.024900536984205246,-0.0023968431632965803,-0.0018642114009708166
1771073690219614700,4.74761474609375,0.02277000993490219,0.003994738683104515,-0.0018642114009708166
1771073690229554400,4.757554443359375,0.02383527345955372,-0.005592633970081806,0.00985368900001049
1771073690239494400,4.767494384765625,0.029161592945456505,-0.023702116683125496,0.024767380207777023
1771073690249434000,4.77743408203125,0.030226856470108032,-0.04500738903880119,0.03328948840498924
1771073690259373800,4.787373779296875,0.024900536984205246,-0.0588558167219162,0.0354200154542923
1771073690269313800,4.797313720703125,0.01957421936094761,-0.06311687082052231,0.03435475379228592
1771073690279253500,4.80725341796875,0.01957421936094761,-0.0727042406797409,0.03328948840498924
1771073690289193200,4.817193115234375,0.02277000993490219,-0.08974846452474594,0.027963170781731606
1771073690299133200,4.82713330078125,0.021704746410250664,-0.10785794258117676,0.023702116683125496
1771073690309073000,4.837072998046875,0.0153131652623415,-0.11638005077838898,0.017310533672571182
1771073690319012600,4.8470126953125,0.01318263728171587,-0.1249021589756012,0.008788425475358963
1771073690328952600,4.85695263671875,0.01318263728171587,-0.14727269113063812,-0.003994738683104515
1771073690338892300,4.866892333984375,0.009986846707761288,-0.17283903062343597,-0.018908429890871048
1771073690348832000,4.87683203125,0.0025300011038780212,-0.17816534638404846,-0.025300011038780212
1771073690358771700,4.886771728515625,-0.009187898598611355,-0.16538217663764954,-0.024234747514128685
1771073690368711700,4.896711669921875,-0.013448953628540039,-0.13662005960941315,-0.027430538088083267
1771073690378651400,4.9066513671875,-0.012383690103888512,-0.10359688848257065,-0.029561065137386322
1771073690388591000,4.916591064453125,-0.0070573715493083,-0.08122635632753372,-0.03169159218668938
1771073690398531000,4.926531005859375,0.0003994738799519837,-0.05779055133461952,-0.03169159218668938
1771073690408470800,4.936470703125,0.007856319658458233,-0.02263685315847397,-0.027430538088083267
1771073690418410500,4.946410400390625,0.009986846707761288,0.009321057237684727,-0.01784316636621952
1771073690428350500,4.9563505859375,0.004660528618842363,0.02636527456343174,-0.003994738683104515
1771073690438290200,4.966290283203125,-0.005992108024656773,0.029561065137386322,0.011984216049313545
1771073690448230000,4.97622998046875,-0.015579480677843094,0.030626330524683,0.027963170781731606
1771073690458169900,4.986169921875,-0.026232117787003517,0.025300011038780212,0.03861580789089203
1771073690468109600,4.996109619140625,-0.04114580899477005,0.007190529722720385,0.04607265070080757
1771073690478049300,5.00604931640625,-0.051798444241285324,-0.02583264373242855,0.05459476262331009
1771073690487989000,5.015989013671875,-0.05712476372718811,-0.0492684431374073,0.05459476262331009
1771073690497929000,5.025928955078125,-0.056059498339891434,-0.05352949723601341,0.04713791608810425
1771073690507868700,5.03586865234375,-0.056059498339891434,-0.04713791608810425,0.03435475379228592
1771073690517808400,5.045808349609375,-0.06138581782579422,-0.04287686198949814,0.02157158963382244
1771073690527748400,5.055748291015625,-0.06138581782579422,-0.04287686198949814,0.0141147430986166
1771073690537688000,5.06568798828125,-0.04540686309337616,-0.03968106955289841,0.0034621069207787514
1771073690547627800,5.075627685546875,-0.02090579830110073,-0.02583264373242855,-0.008255792781710625
1771073690557567700,5.085567626953125,0.0003994738799519837,0.0007989477599039674,-0.021038956940174103
1771073690567507500,5.095507568359375,0.014247900806367397,0.03701791167259216,-0.02210422046482563
1771073690577447200,5.105447265625,0.01957421936094761,0.04767054691910744,-0.009321057237684727
1771073690587387100,5.11538720703125,0.01850895583629608,0.015712639316916466,0.00985368900001049
1771073690597326800,5.125326904296875,0.017443692311644554,-0.031158961355686188,0.024767380207777023
1771073690607266600,5.1352666015625,0.011052110232412815,-0.06524740159511566,0.032224226742982864
1771073690617206500,5.14520654296875,-0.0017310534603893757,-0.08122635632753372,0.031158961355686188
1771073690627146200,5.155146240234375,-0.018775271251797676,-0.08974846452474594,0.02583264373242855
1771073690637086000,5.1650859375,-0.028362644836306572,-0.09081372618675232,0.01837579719722271
1771073690647025700,5.175025634765625,-0.031558435410261154,-0.08548741042613983,0.004527370445430279
1771073690656965600,5.184965576171875,-0.0294279083609581,-0.06950845569372177,-0.008255792781710625
1771073690666905300,5.1949052734375,-0.019840534776449203,-0.04500738903880119,-0.023169483989477158
1771073690676845000,5.204844970703125,-0.011318426579236984,-0.019441060721874237,-0.03382211923599243
1771073690686785000,5.214784912109375,-0.003861580742523074,-0.00985368900001049,-0.03701791167259216
1771073690696724700,5.224724853515625,0.0035952648613601923,-0.01837579719722271,-0.03169159218668938
1771073690706664400,5.23466455078125,0.007856319658458233,-0.0354200154542923,-0.027430538088083267
1771073690716604400,5.2446044921875,0.006791055668145418,-0.04500738903880119,-0.02210422046482563
1771073690726544100,5.254544189453125,-0.0006657897611148655,-0.03968106955289841,-0.014647374860942364
1771073690736483800,5.26448388671875,-0.010253162123262882,-0.027963170781731606,-0.009321057237684727
1771073690746423800,5.274423828125,-0.01771000772714615,-0.017310533672571182,-0.002929474925622344
1771073690756363500,5.284363525390625,-0.02197106182575226,-0.011984216049313545,0.004527370445430279
1771073690766303200,5.29430322265625,-0.023036325350403786,-0.015180006623268127,0.015180006623268127
1771073690776243200,5.3042431640625,-0.026232117787003517,-0.032224226742982864,0.020506324246525764
1771073690786183000,5.314182861328125,-0.030493171885609627,-0.04607265070080757,0.01837579719722271
1771073690796122600,5.32412255859375,-0.03368896245956421,-0.04394212365150452,0.015180006623268127
1771073690806062300,5.334062255859375,-0.03795001655817032,-0.040746334940195084,0.011984216049313545
1771073690816002300,5.344002197265625,-0.04114580899477005,-0.04181159660220146,0.015180006623268127
1771073690825942000,5.35394189453125,-0.039015281945466995,-0.040746334940195084,0.02157158963382244
1771073690835881700,5.3638818359375,-0.03262370079755783,-0.03009369783103466,0.027963170781731606
1771073690845821700,5.37382177734375,-0.026232117787003517,-0.017310533672571182,0.031158961355686188
1771073690855761400,5.383761474609375,-0.018775271251797676,-0.010918952524662018,0.026897907257080078
1771073690865701000,5.393701171875,-0.012383690103888512,-0.00985368900001049,0.017310533672571182
1771073690875641000,5.40364111328125,-0.012383690103888512,-0.010918952524662018,0.008788425475358963
1771073690885580800,5.413580810546875,-0.012383690103888512,-0.016245270147919655,0.010918952524662018
1771073690895520500,5.4235205078125,-0.008122635073959827,-0.02263685315847397,0.019441060721874237
1771073690905460500,5.43346044921875,0.005725792143493891,-0.031158961355686188,0.029028434306383133
1771073690915400200,5.443400146484375,0.017443692311644554,-0.04394212365150452,0.0354200154542923
1771073690925340000,5.45333984375,0.021704746410250664,-0.05033370852470398,0.03755054250359535
1771073690935279600,5.463279541015625,0.020639482885599136,-0.0492684431374073,0.040746334940195084
1771073690945219600,5.473219482421875,0.017443692311644554,-0.040746334940195084,0.04181159660220146
1771073690955159300,5.4831591796875,0.017443692311644554,-0.03968106955289841,0.03968106955289841
1771073690965099000,5.49309912109375,0.0153131652623415,-0.036485280841588974,0.03435475379228592
1771073690975039000,5.5030390625,0.005725792143493891,-0.03861580789089203,0.026897907257080078
1771073690984978700,5.512978759765625,-0.002796316985040903,-0.03328948840498924,0.01837579719722271
1771073690994918400,5.52291845703125,-0.011318426579236984,-0.029028434306383133,0.017310533672571182
1771073691004858400,5.5328583984375,-0.019840534776449203,-0.03009369783103466,0.023702116683125496
1771073691014798000,5.542798095703125,-0.01771000772714615,-0.02157158963382244,0.03009369783103466
1771073691024737800,5.55273779296875,-0.009187898598611355,-0.00985368900001049,0.036485280841588974
1771073691034677800,5.562677734375,0.001464737462811172,-0.004527370445430279,0.03755054250359535
1771073691044617500,5.572617431640625,0.01318263728171587,-0.005592633970081806,0.032224226742982864
1771073691054557200,5.58255712890625,0.02383527345955372,-0.0002663159102667123,0.02157158963382244
1771073691064497200,5.5924970703125,0.029161592945456505,0.008255792781710625,0.008788425475358963
1771073691084376600,5.61237646484375,0.03129211813211441,0.002929474925622344,-0.012516847811639309
1771073691094316300,5.62231640625,0.01318263728171587,-0.020506324246525764,-0.007190529722720385
1771073691104256300,5.63225634765625,-0.009187898598611355,-0.04500738903880119,0.006657897960394621
1771073691114196000,5.642196044921875,-0.02516685426235199,-0.05566002428531647,0.020506324246525764
1771073691124135700,5.6521357421875,-0.04008054360747337,-0.060986343771219254,0.029028434306383133
1771073691134075600,5.66207568359375,-0.050733182579278946,-0.06524740159511566,0.036485280841588974
1771073691144015400,5.672015380859375,-0.051798444241285324,-0.0588558167219162,0.036485280841588974
1771073691163895000,5.69189501953125,-0.04221107065677643,-0.015180006623268127,0.031158961355686188
1771073691173834800,5.701834716796875,-0.031558435410261154,0.00612526573240757,0.027963170781731606
1771073691183774500,5.7117744140625,-0.015579480677843094,0.027430538088083267,0.026897907257080078
1771073691193714400,5.72171435546875,-0.0017310534603893757,0.03382211923599243,0.02583264373242855
1771073691203654100,5.731654052734375,0.00892158318310976,0.011451584286987782,0.02263685315847397
1771073691213594000,5.741593994140625,0.014247900806367397,-0.029028434306383133,0.011984216049313545
1771073691223534000,5.7515341796875,0.014247900806367397,-0.06311687082052231,0.0002663159102667123
1771073691233473800,5.761473876953125,0.012117373757064342,-0.07057371735572815,-0.015712639316916466
1771073691243413800,5.771413818359375,0.009986846707761288,-0.05992107838392258,-0.02636527456343174
1771073691253353500,5.781353515625,0.005725792143493891,-0.04181159660220146,-0.029561065137386322
1771073691263293400,5.79129345703125,0.0035952648613601923,-0.019441060721874237,-0.025300011038780212
1771073691273233200,5.801233154296875,0.006791055668145418,0.00612526573240757,-0.01784316636621952
1771073691283173000,5.811173095703125,0.009986846707761288,0.02636527456343174,-0.0050600022077560425
1771073691293112800,5.82111279296875,0.014247900806367397,0.03808317333459854,0.008788425475358963
1771073691303052800,5.831052734375,0.02277000993490219,0.04340949282050133,0.01837579719722271
1771073691312992500,5.840992431640625,0.029161592945456505,0.03914843872189522,0.019441060721874237
1771073691322932500,5.850932373046875,0.030226856470108032,0.028495801612734795,0.010918952524662018
1771073691332872200,5.8608720703125,0.0270310640335083,0.024234747514128685,-0.00612526573240757
1771073691342812200,5.870812255859375,0.024900536984205246,0.02636527456343174,-0.02636527456343174
1771073691352751900,5.880751953125,0.020639482885599136,0.02636527456343174,-0.04127896577119827
1771073691362691800,5.89069189453125,0.0153131652623415,0.014647374860942364,-0.04234423115849495
1771073691372631600,5.900631591796875,0.011052110232412815,-0.0023968431632965803,-0.028495801612734795
1771073691382571500,5.910571533203125,0.012117373757064342,-0.015180006623268127,-0.011451584286987782
1771073691392511200,5.92051123046875,0.01318263728171587,-0.016245270147919655,0.0002663159102667123
1771073691402451200,5.930451171875,0.004660528618842363,-0.015180006623268127,0.00985368900001049
1771073691412391000,5.940390869140625,-0.010253162123262882,-0.015180006623268127,0.017310533672571182
1771073691422331000,5.950330810546875,-0.023036325350403786,-0.02157158963382244,0.023702116683125496
1771073691432270600,5.9602705078125,-0.031558435410261154,-0.0354200154542923,0.026897907257080078
1771073691442210600,5.97021044921875,-0.034754227846860886,-0.05459476262331009,0.023702116683125496
1771073691452150300,5.980150390625,-0.04008054360747337,-0.06418213248252869,0.02157158963382244
1771073691462090200,5.99009033203125,-0.04221107065677643,-0.05779055133461952,0.01837579719722271
1771073691472030000,6.000030029296875,-0.039015281945466995,-0.04394212365150452,0.00985368900001049
1771073691481970000,6.009969970703125,-0.03688475489616394,-0.03009369783103466,-0.0007989477599039674
1771073691501849300,6.029849365234375,-0.030493171885609627,0.014647374860942364,-0.009321057237684727
1771073691511789000,6.0397890625,-0.028362644836306572,0.03169159218668938,-0.003994738683104515
1771073691521729000,6.04972900390625,-0.026232117787003517,0.025300011038780212,0.0034621069207787514
1771073691531668700,6.059668701171875,-0.02197106182575226,0.008255792781710625,0.007723161485046148
1771073691541608400,6.0696083984375,-0.02090579830110073,0.002929474925622344,0.005592633970081806
1771073691551548400,6.07954833984375,-0.030493171885609627,-0.0002663159102667123,0.0002663159102667123
1771073691561488100,6.089488037109375,-0.04434159770607948,-0.007723161485046148,-0.003994738683104515
1771073691571427800,6.099427734375,-0.05392897129058838,-0.0141147430986166,-0.0050600022077560425
1771073691581367800,6.109367919921875,-0.052863709628582,-0.005592633970081806,-0.003994738683104515
1771073691591307500,6.1193076171875,-0.04966791719198227,0.013582111336290836,0.0023968431632965803
1771073691601247200,6.129247314453125,-0.043276336044073105,0.030626330524683,0.013049479573965073
1771073691611187200,6.139187255859375,-0.03688475489616394,0.03382211923599243,0.02263685315847397
1771073691621127000,6.149126953125,-0.03262370079755783,0.02636527456343174,0.031158961355686188
1771073691631066600,6.159066650390625,-0.030493171885609627,0.01784316636621952,0.03435475379228592
1771073691641006300,6.16900634765625,-0.028362644836306572,0.013582111336290836,0.029028434306383133
1771073691650946300,6.1789462890625,-0.02516685426235199,0.013582111336290836,0.023702116683125496
1771073691660886000,6.188885986328125,-0.02090579830110073,0.00612526573240757,0.02263685315847397
1771073691670825700,6.19882568359375,-0.014514217153191566,-0.0002663159102667123,0.024767380207777023
1771073691680765700,6.208765625,-0.0070573715493083,-0.005592633970081806,0.02157158963382244
1771073691690705400,6.218705322265625,-0.003861580742523074,-0.007723161485046148,0.011984216049313545
1771073691700645000,6.22864501953125,-0.014514217153191566,-0.005592633970081806,0.004527370445430279
1771073691710585000,6.238585205078125,-0.026232117787003517,-0.005592633970081806,0.0034621069207787514
1771073691720524800,6.24852490234375,-0.027297381311655045,-0.00985368900001049,0.007723161485046148
1771073691730464500,6.258464599609375,-0.023036325350403786,-0.02157158963382244,0.020506324246525764
1771073691740404500,6.268404541015625,-0.018775271251797676,-0.03861580789089203,0.03435475379228592
1771073691750344200,6.27834423828125,-0.02090579830110073,-0.04394212365150452,0.04500738903880119
1771073691760284000,6.288283935546875,-0.027297381311655045,-0.031158961355686188,0.052464235574007034
1771073691770223900,6.298223876953125,-0.03688475489616394,-0.015180006623268127,0.056725289672613144
1771073691780163600,6.30816357421875,-0.04647212475538254,0.0007989477599039674,0.0588558167219162
1771073691790103300,6.318103271484375,-0.054994236677885056,0.0018642114009708166,0.06205160543322563
1771073691800043000,6.32804296875,-0.056059498339891434,-0.008788425475358963,0.06524740159511566
1771073691809983000,6.33798291015625,-0.047537390142679214,-0.02583264373242855,0.060986343771219254
1771073691819922700,6.347922607421875,-0.047537390142679214,-0.04500738903880119,0.05033370852470398
1771073691829862400,6.3578623046875,-0.05392897129058838,-0.05992107838392258,0.03861580789089203
1771073691839802400,6.36780224609375,-0.06032055243849754,-0.060986343771219254,0.026897907257080078
1771073691849742000,6.3777421875,-0.06032055243849754,-0.05139897018671036,0.020506324246525764
1771073691859681800,6.387681884765625,-0.051798444241285324,-0.040746334940195084,0.019441060721874237
1771073691869621800,6.397621826171875,-0.031558435410261154,-0.032224226742982864,0.015180006623268127
1771073691879561500,6.4075615234375,-0.008122635073959827,-0.0354200154542923,0.0034621069207787514
1771073691889501200,6.417501220703125,0.0025300011038780212,-0.03861580789089203,-0.011451584286987782
1771073691899441200,6.427441162109375,0.0025300011038780212,-0.016245270147919655,-0.029561065137386322
1771073691909380900,6.437380859375,0.005725792143493891,0.018908429890871048,-0.044474758207798004
1771073691919320600,6.447320556640625,0.012117373757064342,0.04340949282050133,-0.05086633935570717
1771073691929260500,6.457260498046875,0.016378428786993027,0.0540621280670166,-0.040213704109191895
1771073691939200300,6.4672001953125,0.020639482885599136,0.048735812306404114,-0.01784316636621952
1771073691949140000,6.477139892578125,0.01957421936094761,0.029561065137386322,0.004527370445430279
1771073691959079700,6.48707958984375,0.011052110232412815,-0.001331579522229731,0.013049479573965073
1771073691969019600,6.49701953125,-0.002796316985040903,-0.02263685315847397,0.004527370445430279
1771073691978959400,6.50695947265625,-0.01664474420249462,-0.020506324246525764,-0.011451584286987782
1771073691988899000,6.516899169921875,-0.02516685426235199,-0.005592633970081806,-0.02210422046482563
1771073691998839000,6.526839111328125,-0.023036325350403786,0.007190529722720385,-0.024234747514128685
1771073692008778800,6.53677880859375,-0.013448953628540039,0.007190529722720385,-0.021038956940174103
1771073692018718500,6.546718505859375,-0.008122635073959827,-0.0023968431632965803,-0.012516847811639309
1771073692028658400,6.556658447265625,-0.0070573715493083,-0.007723161485046148,-0.0050600022077560425
1771073692038598100,6.56659814453125,-0.011318426579236984,0.0007989477599039674,0.0002663159102667123
1771073692048537900,6.576537841796875,-0.013448953628540039,0.035952646285295486,0.004527370445430279
1771073692058477800,6.586477783203125,-0.012383690103888512,0.07004108279943466,0.00985368900001049
1771073692068417500,6.59641748046875,-0.004926844500005245,0.09560741484165192,0.0141147430986166
1771073692078357200,6.606357177734375,0.005725792143493891,0.11265163123607635,0.01837579719722271
1771073692088297000,6.616296875,0.0153131652623415,0.10839057713747025,0.019441060721874237
1771073692098237000,6.62623681640625,0.0153131652623415,0.0774979293346405,0.015180006623268127
1771073692108176600,6.6361767578125,0.011052110232412815,0.040213704109191895,0.004527370445430279
1771073692118116400,6.646116455078125,0.005725792143493891,0.01784316636621952,-0.010386320762336254
1771073692128056300,6.656056396484375,0.005725792143493891,0.019973693415522575,-0.02210422046482563
1771073692137996000,6.66599609375,0.016378428786993027,0.04767054691910744,-0.023169483989477158
1771073692147935700,6.675935791015625,0.03235738351941109,0.05832318589091301,-0.014647374860942364
1771073692157875700,6.685875732421875,0.04620581120252609,0.029561065137386322,-0.002929474925622344
1771073692167815400,6.6958154296875,0.061119500547647476,-0.001331579522229731,-0.0018642114009708166
1771073692177755100,6.705755126953125,0.0600542388856411,-0.02263685315847397,-0.007190529722720385
1771073692187695000,6.715695068359375,0.04194475710391998,-0.04394212365150452,-0.00612526573240757
1771073692197635300,6.72563525390625,0.01850895583629608,-0.0727042406797409,-0.0018642114009708166
1771073692207575300,6.7355751953125,0.0003994738799519837,-0.10466215014457703,-0.0007989477599039674
1771073692217515000,6.745514892578125,-0.011318426579236984,-0.11744531989097595,-0.003994738683104515
1771073692227454700,6.755454833984375,-0.015579480677843094,-0.0918789878487587,-0.00612526573240757
1771073692237394700,6.765394775390625,-0.011318426579236984,-0.04287686198949814,0.001331579522229731
1771073692247334400,6.77533447265625,0.0025300011038780212,-0.007723161485046148,0.01837579719722271
1771073692257274000,6.785274169921875,0.01957421936094761,-0.0023968431632965803,0.032224226742982864
1771073692267214000,6.795214111328125,0.033422645181417465,-0.005592633970081806,0.029028434306383133
1771073692277153800,6.80515380859375,0.03768370300531387,-0.001331579522229731,0.00985368900001049
1771073692287093500,6.815093505859375,0.029161592945456505,0.01784316636621952,-0.016777902841567993
1771073692297033200,6.825033203125,0.014247900806367397,0.035952646285295486,-0.03275685757398605
1771073692306973200,6.83497314453125,0.0003994738799519837,0.030626330524683,-0.029561065137386322
1771073692316913000,6.844912841796875,-0.0017310534603893757,-0.001331579522229731,-0.011451584286987782
1771073692326852600,6.8548525390625,0.001464737462811172,-0.019441060721874237,0.0034621069207787514
1771073692336792600,6.86479248046875,0.0035952648613601923,-0.006657897960394621,0.007723161485046148
1771073692346732300,6.874732177734375,-0.003861580742523074,0.014647374860942364,0.0023968431632965803
1771073692356672000,6.884672119140625,-0.013448953628540039,0.015712639316916466,-0.0050600022077560425
1771073692366612000,6.894612060546875,-0.02197106182575226,0.002929474925622344,-0.009321057237684727
1771073692376551700,6.9045517578125,-0.0294279083609581,0.007190529722720385,-0.0018642114009708166
1771073692386491400,6.914491455078125,-0.03262370079755783,0.018908429890871048,0.013049479573965073
1771073692396431400,6.924431396484375,-0.023036325350403786,0.02210422046482563,0.027963170781731606
1771073692406371000,6.93437109375,-0.0070573715493083,0.015712639316916466,0.03968106955289841
1771073692416310800,6.944310791015625,0.012117373757064342,0.008255792781710625,0.04394212365150452
1771073692426250800,6.954250732421875,0.03129211813211441,0.0018642114009708166,0.03861580789089203
1771073692436190500,6.9641904296875,0.03874896466732025,0.003994738683104515,0.02157158963382244
1771073692446130200,6.974130126953125,0.03448791056871414,0.010386320762336254,-0.0018642114009708166
1771073692456070000,6.98406982421875,0.021704746410250664,0.011451584286987782,-0.02636527456343174
1771073692466009900,6.994009765625,0.0025300011038780212,0.011451584286987782,-0.04234423115849495
1771073692475949600,7.003949462890625,-0.014514217153191566,0.014647374860942364,-0.04980107396841049
1771073692485889300,7.01388916015625,-0.02516685426235199,0.028495801612734795,-0.04767054691910744
1771073692495829200,7.023829345703125,-0.03368896245956421,0.04234423115849495,-0.03275685757398605
1771073692505769000,7.03376904296875,-0.04008054360747337,0.05086633935570717,-0.010386320762336254
1771073692515708700,7.043708740234375,-0.04114580899477005,0.048735812306404114,0.005592633970081806
1771073692525648600,7.053648681640625,-0.04114580899477005,0.04127896577119827,0.008788425475358963
1771073692535588400,7.06358837890625,-0.04540686309337616,0.04127896577119827,-0.00612526573240757
1771073692545528000,7.073528076171875,-0.054994236677885056,0.05193160101771355,-0.03488738462328911
1771073692565407700,7.09340771484375,-0.050733182579278946,0.06471476703882217,-0.11158636957406998
1771073692575347500,7.103347412109375,-0.034754227846860886,0.0679105594754219,-0.13715268671512604
1771073692585287200,7.113287109375,-0.002796316985040903,0.06684529036283493,-0.13608743250370026
1771073692595227100,7.12322705078125,0.004660528618842363,0.044474758207798004,-0.11265163123607635
1771073692605166800,7.133166748046875,0.011052110232412815,0.010386320762336254,-0.08602003753185272
1771073692615106600,7.1431064453125,0.011052110232412815,-0.011984216049313545,-0.06578002870082855
1771073692625046500,7.153046630859375,0.0153131652623415,-0.0002663159102667123,-0.05938844755291939
1771073692634986200,7.162986328125,0.011052110232412815,0.03275685757398605,-0.05299686640501022
1771073692644926000,7.172926025390625,-0.004926844500005245,0.05512739345431328,-0.03808317333459854
1771073692654866000,7.182865966796875,-0.014514217153191566,0.04554001986980438,-0.01784316636621952
1771073692664805600,7.1928056640625,-0.015579480677843094,0.03382211923599243,0.0002663159102667123
1771073692674745300,7.202745361328125,-0.011318426579236984,0.03169159218668938,0.011984216049313545
1771073692684685300,7.212685302734375,-0.009187898598611355,0.025300011038780212,0.017310533672571182
1771073692694625000,7.222625,-0.011318426579236984,0.0050600022077560425,0.013049479573965073
1771073692704564700,7.232564697265625,-0.008122635073959827,-0.0141147430986166,0.007723161485046148
1771073692714504700,7.242504638671875,-0.003861580742523074,-0.024767380207777023,0.010918952524662018
1771073692724444400,7.2524443359375,0.0003994738799519837,-0.0354200154542923,0.017310533672571182
1771073692734384000,7.262384033203125,0.001464737462811172,-0.03968106955289841,0.017310533672571182
1771073692744323800,7.27232373046875,-0.003861580742523074,-0.03968106955289841,0.007723161485046148
1771073692754263800,7.282263916015625,-0.012383690103888512,-0.03755054250359535,-0.007190529722720385
1771073692764203500,7.29220361328125,-0.023036325350403786,-0.0354200154542923,-0.021038956940174103
1771073692774143200,7.302143310546875,-0.03368896245956421,-0.040746334940195084,-0.028495801612734795
1771073692784083200,7.312083251953125,-0.04221107065677643,-0.052464235574007034,-0.03488738462328911
1771073692794023000,7.32202294921875,-0.04540686309337616,-0.060986343771219254,-0.04234423115849495
1771073692803962600,7.331962646484375,-0.04966791719198227,-0.06418213248252869,-0.04340949282050133
1771073692813902600,7.341902587890625,-0.04860265180468559,-0.06311687082052231,-0.035952646285295486
1771073692823842300,7.35184228515625,-0.039015281945466995,-0.04181159660220146,-0.021038956940174103
1771073692833782000,7.361781982421875,-0.026232117787003517,-0.007723161485046148,-0.0007989477599039674
1771073692843722000,7.371721923828125,-0.013448953628540039,0.02210422046482563,0.019441060721874237
1771073692853661700,7.38166162109375,0.0035952648613601923,0.04234423115849495,0.029028434306383133
1771073692863601400,7.391601318359375,0.0153131652623415,0.04554001986980438,0.03009369783103466
1771073692873541400,7.401541259765625,0.020639482885599136,0.025300011038780212,0.020506324246525764
1771073692883481000,7.411481201171875,0.01850895583629608,0.002929474925622344,0.005592633970081806
1771073692893420800,7.4214208984375,0.009986846707761288,-0.010918952524662018,-0.009321057237684727
1771073692903360500,7.431360595703125,-0.0017310534603893757,-0.02157158963382244,-0.015712639316916466
1771073692913300500,7.441300537109375,-0.004926844500005245,-0.024767380207777023,-0.015712639316916466
1771073692923240200,7.451240234375,-0.002796316985040903,-0.02157158963382244,0.0002663159102667123
1771073692933180000,7.461179931640625,-0.002796316985040903,-0.0141147430986166,0.027963170781731606
1771073692943120000,7.471119873046875,-0.0006657897611148655,-0.0023968431632965803,0.05352949723601341
1771073692953059600,7.4810595703125,0.005725792143493891,0.021038956940174103,0.06311687082052231
1771073692962999300,7.490999267578125,0.007856319658458233,0.0540621280670166,0.05033370852470398
1771073692972939300,7.500939208984375,0.0025300011038780212,0.06684529036283493,0.024767380207777023
1771073692982879000,7.51087890625,-0.005992108024656773,0.05193160101771355,-0.002929474925622344
1771073692992818700,7.520818603515625,-0.014514217153191566,0.016777902841567993,-0.023169483989477158
1771073693002758700,7.530758544921875,-0.018775271251797676,-0.019441060721874237,-0.03488738462328911
1771073693012698400,7.540698486328125,-0.015579480677843094,-0.02263685315847397,-0.03914843872189522
1771073693022638000,7.55063818359375,-0.010253162123262882,-0.005592633970081806,-0.03382211923599243
1771073693032577800,7.560577880859375,-0.004926844500005245,0.008255792781710625,-0.013582111336290836
1771073693042517800,7.570517822265625,0.0025300011038780212,0.00612526573240757,0.016245270147919655
1771073693052457500,7.58045751953125,0.012117373757064342,-0.001331579522229731,0.04394212365150452
1771073693062397200,7.590397216796875,0.02277000993490219,-0.005592633970081806,0.0588558167219162
1771073693072337200,7.600337158203125,0.028096329420804977,0.0007989477599039674,0.05033370852470398
1771073693082276900,7.61027685546875,0.03129211813211441,0.012516847811639309,0.019441060721874237
1771073693092216600,7.620216552734375,0.029161592945456505,0.013582111336290836,-0.015712639316916466
1771073693102156500,7.630156494140625,0.033422645181417465,0.010386320762336254,-0.04127896577119827
1771073693112096300,7.64009619140625,0.04620581120252609,0.011451584286987782,-0.05086633935570717
1771073693122036000,7.650035888671875,0.05579318478703499,0.013582111336290836,-0.04767054691910744
1771073693131976000,7.659975830078125,0.061119500547647476,0.016777902841567993,-0.03275685757398605
1771073693141915600,7.66991552734375,0.05685844644904137,0.018908429890871048,-0.016777902841567993
1771073693151855400,7.67985546875,0.04727107286453247,0.012516847811639309,-0.007190529722720385
1771073693161795300,7.68979541015625,0.03768370300531387,0.009321057237684727,-0.007190529722720385
1771073693171735000,7.699735107421875,0.025965800508856773,0.013582111336290836,-0.01784316636621952
1771073693181674800,7.7096748046875,0.009986846707761288,0.023169483989477158,-0.03275685757398605
1771073693191614500,7.719614501953125,-0.002796316985040903,0.030626330524683,-0.04127896577119827
1771073693201554400,7.729554443359375,-0.0070573715493083,0.028495801612734795,-0.03808317333459854
1771073693211494100,7.739494140625,0.0003994738799519837,0.02210422046482563,-0.030626330524683
1771073693221433900,7.749433837890625,0.009986846707761288,0.015712639316916466,-0.02210422046482563
1771073693231373800,7.759373779296875,0.0153131652623415,0.0007989477599039674,-0.018908429890871048
1771073693241313500,7.7693134765625,0.014247900806367397,-0.011984216049313545,-0.024234747514128685
1771073693251253200,7.779253173828125,0.011052110232412815,-0.015180006623268127,-0.03382211923599243
1771073693261193200,7.789193115234375,0.007856319658458233,-0.008788425475358963,-0.03914843872189522
1771073693271133000,7.7991328125,0.0003994738799519837,-0.0002663159102667123,-0.03488738462328911
1771073693281072600,7.80907275390625,-0.005992108024656773,0.003994738683104515,-0.016777902841567993
1771073693291012600,7.8190126953125,-0.012383690103888512,-0.006657897960394621,0.007723161485046148
1771073693300952300,7.828952392578125,-0.019840534776449203,-0.03009369783103466,0.03009369783103466
1771073693310892000,7.83889208984375,-0.023036325350403786,-0.036485280841588974,0.03968106955289841
1771073693320832000,7.84883203125,-0.028362644836306572,-0.02263685315847397,0.0354200154542923
1771073693330771700,7.858771728515625,-0.03795001655817032,-0.001331579522229731,0.026897907257080078
1771073693340711400,7.86871142578125,-0.04434159770607948,0.014647374860942364,0.020506324246525764
1771073693350651100,7.878651123046875,-0.043276336044073105,0.02636527456343174,0.02263685315847397
1771073693360591000,7.888591064453125,-0.04114580899477005,0.025300011038780212,0.026897907257080078
1771073693370530800,7.89853076171875,-0.035819489508867264,0.025300011038780212,0.03328948840498924
1771073693380470500,7.908470458984375,-0.031558435410261154,0.030626330524683,0.03861580789089203
1771073693390410500,7.918410400390625,-0.03262370079755783,0.03275685757398605,0.04394212365150452
1771073693400350200,7.92835009765625,-0.034754227846860886,0.028495801612734795,0.04713791608810425
1771073693410290000,7.9382900390625,-0.03368896245956421,0.01784316636621952,0.048203181475400925
1771073693420230000,7.94822998046875,-0.03262370079755783,-0.004527370445430279,0.05033370852470398
1771073693430169600,7.958169677734375,-0.03262370079755783,-0.029028434306383133,0.05566002428531647
1771073693440109300,7.968109375,-0.03262370079755783,-0.04181159660220146,0.06311687082052231
1771073693450049300,7.97804931640625,-0.031558435410261154,-0.04394212365150452,0.07163897901773453
1771073693459989000,7.987989013671875,-0.026232117787003517,-0.03328948840498924,0.07909582555294037
1771073693469928700,7.9979287109375,-0.01771000772714615,-0.00985368900001049,0.08122635632753372
1771073693479868400,8.007868408203125,-0.004926844500005245,0.010386320762336254,0.07909582555294037
1771073693489808400,8.017808349609375,0.004660528618842363,0.02210422046482563,0.0727042406797409
1771073693499748000,8.027748046875,0.017443692311644554,0.016777902841567993,0.06311687082052231
1771073693509687800,8.037687744140625,0.030226856470108032,0.0050600022077560425,0.05033370852470398
1771073693519627800,8.047627685546875,0.04407528415322304,-0.0023968431632965803,0.03009369783103466
1771073693529567500,8.0575673828125,0.061119500547647476,0.003994738683104515,0.004527370445430279
1771073693539507200,8.067507080078125,0.0739026665687561,0.014647374860942364,-0.019973693415522575
1771073693549447200,8.077447265625,0.08135951310396194,0.014647374860942364,-0.03382211923599243
1771073693559387000,8.087386962890625,0.08775109052658081,0.003994738683104515,-0.03488738462328911
1771073693569326600,8.09732666015625,0.09201214462518692,-0.015180006623268127,-0.028495801612734795
1771073693579266600,8.1072666015625,0.09520793706178665,-0.032224226742982864,-0.016777902841567993
1771073693589206300,8.117206298828124,0.08988162130117416,-0.03755054250359535,-0.0050600022077560425
1771073693599146000,8.12714599609375,0.08242477476596832,-0.03009369783103466,0.0002663159102667123
1771073693609086000,8.1370859375,0.07283740490674973,-0.013049479573965073,-0.0018642114009708166
1771073693619025700,8.147025634765624,0.049401599913835526,-0.0023968431632965803,-0.00612526573240757
1771073693628965400,8.15696533203125,0.02277000993490219,-0.006657897960394621,-0.010386320762336254
1771073693638905000,8.166905029296874,0.011052110232412815,-0.0141147430986166,-0.019973693415522575
1771073693648845000,8.176844970703126,-0.0017310534603893757,-0.013049479573965073,-0.03488738462328911
1771073693658784800,8.18678466796875,-0.013448953628540039,0.016777902841567993,-0.0540621280670166
1771073693668724500,8.196724365234376,-0.01771000772714615,0.04127896577119827,-0.0774979293346405
1771073693678664400,8.20666455078125,-0.01771000772714615,0.048735812306404114,-0.09454214572906494
1771073693688604200,8.216604248046876,-0.0294279083609581,0.02210422046482563,-0.09986846894025803
1771073693698543900,8.2265439453125,-0.04434159770607948,-0.017310533672571182,-0.09347688406705856
1771073693708483800,8.23648388671875,-0.05392897129058838,-0.04394212365150452,-0.07856319099664688
1771073693718423600,8.246423583984376,-0.05819002538919449,-0.05352949723601341,-0.06258423626422882
1771073693728363300,8.25636328125,-0.06032055243849754,-0.05566002428531647,-0.044474758207798004
1771073693738303200,8.26630322265625,-0.0624510794878006,-0.05033370852470398,-0.023169483989477158
1771073693748243000,8.276242919921875,-0.05712476372718811,-0.04181159660220146,-0.011451584286987782
1771073693758182700,8.2861826171875,-0.04434159770607948,-0.04181159660220146,-0.011451584286987782
1771073693768122600,8.29612255859375,-0.024101590737700462,-0.029028434306383133,-0.025300011038780212
1771073693778062300,8.306062255859375,-0.003861580742523074,-0.0023968431632965803,-0.04234423115849495
1771073693788002300,8.316002197265625,0.017443692311644554,0.024234747514128685,-0.06151897460222244
1771073693797942000,8.32594189453125,0.03768370300531387,0.04554001986980438,-0.07643266767263412
1771073693807882000,8.335882080078125,0.05153212696313858,0.040213704109191895,-0.07962846010923386
1771073693817821700,8.34582177734375,0.05579318478703499,-0.0002663159102667123,-0.07643266767263412
1771073693827761700,8.35576171875,0.04727107286453247,-0.05139897018671036,-0.0679105594754219
1771073693837701600,8.36570166015625,0.024900536984205246,-0.08655267208814621,-0.056192658841609955
1771073693847641300,8.375641357421875,-0.0017310534603893757,-0.09400951862335205,-0.040213704109191895
1771073693857581300,8.385581298828125,-0.018775271251797676,-0.07163897901773453,-0.027430538088083267
1771073693867521000,8.39552099609375,-0.027297381311655045,-0.0354200154542923,-0.019973693415522575
1771073693877461000,8.4054609375,-0.026232117787003517,-0.0023968431632965803,-0.013582111336290836
1771073693887400700,8.415400634765625,-0.009187898598611355,-0.008788425475358963,0.015180006623268127
1771073693897340700,8.425340576171875,0.016378428786993027,0.016777902841567993,0.031158961355686188
1771073693907280400,8.4352802734375,0.0270310640335083,0.060453712940216064,-0.013582111336290836
1771073693917220400,8.445220458984375,0.04407528415322304,0.08069372177124023,-0.08815056830644608
1771073693927160000,8.45516015625,0.06218476593494415,0.09986846894025803,-0.16165375709533691
1771073693937100000,8.46510009765625,0.07283740490674973,0.11265163123607635,-0.21598219871520996
1771073693947039700,8.475039794921875,0.08775109052658081,0.10839057713747025,-0.24474431574344635
1771073693956979700,8.484979736328125,0.09627319872379303,0.09347688406705856,-0.24794010818004608
1771073693966919400,8.49491943359375,0.08988162130117416,0.07643266767263412,-0.2191779911518097
1771073693976859400,8.504859375,0.08029424399137497,0.04980107396841049,-0.16591481864452362
1771073693986799000,8.514799072265625,0.06325002759695053,0.028495801612734795,-0.10626004636287689
1771073693996739000,8.524739013671875,0.03874896466732025,0.029561065137386322,-0.0540621280670166
1771073694006678800,8.5346787109375,0.011052110232412815,0.06471476703882217,-0.013582111336290836
1771073694016618800,8.54461865234375,-0.013448953628540039,0.11265163123607635,0.010918952524662018
1771073694026558500,8.554558349609374,-0.03368896245956421,0.1392832249403,0.024767380207777023
1771073694036498400,8.56449853515625,-0.04647212475538254,0.13715268671512604,0.031158961355686188
1771073694046438100,8.574438232421874,-0.054994236677885056,0.12117373943328857,0.032224226742982864
1771073694056377900,8.5843779296875,-0.05819002538919449,0.10626004636287689,0.032224226742982864
1771073694066317800,8.59431787109375,-0.05819002538919449,0.08921582996845245,0.029028434306383133
1771073694076257500,8.604257568359374,-0.05712476372718811,0.07110634446144104,0.019441060721874237
1771073694086197200,8.614197265625,-0.043276336044073105,0.060453712940216064,-0.002929474925622344
1771073694096137200,8.62413720703125,-0.027297381311655045,0.04767054691910744,-0.035952646285295486
1771073694106077000,8.634076904296874,-0.008122635073959827,0.024234747514128685,-0.07004108279943466
1771073694116016600,8.6440166015625,0.009986846707761288,-0.008788425475358963,-0.0966726765036583
1771073694125956600,8.65395654296875,0.028096329420804977,-0.05139897018671036,-0.10412952303886414
1771073694135896300,8.663896240234376,0.04727107286453247,-0.09827057272195816,-0.08815056830644608
1771073694145836000,8.6738359375,0.05472791939973831,-0.14407691359519958,-0.056192658841609955
1771073694155776000,8.68377587890625,0.040879491716623306,-0.1856221854686737,-0.023169483989477158
1771073694165715700,8.6937158203125,0.0153131652623415,-0.22610220313072205,0.0002663159102667123
1771073694175655400,8.703655517578126,-0.005992108024656773,-0.24634221196174622,0.02157158963382244
1771073694185595100,8.71359521484375,-0.011318426579236984,-0.2420811653137207,0.04287686198949814
1771073694195535000,8.72353515625,-0.010253162123262882,-0.21971063315868378,0.060986343771219254
1771073694205474800,8.733474853515625,-0.02090579830110073,-0.19414429366588593,0.0588558167219162
1771073694215414500,8.74341455078125,-0.03795001655817032,-0.171773761510849,0.023702116683125496
1771073694225354500,8.7533544921875,-0.04434159770607948,-0.13555480539798737,-0.040213704109191895
1771073694235294200,8.763294189453125,-0.03795001655817032,-0.08548741042613983,-0.10306425392627716
1771073694245234000,8.77323388671875,-0.02516685426235199,-0.029028434306383133,-0.1392832249403
1771073694255174000,8.783173828125,-0.004926844500005245,0.013582111336290836,-0.14460954070091248
1771073694265113600,8.793113525390625,0.017443692311644554,0.06151897460222244,-0.12756532430648804
1771073694275053300,8.80305322265625,0.03768370300531387,0.11265163123607635,-0.10626004636287689
1771073694284993300,8.8129931640625,0.05153212696313858,0.13608743250370026,-0.0870852991938591
1771073694294933000,8.82293310546875,0.05259739235043526,0.12117373943328857,-0.07217161357402802
1771073694304872700,8.832872802734375,0.045140545815229416,0.0913463607430458,-0.06897582113742828
1771073694314812700,8.842812744140625,0.03448791056871414,0.04767054691910744,-0.07110634446144104
1771073694324752400,8.85275244140625,0.016378428786993027,-0.001331579522229731,-0.0774979293346405
1771073694334692000,8.862692138671875,-0.009187898598611355,-0.03328948840498924,-0.06578002870082855
1771073694344631800,8.8726318359375,-0.027297381311655045,-0.04181159660220146,-0.03275685757398605
1771073694354571800,8.88257177734375,-0.031558435410261154,-0.03435475379228592,0.013049479573965073
1771073694364511500,8.892511474609375,-0.023036325350403786,-0.019441060721874237,0.05779055133461952
1771073694374451200,8.902451171875,-0.011318426579236984,-0.007723161485046148,0.07909582555294037
1771073694384391200,8.91239111328125,-0.0006657897611148655,0.013582111336290836,0.07483477145433426
1771073694394331000,8.922330810546875,0.0035952648613601923,0.03275685757398605,0.04713791608810425
1771073694404270600,8.9322705078125,0.001464737462811172,0.03914843872189522,0.013049479573965073
1771073694414210600,8.94221044921875,0.0025300011038780212,0.040213704109191895,-0.010386320762336254
1771073694424150300,8.952150390625,0.007856319658458233,0.03488738462328911,-0.023169483989477158
1771073694434090000,8.962090087890624,0.012117373757064342,0.025300011038780212,-0.023169483989477158
1771073694444030000,8.972030029296874,0.004660528618842363,0.010386320762336254,-0.012516847811639309
1771073694453969700,8.9819697265625,-0.003861580742523074,-0.0023968431632965803,0.006657897960394621
1771073694463909400,8.991909423828124,-0.002796316985040903,0.008255792781710625,0.023702116683125496
1771073694473849300,9.001849365234374,0.004660528618842363,0.03488738462328911,0.03968106955289841
1771073694483789000,9.0117890625,0.009986846707761288,0.05725792050361633,0.05566002428531647
1771073694493728800,9.021728759765624,0.009986846707761288,0.05832318589091301,0.07696529477834702
1771073694503668500,9.03166845703125,0.004660528618842363,0.044474758207798004,0.09827057272195816
1771073694513608400,9.0416083984375,-0.004926844500005245,0.025300011038780212,0.11424952745437622
1771073694523548200,9.051548095703126,-0.02197106182575226,0.0018642114009708166,0.11851058155298233
1771073694533487900,9.06148779296875,-0.04221107065677643,-0.015180006623268127,0.10998847335577011
1771073694543427800,9.071427734375,-0.06138581782579422,-0.02157158963382244,0.0918789878487587
1771073694553367600,9.081367431640626,-0.07523424178361893,-0.005592633970081806,0.07376950979232788
1771073694563307300,9.091307373046876,-0.0858868807554245,0.024234747514128685,0.06418213248252869
1771073694573247200,9.101247314453126,-0.09227846562862396,0.04980107396841049,0.0684431865811348
1771073694583187000,9.11118701171875,-0.09014793485403061,0.06471476703882217,0.08016108721494675
1771073694593126700,9.121126708984375,-0.08269108831882477,0.07217161357402802,0.09827057272195816
1771073694603066600,9.131066650390625,-0.0762995108962059,0.07430213689804077,0.11744531989097595
1771073694613006300,9.14100634765625,-0.08056056499481201,0.06151897460222244,0.13235901296138763
1771073694622946000,9.150946044921875,-0.09653951972723007,0.018908429890871048,0.13129374384880066
1771073694632885800,9.1608857421875,-0.10825742036104202,-0.03328948840498924,0.10359688848257065
1771073694642825700,9.17082568359375,-0.10399636626243591,-0.06524740159511566,0.0588558167219162
1771073694652765400,9.180765380859375,-0.08695214241743088,-0.05992107838392258,0.011984216049313545
1771073694662705200,9.190705078125,-0.06351634114980698,-0.04181159660220146,-0.007190529722720385
1771073694672645000,9.20064501953125,-0.03795001655817032,-0.07376950979232788,0.0354200154542923
1771073694682584800,9.210584716796875,0.02277000993490219,-0.03435475379228592,0.06631266325712204
1771073694692524500,9.220524658203125,0.07922898232936859,0.05512739345431328,0.08868319541215897
1771073694702464500,9.230464599609375,0.10053425282239914,0.07430213689804077,0.11424952745437622
1771073694712404200,9.240404296875,0.08562056720256805,0.016777902841567993,0.13129374384880066
1771073694722344000,9.250343994140625,0.053662657737731934,-0.04713791608810425,0.13129374384880066
1771073694732284000,9.260283935546875,0.030226856470108032,-0.07376950979232788,0.10998847335577011
1771073694742223600,9.2702236328125,0.01318263728171587,-0.0727042406797409,0.07803056389093399
1771073694752163300,9.280163330078125,0.0025300011038780212,-0.06737792491912842,0.05033370852470398
1771073694762103300,9.290103271484375,0.0025300011038780212,-0.07803056389093399,0.03435475379228592
1771073694772043000,9.30004296875,0.016378428786993027,-0.08974846452474594,0.032224226742982864
1771073694781982700,9.309982666015625,0.029161592945456505,-0.08655267208814621,0.03968106955289841
1771073694791922400,9.31992236328125,0.0270310640335083,-0.07696529477834702,0.05566002428531647
1771073694801862400,9.3298623046875,0.014247900806367397,-0.05992107838392258,0.0727042406797409
1771073694811802000,9.339802001953124,0.001464737462811172,-0.03328948840498924,0.08442214131355286
1771073694821741800,9.349741943359374,-0.012383690103888512,-0.02157158963382244,0.09400951862335205
1771073694841621500,9.36962158203125,-0.039015281945466995,-0.011984216049313545,0.08974846452474594
1771073694851561200,9.379561279296874,-0.054994236677885056,-0.0002663159102667123,0.07590003311634064
1771073694861501200,9.389501220703124,-0.056059498339891434,0.007190529722720385,0.056725289672613144
1771073694871441000,9.39944091796875,-0.047537390142679214,0.019973693415522575,0.029028434306383133
1771073694881380600,9.409380615234374,-0.03368896245956421,0.04660528525710106,0.008788425475358963
1771073694891320600,9.419320556640624,-0.019840534776449203,0.06258423626422882,0.0002663159102667123
1771073694901260300,9.42926025390625,-0.0006657897611148655,0.05299686640501022,0.001331579522229731
1771073694911200000,9.439199951171876,0.020639482885599136,0.03488738462328911,0.005592633970081806
1771073694921140000,9.449139892578126,0.033422645181417465,0.014647374860942364,0.004527370445430279
1771073694931079700,9.45907958984375,0.0366184376180172,0.0007989477599039674,0.0002663159102667123
1771073694941019400,9.469019287109376,0.03235738351941109,0.0007989477599039674,-0.00612526573240757
1771073694950959000,9.478958984375,0.021704746410250664,0.00612526573240757,-0.009321057237684727
1771073694960899000,9.488899169921876,0.006791055668145418,0.011451584286987782,-0.00612526573240757
1771073694970838800,9.4988388671875,-0.004926844500005245,0.003994738683104515,0.007723161485046148
1771073694980778500,9.508778564453126,-0.010253162123262882,-0.008788425475358963,0.0354200154542923
1771073694990718500,9.518718505859376,-0.010253162123262882,-0.011984216049313545,0.05566002428531647
1771073695000658200,9.528658203125,-0.014514217153191566,-0.0023968431632965803,0.06524740159511566
1771073695010598000,9.538597900390625,-0.019840534776449203,0.002929474925622344,0.06418213248252869
1771073695020537900,9.548537841796875,-0.019840534776449203,0.003994738683104515,0.05139897018671036
1771073695030477600,9.5584775390625,-0.018775271251797676,0.012516847811639309,0.03009369783103466
1771073695040417300,9.568417236328125,-0.018775271251797676,0.019973693415522575,0.008788425475358963
1771073695050357200,9.578357177734375,-0.02090579830110073,0.007190529722720385,-0.00612526573240757
1771073695060297000,9.588296875,-0.02090579830110073,-0.023702116683125496,-0.014647374860942364
1771073695070236700,9.598236572265625,-0.019840534776449203,-0.04287686198949814,-0.025300011038780212
1771073695080176600,9.6081767578125,-0.019840534776449203,-0.036485280841588974,-0.03488738462328911
1771073695090116400,9.618116455078125,-0.019840534776449203,-0.02263685315847397,-0.03914843872189522
1771073695100056000,9.62805615234375,-0.018775271251797676,-0.02263685315847397,-0.03488738462328911
1771073695109995800,9.637995849609375,-0.014514217153191566,-0.03328948840498924,-0.025300011038780212
1771073695119935700,9.647935791015625,-0.004926844500005245,-0.03435475379228592,-0.016777902841567993
1771073695129875500,9.65787548828125,0.00892158318310976,-0.02583264373242855,-0.016777902841567993
1771073695139815200,9.667815185546875,0.025965800508856773,-0.0034621069207787514,-0.023169483989477158
1771073695149755100,9.677755126953125,0.04620581120252609,0.03914843872189522,-0.029561065137386322
1771073695159694800,9.68769482421875,0.06431528925895691,0.07110634446144104,-0.024234747514128685
1771073695169634600,9.697634521484375,0.07070687413215637,0.06471476703882217,-0.003994738683104515
1771073695179574500,9.707574462890625,0.07816372066736221,0.021038956940174103,0.02263685315847397
1771073695189514200,9.71751416015625,0.0600542388856411,-0.03435475379228592,0.05033370852470398
1771073695199454000,9.727453857421875,0.03448791056871414,-0.060986343771219254,0.07803056389093399
1771073695209394000,9.737393798828125,0.017443692311644554,-0.07163897901773453,0.09827057272195816
1771073695219333600,9.747333740234374,0.00892158318310976,-0.06418213248252869,0.10785794258117676
1771073695229273300,9.7572734375,0.005725792143493891,-0.060986343771219254,0.11105373501777649
1771073695239213000,9.767213134765624,-0.003861580742523074,-0.07590003311634064,0.10040109604597092
1771073695249153000,9.777153076171874,-0.026232117787003517,-0.07803056389093399,0.0727042406797409
1771073695259092700,9.7870927734375,-0.043276336044073105,-0.060986343771219254,0.04287686198949814
1771073695269032400,9.797032470703124,-0.051798444241285324,-0.04394212365150452,0.02263685315847397
1771073695278972400,9.806972412109374,-0.052863709628582,-0.04181159660220146,0.015180006623268127
1771073695288912100,9.816912109375,-0.04860265180468559,-0.036485280841588974,0.011984216049313545
1771073695298851800,9.826851806640626,-0.04434159770607948,-0.008788425475358963,0.013049479573965073
1771073695308791800,9.836791748046876,-0.03795001655817032,0.03275685757398605,0.016245270147919655
1771073695318731500,9.8467314453125,-0.02516685426235199,0.06151897460222244,0.015180006623268127
1771073695328671200,9.856671142578126,-0.010253162123262882,0.05299686640501022,0.008788425475358963
1771073695338611200,9.866611083984376,0.001464737462811172,0.02636527456343174,0.004527370445430279
1771073695348551000,9.876551025390626,0.005725792143493891,0.010386320762336254,-0.007190529722720385
1771073695358490600,9.88649072265625,-0.0006657897611148655,0.007190529722720385,-0.01784316636621952
1771073695368430600,9.8964306640625,-0.015579480677843094,0.002929474925622344,-0.018908429890871048
1771073695378370300,9.906370361328126,-0.027297381311655045,-0.010918952524662018,-0.0050600022077560425
1771073695388310000,9.91631005859375,-0.031558435410261154,-0.02157158963382244,0.02157158963382244
1771073695398249700,9.926249755859375,-0.03795001655817032,-0.026897907257080078,0.052464235574007034
1771073695408189700,9.936189697265625,-0.04647212475538254,-0.017310533672571182,0.06950845569372177
1771073695418129400,9.94612939453125,-0.05392897129058838,0.0018642114009708166,0.07803056389093399
1771073695428069400,9.9560693359375,-0.05819002538919449,0.01784316636621952,0.08016108721494675
1771073695438009000,9.966009033203125,-0.05819002538919449,0.028495801612734795,0.08442214131355286
1771073695447949000,9.975948974609375,-0.054994236677885056,0.021038956940174103,0.08868319541215897
1771073695457888800,9.985888671875,-0.050733182579278946,0.010386320762336254,0.08655267208814621
1771073695467828700,9.995828857421875,-0.04434159770607948,0.013582111336290836,0.07803056389093399
1771073695477768400,10.0057685546875,-0.035819489508867264,0.012516847811639309,0.05992107838392258
1771073695487708400,10.01570849609375,-0.02516685426235199,-0.0023968431632965803,0.048203181475400925
1771073695497648000,10.025648193359375,-0.010253162123262882,-0.03435475379228592,0.052464235574007034
1771073695507588000,10.035588134765625,0.005725792143493891,-0.05992107838392258,0.06418213248252869
1771073695517527800,10.04552783203125,0.0153131652623415,-0.07696529477834702,0.07696529477834702
1771073695527467800,10.0554677734375,0.012117373757064342,-0.08548741042613983,0.08761793375015259
1771073695537407500,10.065407470703125,-0.0006657897611148655,-0.08016108721494675,0.08868319541215897
1771073695547347500,10.075347412109375,-0.01771000772714615,-0.05992107838392258,0.08442214131355286
1771073695557287200,10.085287109375,-0.034754227846860886,-0.036485280841588974,0.08016108721494675
1771073695567227100,10.09522705078125,-0.04860265180468559,-0.0141147430986166,0.08016108721494675
1771073695577166800,10.105166748046875,-0.05392897129058838,0.003994738683104515,0.0822916179895401
1771073695587106800,10.11510693359375,-0.050733182579278946,0.008255792781710625,0.08442214131355286
1771073695597046500,10.125046630859375,-0.03795001655817032,0.00612526573240757,0.09507478028535843
1771073695606986500,10.134986572265625,-0.023036325350403786,0.010386320762336254,0.11318425834178925
1771073695616926200,10.14492626953125,-0.0070573715493083,0.0050600022077560425,0.12809795141220093
1771073695626866200,10.1548662109375,0.004660528618842363,-0.0002663159102667123,0.13342426717281342
1771073695636806000,10.164805908203125,0.011052110232412815,0.007190529722720385,0.13342426717281342
1771073695646745900,10.174745849609375,0.007856319658458233,0.008255792781710625,0.1430116444826126
1771073695656685600,10.184685546875,0.0003994738799519837,-0.017310533672571182,0.16325165331363678
1771073695666625500,10.19462548828125,-0.005992108024656773,-0.04607265070080757,0.1771000772714615
1771073695676565200,10.204565185546874,-0.009187898598611355,-0.052464235574007034,0.18349166214466095
1771073695686505200,10.214505126953124,-0.011318426579236984,-0.04181159660220146,0.1771000772714615
1771073695696445000,10.22444482421875,-0.013448953628540039,-0.0354200154542923,0.16538217663764954
1771073695706385000,10.234385009765624,-0.019840534776449203,-0.040746334940195084,0.15579481422901154
1771073695716324900,10.244324951171874,-0.027297381311655045,-0.04713791608810425,0.14940322935581207
1771073695726264600,10.2542646484375,-0.028362644836306572,-0.05566002428531647,0.14727269113063812
1771073695736204300,10.264204345703124,-0.02090579830110073,-0.05459476262331009,0.14620743691921234
1771073695746144000,10.27414404296875,-0.008122635073959827,-0.03861580789089203,0.13555480539798737
1771073695756084000,10.284083984375,0.011052110232412815,-0.010918952524662018,0.11957584321498871
1771073695766023700,10.294023681640626,0.030226856470108032,0.010386320762336254,0.10466215014457703
1771073695775963400,10.30396337890625,0.053662657737731934,0.028495801612734795,0.08761793375015259
1771073695785903400,10.3139033203125,0.07709845900535583,0.018908429890871048,0.08442214131355286
1771073695795843000,10.323843017578126,0.09520793706178665,0.003994738683104515,0.09827057272195816
1771073695805782800,10.33378271484375,0.09946899116039276,0.019973693415522575,0.12277163565158844
1771073695815722800,10.34372265625,0.08881635963916779,0.05299686640501022,0.13981585204601288
1771073695825662500,10.353662353515626,0.06857634335756302,0.07856319099664688,0.1483379602432251
1771073695835602200,10.363602294921876,0.03981423005461693,0.07110634446144104,0.1483379602432251
1771073695845542100,10.373542236328126,0.011052110232412815,0.04767054691910744,0.13768532872200012
1771073695855481900,10.38348193359375,-0.011318426579236984,0.02210422046482563,0.1153147891163826
1771073695865421600,10.393421630859375,-0.02516685426235199,0.0050600022077560425,0.08868319541215897
1771073695875361300,10.403361328125,-0.03368896245956421,0.0050600022077560425,0.06524740159511566
1771073695885301200,10.41330126953125,-0.03795001655817032,0.015712639316916466,0.03861580789089203
1771073695895241000,10.423240966796875,-0.03262370079755783,0.023169483989477158,0.016245270147919655
1771073695905180700,10.4331806640625,-0.024101590737700462,0.021038956940174103,-0.0050600022077560425
1771073695915120600,10.44312060546875,-0.014514217153191566,0.011451584286987782,-0.019973693415522575
1771073695925060400,10.453060302734375,-0.004926844500005245,0.016777902841567993,-0.044474758207798004
1771073695935000000,10.463,-0.003861580742523074,0.035952646285295486,-0.07430213689804077
1771073695944940000,10.47293994140625,-0.0070573715493083,0.04660528525710106,-0.10199899226427078
1771073695954879700,10.482879638671875,-0.011318426579236984,0.05725792050361633,-0.12863057851791382
1771073695964819500,10.4928193359375,-0.011318426579236984,0.0774979293346405,-0.15952323377132416
1771073695974759400,10.502759521484375,-0.011318426579236984,0.09986846894025803,-0.19361166656017303
1771073695984699100,10.51269921875,-0.01771000772714615,0.11904320865869522,-0.23089589178562164
1771073695994638800,10.522638916015625,-0.024101590737700462,0.14034847915172577,-0.2745717167854309
1771073696004578800,10.532578857421875,-0.028362644836306572,0.15526217222213745,-0.3075948655605316
1771073696014518500,10.5425185546875,-0.035819489508867264,0.148870587348938,-0.30972540378570557
1771073696024458200,10.552458251953125,-0.04114580899477005,0.12543480098247528,-0.2894853949546814
1771073696034398000,10.56239794921875,-0.04114580899477005,0.10732531547546387,-0.2649843394756317
1771073696044338000,10.572337890625,-0.04647212475538254,0.11371689289808273,-0.25859275460243225
1771073696054277600,10.582277587890625,-0.06671213358640671,0.11584742367267609,-0.27244117856025696
1771073696064217300,10.59221728515625,-0.12743216753005981,0.1009337306022644,-0.3043990731239319
1771073696074157300,10.6021572265625,-0.19987009465694427,0.02636527456343174,-0.33422645926475525
1771073696084097000,10.612096923828124,-0.16684691607952118,0.01784316636621952,-0.3139864504337311
1771073696094036700,10.62203662109375,-0.10506162792444229,0.13502216339111328,-0.2095906287431717
1771073696103976700,10.631976806640624,-0.06884266436100006,0.21598219871520996,-0.05832318589091301
1771073696113916400,10.64191650390625,-0.056059498339891434,0.16591481864452362,0.07057371735572815
1771073696123856100,10.651856201171874,-0.04434159770607948,0.06578002870082855,0.1153147891163826
1771073696133796000,10.661796142578124,-0.035819489508867264,0.04127896577119827,0.07376950979232788
1771073696143735800,10.67173583984375,-0.04647212475538254,0.09347688406705856,-0.012516847811639309
1771073696153675500,10.681675537109374,-0.07523424178361893,0.13289164006710052,-0.09560741484165192
1771073696163615500,10.691615478515626,-0.10399636626243591,0.10306425392627716,-0.148870587348938
1771073696173555200,10.70155517578125,-0.10825742036104202,0.03275685757398605,-0.15952323377132416
1771073696183495000,10.711494873046876,-0.10506162792444229,-0.03755054250359535,-0.13182637095451355
1771073696193434600,10.7214345703125,-0.10399636626243591,-0.07483477145433426,-0.08602003753185272
1771073696203374600,10.73137451171875,-0.09867004305124283,-0.0727042406797409,-0.04127896577119827
1771073696213314300,10.741314208984376,-0.09227846562862396,-0.04394212365150452,-0.008255792781710625
1771073696223254000,10.75125390625,-0.08162582665681839,-0.0141147430986166,0.010918952524662018
1771073696233194000,10.761194091796876,-0.06458161026239395,0.008255792781710625,0.015180006623268127
1771073696243133700,10.7711337890625,-0.04221107065677643,0.03275685757398605,0.00985368900001049
1771073696253073400,10.781073486328125,-0.02516685426235199,0.05086633935570717,-0.00612526573240757
1771073696263013400,10.791013427734375,-0.015579480677843094,0.05832318589091301,-0.02210422046482563
1771073696272953000,10.800953125,-0.003861580742523074,0.0540621280670166,-0.030626330524683
1771073696282892800,10.810892822265625,0.00892158318310976,0.03382211923599243,-0.03914843872189522
1771073696292832800,10.820832763671875,0.024900536984205246,0.014647374860942364,-0.04767054691910744
1771073696302772500,10.8307724609375,0.03981423005461693,0.002929474925622344,-0.05725792050361633
1771073696312712200,10.840712158203125,0.04620581120252609,-0.007723161485046148,-0.0774979293346405
1771073696322652200,10.850652099609375,0.04301001876592636,-0.02157158963382244,-0.09347688406705856
1771073696332591900,10.860591796875,0.04194475710391998,-0.031158961355686188,-0.10945583879947662
1771073696342531600,10.870531494140625,0.040879491716623306,-0.020506324246525764,-0.1243695318698883
1771073696352471300,10.88047119140625,0.03555317223072052,0.003994738683104515,-0.12863057851791382
1771073696362411300,10.890411376953125,0.030226856470108032,0.013582111336290836,-0.12330426275730133
1771073696372351000,10.90035107421875,0.028096329420804977,0.009321057237684727,-0.110521100461483
1771073696382290700,10.910290771484375,0.028096329420804977,0.003994738683104515,-0.09986846894025803
1771073696392230700,10.920230712890625,0.028096329420804977,0.014647374860942364,-0.09773793816566467
1771073696402170400,10.93017041015625,0.0270310640335083,0.04127896577119827,-0.10306425392627716
1771073696412110000,10.940110107421875,0.0270310640335083,0.060453712940216064,-0.10626004636287689
1771073696422050000,10.950050048828125,0.028096329420804977,0.05193160101771355,-0.10626004636287689
1771073696431989800,10.95998974609375,0.03235738351941109,0.02210422046482563,-0.09880319982767105
1771073696441929500,10.969929443359375,0.03981423005461693,-0.0034621069207787514,-0.0870852991938591
1771073696451869400,10.979869384765625,0.0366184376180172,-0.011984216049313545,-0.06684529036283493
1771073696461809200,10.98980908203125,0.025965800508856773,-0.015180006623268127,-0.044474758207798004
1771073696471748900,10.999748779296874,0.016378428786993027,-0.015180006623268127,-0.028495801612734795
1771073696481688600,11.0096884765625,0.014247900806367397,-0.007723161485046148,-0.02636527456343174
1771073696491628500,11.019628662109374,0.012117373757064342,0.0050600022077560425,-0.029561065137386322
1771073696501568300,11.029568359375,0.009986846707761288,0.01784316636621952,-0.040213704109191895
1771073696511508000,11.039508056640624,0.014247900806367397,0.03275685757398605,-0.048735812306404114
1771073696521448000,11.049447998046874,0.01957421936094761,0.03275685757398605,-0.05725792050361633
1771073696531387600,11.0593876953125,0.025965800508856773,0.027430538088083267,-0.0636495053768158
1771073696541327400,11.069327392578124,0.03448791056871414,0.027430538088083267,-0.07430213689804077
1771073696551267300,11.079267333984374,0.03981423005461693,0.04660528525710106,-0.08602003753185272
1771073696561207000,11.08920703125,0.03981423005461693,0.05938844755291939,-0.08602003753185272
1771073696571146800,11.099146728515626,0.03981423005461693,0.04980107396841049,-0.07430213689804077
1771073696581086700,11.109086669921876,0.04833633825182915,0.024234747514128685,-0.060453712940216064
1771073696591026400,11.1190263671875,0.06218476593494415,-0.001331579522229731,-0.0540621280670166
1771073696600966100,11.128966064453126,0.06325002759695053,-0.023702116683125496,-0.05832318589091301
1771073696610906000,11.138906005859376,0.05259739235043526,-0.040746334940195084,-0.06897582113742828
1771073696620845800,11.148845703125,0.03768370300531387,-0.04713791608810425,-0.0774979293346405
1771073696630785500,11.15878564453125,0.02383527345955372,-0.04394212365150452,-0.07110634446144104
1771073696640725200,11.168725341796875,0.007856319658458233,-0.04500738903880119,-0.04660528525710106
1771073696650665200,11.178665283203125,-0.005992108024656773,-0.0588558167219162,-0.014647374860942364
1771073696660605000,11.18860498046875,-0.010253162123262882,-0.0684431865811348,0.019441060721874237
1771073696670544600,11.198544677734375,-0.009187898598611355,-0.06631266325712204,0.03861580789089203
1771073696680484600,11.208484619140625,-0.011318426579236984,-0.06205160543322563,0.03435475379228592
1771073696690424300,11.21842431640625,-0.01771000772714615,-0.05459476262331009,0.019441060721874237
1771073696700364000,11.228364013671875,-0.023036325350403786,-0.04394212365150452,0.006657897960394621
1771073696710304000,11.238303955078125,-0.0294279083609581,-0.0492684431374073,0.0034621069207787514
1771073696720243700,11.24824365234375,-0.03262370079755783,-0.05459476262331009,0.00985368900001049
1771073696730183400,11.258183349609375,-0.028362644836306572,-0.04500738903880119,0.024767380207777023
1771073696740123400,11.268123291015625,-0.024101590737700462,-0.02157158963382244,0.04181159660220146
1771073696750063000,11.27806298828125,-0.024101590737700462,-0.006657897960394621,0.06205160543322563
1771073696760002800,11.2880029296875,-0.023036325350403786,-0.0023968431632965803,0.07803056389093399
1771073696769942800,11.29794287109375,-0.01664474420249462,0.009321057237684727,0.08548741042613983
1771073696779882500,11.307882568359375,-0.008122635073959827,0.025300011038780212,0.07909582555294037
1771073696789822200,11.317822265625,-0.010253162123262882,0.04340949282050133,0.06311687082052231
1771073696799762000,11.327761962890625,-0.02090579830110073,0.05832318589091301,0.04713791608810425
1771073696809702000,11.337701904296875,-0.026232117787003517,0.06578002870082855,0.03435475379228592
1771073696819641600,11.3476416015625,-0.02516685426235199,0.05725792050361633,0.029028434306383133
1771073696829581300,11.357581298828125,-0.030493171885609627,0.030626330524683,0.031158961355686188
1771073696839521300,11.367521240234375,-0.03795001655817032,-0.0002663159102667123,0.03755054250359535
1771073696849461000,11.3774609375,-0.04114580899477005,-0.0034621069207787514,0.04394212365150452
1771073696859400700,11.387400634765624,-0.039015281945466995,0.015712639316916466,0.048203181475400925
1771073696869340700,11.397340576171874,-0.03688475489616394,0.027430538088083267,0.05566002428531647
1771073696879280400,11.4072802734375,-0.027297381311655045,0.025300011038780212,0.06205160543322563
1771073696889220000,11.41722021484375,-0.013448953628540039,0.016777902841567993,0.06524740159511566
1771073696899160000,11.42716015625,-0.004926844500005245,0.002929474925622344,0.06524740159511566
1771073696909099800,11.437099853515624,-0.0017310534603893757,-0.011984216049313545,0.06311687082052231
1771073696919039500,11.44703955078125,0.0035952648613601923,-0.023702116683125496,0.05566002428531647
1771073696928979500,11.4569794921875,0.004660528618842363,-0.027963170781731606,0.0492684431374073
1771073696938919200,11.466919189453124,0.004660528618842363,-0.03861580789089203,0.04607265070080757
1771073696948859100,11.476859130859374,0.001464737462811172,-0.0492684431374073,0.048203181475400925
1771073696958798800,11.486798828125,0.0003994738799519837,-0.05352949723601341,0.05459476262331009
1771073696968738800,11.49673876953125,-0.0017310534603893757,-0.0492684431374073,0.05992107838392258
1771073696978678500,11.506678466796876,0.0035952648613601923,-0.032224226742982864,0.05992107838392258
1771073696988618500,11.516618408203126,0.009986846707761288,-0.024767380207777023,0.05779055133461952
1771073696998558200,11.52655810546875,0.016378428786993027,-0.027963170781731606,0.05139897018671036
1771073697008498200,11.536498291015626,0.0270310640335083,-0.03328948840498924,0.03755054250359535
1771073697018438100,11.546438232421876,0.04194475710391998,-0.03435475379228592,0.016245270147919655
1771073697028377900,11.5563779296875,0.05579318478703499,-0.031158961355686188,-0.012516847811639309
1771073697038317800,11.56631787109375,0.07283740490674973,-0.024767380207777023,-0.03914843872189522
1771073697048257500,11.576257568359376,0.09201214462518692,-0.017310533672571182,-0.06258423626422882
1771073697058197500,11.586197509765626,0.11118689179420471,-0.011984216049313545,-0.0774979293346405
1771073697068137200,11.59613720703125,0.12716585397720337,-0.024767380207777023,-0.08388951420783997
1771073697078077200,11.6060771484375,0.13781848549842834,-0.05139897018671036,-0.08495477586984634
1771073697088017000,11.616016845703125,0.1442100703716278,-0.07163897901773453,-0.0870852991938591
1771073697097956900,11.625956787109375,0.14847111701965332,-0.07163897901773453,-0.0913463607430458
1771073697107896600,11.635896484375,0.14634059369564056,-0.05779055133461952,-0.1009337306022644
1771073697117836500,11.64583642578125,0.13355742394924164,-0.02583264373242855,-0.10519478470087051
1771073697127776300,11.6557763671875,0.11225215345621109,0.010386320762336254,-0.09880319982767105
1771073697137716200,11.66571630859375,0.09520793706178665,0.05193160101771355,-0.08602003753185272
1771073697147656000,11.675656005859375,0.08455529808998108,0.10626004636287689,-0.06897582113742828
1771073697157596000,11.685595947265625,0.07603318989276886,0.14674006402492523,-0.04980107396841049
1771073697167535600,11.69553564453125,0.07496792823076248,0.16378428041934967,-0.02636527456343174
1771073697177475600,11.7054755859375,0.0834900364279747,0.1627190262079239,-0.003994738683104515
1771073697187415300,11.715415283203125,0.09094688296318054,0.148870587348938,0.011984216049313545
1771073697197355300,11.725355224609375,0.09946899116039276,0.12330426275730133,0.017310533672571182
1771073697207295000,11.735294921875,0.11012163013219833,0.09454214572906494,0.011984216049313545
1771073697217235000,11.74523486328125,0.11864373832941055,0.06578002870082855,-0.0018642114009708166
1771073697227174700,11.755174560546875,0.1303616315126419,0.04340949282050133,-0.018908429890871048
1771073697237114400,11.7651142578125,0.13888375461101532,0.019973693415522575,-0.029561065137386322
1771073697247054300,11.775054443359375,0.14314480125904083,-0.001331579522229731,-0.03275685757398605
1771073697256994000,11.784994140625,0.14634059369564056,-0.017310533672571182,-0.03169159218668938
1771073697266933800,11.794933837890625,0.14634059369564056,-0.027963170781731606,-0.03169159218668938
1771073697276873700,11.804873779296875,0.14207953214645386,-0.00985368900001049,-0.03914843872189522
1771073697286813400,11.8148134765625,0.1399490088224411,0.03488738462328911,-0.04660528525710106
1771073697296753200,11.824753173828125,0.1452753245830536,0.08815056830644608,-0.048735812306404114
1771073697306693000,11.834693115234375,0.1452753245830536,0.12756532430648804,-0.03914843872189522
1771073697316632800,11.8446328125,0.14314480125904083,0.1478053331375122,-0.01784316636621952
1771073697326572500,11.854572509765624,0.1452753245830536,0.16484954953193665,0.001331579522229731
1771073697336512500,11.864512451171874,0.15060164034366608,0.17550218105316162,0.013049479573965073
1771073697346452200,11.8744521484375,0.1495363861322403,0.1712411344051361,0.01837579719722271
1771073697356392000,11.884391845703124,0.14207953214645386,0.1478053331375122,0.01837579719722271
1771073697366331600,11.89433154296875,0.13888375461101532,0.11691268533468246,0.02157158963382244
1771073697376271600,11.904271728515624,0.1356879621744156,0.08815056830644608,0.023702116683125496
1771073697386211300,11.91421142578125,0.1346226930618286,0.07217161357402802,0.020506324246525764
1771073697396151000,11.924151123046874,0.13675321638584137,0.0732368752360344,0.0034621069207787514
1771073697406091000,11.934091064453124,0.13249216973781586,0.08388951420783997,-0.014647374860942364
1771073697416030700,11.94403076171875,0.12503531575202942,0.1009337306022644,-0.024234747514128685
1771073697425970400,11.953970458984376,0.12183953076601028,0.11158636957406998,-0.024234747514128685
1771073697435910400,11.963910400390626,0.12503531575202942,0.10945583879947662,-0.011451584286987782
1771073697445850000,11.97385009765625,0.12823110818862915,0.10945583879947662,0.010918952524662018
1771073697455789800,11.983789794921876,0.1261005848646164,0.1009337306022644,0.040746334940195084
1771073697465729800,11.993729736328126,0.12290479242801666,0.08175898343324661,0.07803056389093399
1771073697475669500,12.00366943359375,0.11970899999141693,0.04554001986980438,0.11957584321498871
1771073697485609200,12.013609130859376,0.12290479242801666,-0.008788425475358963,0.15472954511642456
1771073697495549200,12.023549072265626,0.12823110818862915,-0.06311687082052231,0.1771000772714615
1771073697505489000,12.033489013671876,0.12716585397720337,-0.10146636515855789,0.17923060059547424
1771073697515428600,12.0434287109375,0.1165132075548172,-0.10359688848257065,0.16857796907424927
1771073697525368300,12.053368408203125,0.11864373832941055,-0.09720530360937119,0.1430116444826126
1771073697535308300,12.063308349609375,0.13142690062522888,-0.07483477145433426,0.11744531989097595
1771073697545248000,12.073248046875,0.14740586280822754,-0.0588558167219162,0.09614004194736481
1771073697555187700,12.083187744140625,0.16551533341407776,-0.0492684431374073,0.08655267208814621
1771073697565127700,12.093127685546875,0.1825595498085022,-0.03328948840498924,0.08655267208814621
1771073697575067400,12.1030673828125,0.19534271955490112,-0.006657897960394621,0.08442214131355286
