time,seconds_elapsed,z,y,x
1771073073867387400,0.103387451171875,0,0,0
1771073073877332200,0.113332275390625,-0.06284618377685547,0.07718920707702637,0.04296821355819702
1771073073887277800,0.12327783203125,0.006386756896972656,-0.007849454879760742,0.06665758788585663
1771073073897224000,0.133223876953125,-0.002742767333984375,-0.24285030364990234,0.09471024572849274
1771073073907170600,0.143170654296875,-0.18201255798339844,-0.3423922061920166,0.209368497133255
1771073073917117000,0.153116943359375,-0.38274288177490234,-0.27486324310302734,0.10813510417938232
1771073073927057700,0.1630576171875,-0.5888996124267578,-0.11770462989807129,-0.17712971568107605
1771073073936998100,0.172998046875,-0.3547859191894531,0.03971147537231445,-0.5169989466667175
1771073073946938600,0.182938720703125,-0.04994392395019531,0.11510515213012695,-0.7873549461364746
1771073073956879000,0.192879150390625,0.09569072723388672,0.026508808135986328,-1.2330750226974487
1771073073966819600,0.202819580078125,0.3263216018676758,-0.08664059638977051,-1.4372124671936035
1771073073976760000,0.212760009765625,0.34016990661621094,-0.18749737739562988,-1.1896164417266846
1771073073986700500,0.222700439453125,0.4987154006958008,-0.2459571361541748,-0.7837893962860107
1771073073996641000,0.23264111328125,0.8072624206542969,-0.20611166954040527,-0.5496060252189636
1771073074006581500,0.24258154296875,1.0604019165039062,-0.14155149459838867,-0.4024292826652527
1771073074016522000,0.25252197265625,1.0415563583374023,-0.17121577262878418,-0.41303664445877075
1771073074026462500,0.26246240234375,0.8334722518920898,0.01504206657409668,-0.2633287310600281
1771073074036403000,0.27240283203125,0.9150285720825195,0.31882143020629883,-0.1350996196269989
1771073074046343400,0.282343505859375,0.8062343597412109,0.47533106803894043,0.10251156985759735
1771073074056284000,0.292283935546875,0.6630010604858398,0.3788723945617676,0.07731744647026062
1771073074066224400,0.302224365234375,0.7572116851806641,0.28519368171691895,-0.037393271923065186
1771073074076164900,0.312164794921875,0.8889942169189453,0.21512961387634277,-0.039113327860832214
1771073074086105300,0.322105224609375,0.8717365264892578,0.09119105339050293,0.032476723194122314
1771073074096045800,0.3320458984375,0.7273664474487305,-0.11439776420593262,0.08101055026054382
1771073074105986300,0.341986328125,0.6092214584350586,-0.29595232009887695,0.058911338448524475
1771073074115926800,0.3519267578125,0.508275032043457,-0.1739811897277832,0.249314546585083
1771073074125867000,0.361866943359375,0.5016565322875977,0.14245390892028809,0.5198913812637329
1771073074135807500,0.371807373046875,0.40315818786621094,0.37146925926208496,0.6488043069839478
1771073074145748000,0.381748046875,0.2954597473144531,0.3998429775238037,0.7598932385444641
1771073074155688400,0.3916884765625,0.7571067810058594,0.32224082946777344,0.6238586902618408
1771073074165629000,0.40162890625,1.039362907409668,0.1139373779296875,0.5166181325912476
1771073074175569400,0.4115693359375,0.8814477920532227,-0.2228410243988037,0.40720704197883606
1771073074185510000,0.421510009765625,0.7675485610961914,-0.32686543464660645,0.4433314800262451
1771073074195450400,0.431450439453125,0.6127910614013672,-0.2783684730529785,0.5154126882553101
1771073074205390800,0.441390869140625,0.48561573028564453,-0.24256634712219238,0.6318690180778503
1771073074215331300,0.451331298828125,0.5898094177246094,-0.3583827018737793,0.5961538553237915
1771073074225271800,0.461271728515625,0.5957174301147461,-0.4616727828979492,0.47192224860191345
1771073074235212300,0.47121240234375,0.36618995666503906,-0.37361788749694824,0.5078063607215881
1771073074245152800,0.48115283203125,0.14472389221191406,-0.2314591407775879,0.7557308673858643
1771073074255093200,0.49109326171875,0.5383529663085938,-0.10922956466674805,0.7797346115112305
1771073074265033700,0.50103369140625,0.47034168243408203,-0.07737040519714355,0.5604724884033203
1771073074274974200,0.51097412109375,0.4253854751586914,-0.07238936424255371,0.48296600580215454
1771073074284914700,0.520914794921875,0.5847797393798828,-0.18365740776062012,0.2526234984397888
1771073074294855200,0.530855224609375,0.6723451614379883,-0.27649545669555664,0.23195478320121765
1771073074304795600,0.540795654296875,0.9518985748291016,-0.5333132743835449,0.18697524070739746
1771073074314736000,0.550736083984375,1.059152603149414,-0.9342982769012451,-0.10314729809761047
1771073074324676600,0.560676513671875,0.8502588272094727,-1.1575863361358643,-0.527946412563324
1771073074334617000,0.5706171875,1.2342309951782227,-1.139080286026001,-0.8516442775726318
1771073074344557600,0.5805576171875,1.7951116561889648,-1.0197702646255493,-1.9463720321655273
1771073074354497800,0.590497802734375,1.0637578964233398,-0.984484076499939,-0.9293981790542603
1771073074364438300,0.600438232421875,0.28620052337646484,-1.1550110578536987,-0.757121741771698
1771073074374378800,0.610378662109375,0.3780536651611328,-1.298478126525879,-1.1116862297058105
1771073074384319200,0.6203193359375,0.6116867065429688,-1.4279369115829468,-1.435943365097046
1771073074394259700,0.630259765625,0.8580226898193359,-1.2825191020965576,-0.9370806217193604
1771073074404200200,0.6402001953125,1.2328109741210938,-1.1002005338668823,-0.3831225633621216
1771073074414140700,0.650140625,1.3088245391845703,-0.9383350610733032,0.2986617982387543
1771073074424081200,0.6600810546875,1.4792442321777344,-0.7460000514984131,1.02503502368927
1771073074434021600,0.670021728515625,1.9477615356445312,-0.5767197608947754,1.4187109470367432
1771073074443962000,0.679962158203125,1.0896787643432617,-0.7000879049301147,0.6239528059959412
1771073074453902600,0.689902587890625,-0.08608722686767578,-0.7993438243865967,-0.12092077732086182
1771073074463843000,0.699843017578125,-1.074660301208496,-0.9254773855209351,-0.5379138588905334
1771073074473783600,0.709783447265625,-1.3905420303344727,-1.0080320835113525,-0.6352547407150269
1771073074483724000,0.71972412109375,-1.1245431900024414,-1.0107085704803467,-0.7126120924949646
1771073074493664500,0.72966455078125,-0.6969671249389648,-1.0619598627090454,-0.8408294916152954
1771073074503605000,0.73960498046875,-0.4036092758178711,-1.1706969738006592,-0.9717673063278198
1771073074513545500,0.74954541015625,-0.18004989624023438,-1.2954925298690796,-1.0665371417999268
1771073074523486000,0.75948583984375,-0.0834970474243164,-1.3470449447631836,-1.0868064165115356
1771073074533426400,0.769426513671875,-0.03886604309082031,-1.2937252521514893,-0.9743862748146057
1771073074543367000,0.779366943359375,0.04897594451904297,-1.1557879447937012,-0.6883693933486938
1771073074553307400,0.789307373046875,0.011599540710449219,-0.9967554807662964,-0.3149852454662323
1771073074563247900,0.799247802734375,-0.3220853805541992,-0.8758673667907715,-0.03718504309654236
1771073074573188400,0.809188232421875,-0.7625522613525391,-0.785774827003479,0.1067914292216301
1771073074583128800,0.81912890625,-0.9903316497802734,-0.7114527225494385,0.12945815920829773
1771073074593069300,0.8290693359375,-1.0084171295166016,-0.7116107940673828,-0.021678492426872253
1771073074612950500,0.848950439453125,-1.1570701599121094,-0.8939330577850342,-0.3685225546360016
1771073074622891000,0.85889111328125,-1.3420686721801758,-0.9691411256790161,-0.4807901382446289
1771073074632831500,0.86883154296875,-1.422983169555664,-0.9479492902755737,-0.5549660325050354
1771073074642772000,0.87877197265625,-1.4766464233398438,-0.8677389621734619,-0.5511700510978699
1771073074652712400,0.88871240234375,-1.5198726654052734,-0.7296241521835327,-0.4582829773426056
1771073074662653200,0.898653076171875,-1.472275733947754,-0.6058111190795898,-0.41856932640075684
1771073074672593700,0.90859375,-1.500406265258789,-0.5319463014602661,-0.408624529838562
1771073074682534100,0.9185341796875,-1.5730018615722656,-0.5174003839492798,-0.5062685012817383
1771073074692474600,0.928474609375,-1.4697532653808594,-0.49184930324554443,-0.5742522478103638
1771073074702415000,0.9384150390625,-1.4152402877807617,-0.41922712326049805,-0.5443985462188721
1771073074712355600,0.94835546875,-1.430577278137207,-0.3716191053390503,-0.5308930277824402
1771073074722296000,0.958296142578125,-1.205118179321289,-0.34320342540740967,-0.5556453466415405
1771073074732236800,0.96823681640625,-0.9427175521850586,-0.3527170419692993,-0.6113285422325134
1771073074742177300,0.97817724609375,-0.7738790512084961,-0.35015594959259033,-0.5539125800132751
1771073074752117800,0.98811767578125,-0.699793815612793,-0.26267218589782715,-0.3689500093460083
1771073074762058200,0.998058349609375,-0.5086545944213867,-0.08416509628295898,-0.21333158016204834
1771073074771998700,1.007998779296875,-0.2842121124267578,0.1568009853363037,-0.112956702709198
1771073074781939200,1.017939208984375,-0.09501171112060547,0.2895998954772949,-0.045192524790763855
1771073074791880000,1.0278798828125,0.16881561279296875,0.2780313491821289,0.004859700798988342
1771073074801820400,1.0378203125,0.2415790557861328,0.25028038024902344,0.07702036947011948
1771073074811761000,1.047760986328125,0.10877037048339844,0.21799135208129883,0.037324175238609314
1771073074821701400,1.057701416015625,-0.20431232452392578,0.19723248481750488,-0.08632411062717438
1771073074831641900,1.067641845703125,-0.5001382827758789,0.1580982208251953,-0.21717527508735657
1771073074841582300,1.077582275390625,-0.6305322647094727,0.020981788635253906,-0.3108122646808624
1771073074851522800,1.087522705078125,-0.6119422912597656,-0.15906977653503418,-0.3443804085254669
1771073074861463600,1.097463623046875,-0.3892364501953125,-0.3188798427581787,-0.30105340480804443
1771073074871404000,1.107404052734375,0.0025539398193359375,-0.4708653688430786,-0.1617993414402008
1771073074881344500,1.117344482421875,0.47716712951660156,-0.6340265274047852,0.031551629304885864
1771073074891285000,1.127284912109375,1.027724266052246,-0.8210597038269043,0.18249711394309998
1771073074901226000,1.13722607421875,1.6142759323120117,-1.02113938331604,0.1348133087158203
1771073074911165700,1.147165771484375,1.9481439590454102,-1.128515601158142,-0.22258706390857697
1771073074921106000,1.15710595703125,1.6258535385131836,-0.983912467956543,-0.4613601565361023
1771073074931046000,1.1670458984375,0.9606533050537109,-0.8201854228973389,-0.37918925285339355
1771073074940986000,1.176986083984375,0.20582866668701172,-0.6804968118667603,-0.08258993923664093
1771073074950926000,1.186926025390625,-0.21489906311035156,-0.37805187702178955,0.4979825019836426
1771073074960866300,1.1968662109375,0.28026866912841797,0.014943599700927734,1.1540768146514893
1771073074970806500,1.206806640625,1.4606952667236328,0.19814062118530273,1.6041040420532227
1771073074980747000,1.2167470703125,2.4936647415161133,-0.06370139122009277,1.669467568397522
1771073074990687200,1.226687255859375,2.9521617889404297,-0.5980894565582275,1.5257595777511597
1771073075000627700,1.236627685546875,3.2502822875976562,-1.0837101936340332,1.2366989850997925
1771073075010568200,1.246568115234375,3.615931510925293,-1.5401493310928345,0.7576764822006226
1771073075020508700,1.2565087890625,3.7693004608154297,-2.0102343559265137,0.07411044090986252
1771073075030449400,1.266449462890625,3.7413177490234375,-2.3147897720336914,-0.5442624688148499
1771073075040390000,1.276389892578125,3.4439315795898438,-2.470818281173706,-1.018907904624939
1771073075050330600,1.28633056640625,2.6896400451660156,-2.4833240509033203,-1.2961384057998657
1771073075060271400,1.296271240234375,1.6693973541259766,-2.361438274383545,-1.3250772953033447
1771073075070212000,1.306212158203125,0.7003679275512695,-2.1100380420684814,-1.2247569561004639
1771073075080152800,1.31615283203125,-0.1143341064453125,-1.7097959518432617,-0.8053439855575562
1771073075090093600,1.326093505859375,-0.7889776229858398,-1.263836145401001,-0.165305957198143
1771073075100034600,1.33603466796875,-1.2948951721191406,-0.8886188268661499,0.42906299233436584
1771073075109975300,1.345975341796875,-1.5062055587768555,-0.5333706140518188,1.0533766746520996
1771073075119916000,1.355916015625,-1.2547435760498047,-0.16144204139709473,1.6207585334777832
1771073075129856500,1.3658564453125,-0.6224508285522461,0.09021711349487305,2.0082173347473145
1771073075139797000,1.375796875,0.1246795654296875,0.11808156967163086,2.1704981327056885
1771073075149737500,1.385737548828125,0.7133398056030273,-0.018413066864013672,2.161257743835449
1771073075159678000,1.395677978515625,0.9408979415893555,-0.26198315620422363,1.9978296756744385
1771073075169618400,1.405618408203125,0.8959016799926758,-0.5927636623382568,1.6311339139938354
1771073075179559000,1.415558837890625,0.7087526321411133,-0.9039496183395386,1.1298496723175049
1771073075189499400,1.42549951171875,0.3380918502807617,-1.1878323554992676,0.6013593673706055
1771073075199440000,1.43543994140625,-0.3450775146484375,-1.4074674844741821,0.18416430056095123
1771073075209380400,1.44538037109375,-1.1911449432373047,-1.4671988487243652,-0.05213185027241707
1771073075219320600,1.455320556640625,-1.849980354309082,-1.320735216140747,-0.10933699458837509
1771073075229261000,1.465260986328125,-2.1640167236328125,-1.0587317943572998,-0.12914732098579407
1771073075239201500,1.475201416015625,-2.3473448753356934,-0.7914037704467773,0.007407724857330322
1771073075249142000,1.48514208984375,-2.5364184379577637,-0.5617926120758057,0.21732214093208313
1771073075259082500,1.49508251953125,-2.690922737121582,-0.36475300788879395,0.3833026885986328
1771073075269023000,1.50502294921875,-2.621095657348633,-0.20210492610931396,0.4161379337310791
1771073075278963500,1.51496337890625,-2.4423985481262207,-0.08660697937011719,0.38033854961395264
1771073075288904000,1.524904052734375,-2.3028721809387207,0.00296783447265625,0.37037193775177
1771073075298844400,1.534844482421875,-2.13814640045166,0.08632683753967285,0.3768795430660248
1771073075308785000,1.544784912109375,-1.9460444450378418,0.18283462524414062,0.39848005771636963
1771073075318725400,1.554725341796875,-1.8720664978027344,0.27954769134521484,0.360368549823761
1771073075328665900,1.564665771484375,-1.796781063079834,0.29204702377319336,0.26762059330940247
1771073075338606300,1.5746064453125,-1.589437484741211,0.2877614498138428,0.16932499408721924
1771073075348546800,1.584546875,-1.3815851211547852,0.25687074661254883,0.09059587121009827
1771073075358487300,1.5944873046875,-1.2755060195922852,0.24254465103149414,0.027537629008293152
1771073075368427800,1.604427734375,-1.325434684753418,0.26448726654052734,-0.016178011894226074
1771073075378368300,1.6143681640625,-1.257126808166504,0.2997701168060303,0.016928404569625854
1771073075388308700,1.624308837890625,-1.1546697616577148,0.327195405960083,0.042873039841651917
1771073075398249200,1.634249267578125,-0.9351119995117188,0.3354170322418213,0.09338738024234772
1771073075408189700,1.644189697265625,-0.584813117980957,0.32674169540405273,0.19663318991661072
1771073075418130200,1.654130126953125,-0.0780029296875,0.32358551025390625,0.3238012194633484
1771073075428070700,1.664070556640625,0.47084808349609375,0.29003477096557617,0.31674855947494507
1771073075438011100,1.67401123046875,1.0672101974487305,0.19394207000732422,0.1723017692565918
1771073075447951400,1.683951416015625,1.2952098846435547,0.05676841735839844,-0.02615015208721161
1771073075457891800,1.693891845703125,0.9882917404174805,-0.0806570053100586,-0.27880147099494934
1771073075467832300,1.703832275390625,0.4369039535522461,-0.14614319801330566,-0.5650980472564697
1771073075477772800,1.713772705078125,-0.008606910705566406,-0.12745404243469238,-0.8333007097244263
1771073075487713300,1.72371337890625,-0.16154098510742188,-0.03789639472961426,-0.9207190275192261
1771073075497653800,1.73365380859375,-0.1334686279296875,0.027612686157226562,-0.8203880190849304
1771073075507594200,1.74359423828125,0.0648956298828125,0.05718851089477539,-0.6007953882217407
1771073075517534700,1.75353466796875,0.5136804580688477,0.1326589584350586,-0.3449840545654297
1771073075527475200,1.76347509765625,1.1048526763916016,0.12048816680908203,-0.19496649503707886
1771073075537415700,1.773415771484375,1.9076251983642578,0.03464555740356445,-0.3612692952156067
1771073075547356200,1.783356201171875,2.481856346130371,0.06219792366027832,-0.6874901652336121
1771073075557296600,1.793296630859375,2.132260322570801,0.13215279579162598,-0.9160964488983154
1771073075567237000,1.803237060546875,1.1250905990600586,0.11470293998718262,-0.9822335243225098
1771073075577177600,1.813177490234375,-0.16478252410888672,0.20200753211975098,-0.677166759967804
1771073075587118000,1.8231181640625,-1.1162443161010742,0.5507974624633789,-0.04460310935974121
1771073075597058600,1.83305859375,-0.8298816680908203,1.0423650741577148,0.5935550928115845
1771073075606999000,1.8429990234375,0.787846565246582,1.2326464653015137,1.0374972820281982
1771073075616939500,1.852939453125,3.0001602172851562,0.9353008270263672,1.4032421112060547
1771073075626880000,1.8628798828125,5.003591537475586,0.3748207092285156,1.475419521331787
1771073075636820500,1.872820556640625,6.538933753967285,-0.28197479248046875,1.0312645435333252
1771073075646761000,1.882760986328125,6.9993085861206055,-1.093768835067749,0.14292897284030914
1771073075656701400,1.892701416015625,6.4935102462768555,-1.8784300088882446,-0.6456387042999268
1771073075666642000,1.902641845703125,5.3595075607299805,-2.3387563228607178,-1.2858539819717407
1771073075676582100,1.91258203125,3.5921592712402344,-2.3812716007232666,-1.726434350013733
1771073075686522600,1.922522705078125,1.730738639831543,-2.042206287384033,-1.7851024866104126
1771073075696463000,1.932463134765625,0.0970458984375,-1.4888181686401367,-1.6914442777633667
1771073075706403600,1.942403564453125,-1.3367490768432617,-0.8930487632751465,-1.3153517246246338
1771073075716344000,1.952343994140625,-2.109804153442383,-0.39742136001586914,-0.7836425304412842
1771073075726284500,1.962284423828125,-2.1980628967285156,-0.022681236267089844,-0.18004709482192993
1771073075736225000,1.97222509765625,-1.792825698852539,0.1652848720550537,0.3864566385746002
1771073075746165500,1.98216552734375,-1.2072572708129883,0.2504849433898926,0.8115077018737793
1771073075756106000,1.99210595703125,-0.6431455612182617,0.2470073699951172,0.9965728521347046
1771073075766046500,2.00204638671875,-0.2491626739501953,0.08899188041687012,0.8229883313179016
1771073075775987000,2.011987060546875,-0.2023611068725586,-0.244537353515625,0.4269339442253113
1771073075785927400,2.021927490234375,-0.37963008880615234,-0.595207691192627,0.06615462899208069
1771073075795868000,2.031867919921875,-0.5564203262329102,-0.8850694894790649,-0.21080011129379272
1771073075805808400,2.041808349609375,-0.6568498611450195,-1.1561399698257446,-0.5564773082733154
1771073075815748900,2.051748779296875,-0.757415771484375,-1.4590747356414795,-0.9042688012123108
1771073075825689300,2.061689453125,-0.8362369537353516,-1.7073237895965576,-1.1255711317062378
1771073075835629800,2.0716298828125,-0.8906526565551758,-1.8622092008590698,-1.265575885772705
1771073075845570300,2.0815703125,-0.9035425186157227,-1.9502696990966797,-1.372861623764038
1771073075855510800,2.0915107421875,-0.9602298736572266,-1.9815359115600586,-1.4090971946716309
1771073075865451300,2.101451171875,-1.1861505508422852,-1.9611101150512695,-1.366003155708313
1771073075875391700,2.111391845703125,-1.5588836669921875,-1.8684053421020508,-1.3096692562103271
1771073075885332200,2.121332275390625,-2.0017619132995605,-1.7240808010101318,-1.2780722379684448
1771073075895272400,2.1312724609375,-2.505497455596924,-1.5165879726409912,-1.0614707469940186
1771073075905213000,2.141212890625,-2.9802017211914062,-1.2449901103973389,-0.770163357257843
1771073075915153400,2.1511533203125,-3.2532711029052734,-0.9527264833450317,-0.4522775411605835
1771073075925094000,2.161093994140625,-3.231119155883789,-0.7108873128890991,-0.12730681896209717
1771073075935034400,2.171034423828125,-2.9533891677856445,-0.4854443073272705,0.1872776746749878
1771073075944974800,2.180974853515625,-2.633045196533203,-0.31316280364990234,0.4294153153896332
1771073075954915300,2.190915283203125,-2.320042133331299,-0.22104430198669434,0.4743965268135071
1771073075964855800,2.200855712890625,-2.123696804046631,-0.20024704933166504,0.4573087692260742
1771073075974796300,2.21079638671875,-2.04606294631958,-0.16164350509643555,0.48844438791275024
1771073075984736800,2.22073681640625,-1.960756778717041,-0.08225011825561523,0.5164676904678345
1771073075994677200,2.23067724609375,-1.7943906784057617,-0.036986351013183594,0.4374966323375702
1771073076004618000,2.240617919921875,-1.7430224418640137,-0.0701143741607666,0.31239867210388184
1771073076014558500,2.250558349609375,-1.8112397193908691,-0.12021899223327637,0.2687191963195801
1771073076024499000,2.2604990234375,-1.719834804534912,-0.16705870628356934,0.17929662764072418
1771073076034439400,2.270439453125,-1.3737602233886719,-0.18309473991394043,0.053245626389980316
1771073076044380000,2.2803798828125,-0.897028923034668,-0.17197513580322266,-0.008305996656417847
1771073076054320400,2.2903203125,-0.5154933929443359,-0.16892313957214355,-0.025455813854932785
1771073076064261000,2.30026123046875,-0.3065042495727539,-0.15103673934936523,-0.0615493580698967
1771073076074201600,2.31020166015625,-0.2355976104736328,-0.03158831596374512,-0.04227784276008606
1771073076084142000,2.32014208984375,-0.1924762725830078,0.1266796588897705,-0.07314643263816833
1771073076094082600,2.33008251953125,-0.027001380920410156,0.3050849437713623,0.0009764358401298523
1771073076104023000,2.34002294921875,0.19582462310791016,0.47785234451293945,0.17877890169620514
1771073076113963500,2.349963623046875,0.4730844497680664,0.5487689971923828,0.35809963941574097
1771073076133844700,2.3698447265625,1.0412206649780273,0.3915882110595703,0.7701328992843628
1771073076143785200,2.37978515625,1.403106689453125,0.19910430908203125,0.9713447093963623
1771073076153725700,2.3897255859375,2.0657405853271484,-0.16249370574951172,0.9733716249465942
1771073076163666200,2.399666259765625,2.777867317199707,-0.6448171138763428,0.7558584213256836
1771073076173606700,2.409606689453125,3.6542539596557617,-1.1397387981414795,0.25007158517837524
1771073076183547100,2.419547119140625,4.478172302246094,-1.4374935626983643,-0.6827131509780884
1771073076193488000,2.42948779296875,4.4854326248168945,-1.5216656923294067,-1.554942011833191
1771073076203428400,2.439428466796875,3.25323486328125,-1.4153393507003784,-1.8180758953094482
1771073076213368800,2.449368896484375,1.5373735427856445,-0.9392596483230591,-1.2882155179977417
1771073076223309300,2.459309326171875,-0.023069381713867188,-0.2547222375869751,-0.5370806455612183
1771073076233249800,2.469249755859375,-0.9712696075439453,0.5280433893203735,0.3274995684623718
1771073076243190300,2.479190185546875,-0.5245361328125,1.1426399946212769,1.1540207862854004
1771073076253131000,2.489131103515625,1.1022605895996094,1.0898557901382446,1.6446189880371094
1771073076263071500,2.499071533203125,2.7430458068847656,0.4687288999557495,1.8190703392028809
1771073076273012000,2.509011962890625,3.8467350006103516,-0.17578625679016113,1.9071539640426636
1771073076282952400,2.518952392578125,4.736651420593262,-0.6806756258010864,1.629305124282837
1771073076292893000,2.528892822265625,4.95219612121582,-1.103125810623169,0.9628375768661499
1771073076302833400,2.53883349609375,4.215213775634766,-1.4105452299118042,0.1878984272480011
1771073076312774000,2.54877392578125,2.7296228408813477,-1.4177696704864502,-0.40509411692619324
1771073076322714400,2.55871435546875,1.0673599243164062,-1.1881529092788696,-0.5899403691291809
1771073076332654800,2.56865478515625,-0.5052127838134766,-0.9344357848167419,-0.6390208005905151
1771073076342595300,2.57859521484375,-1.969034194946289,-0.7030622959136963,-0.4962461590766907
1771073076352535800,2.588535888671875,-3.1195454597473145,-0.41632330417633057,-0.04434492439031601
1771073076362476300,2.598476318359375,-3.483386516571045,-0.10579025745391846,0.6212488412857056
1771073076372416800,2.608416748046875,-2.713986873626709,0.15533447265625,1.3359897136688232
1771073076382357200,2.618357177734375,-1.043473243713379,0.20028972625732422,1.8437986373901367
1771073076392297700,2.628297607421875,0.6827421188354492,0.12024199962615967,2.2180988788604736
1771073076402238200,2.63823828125,2.1709041595458984,-0.031046390533447266,2.467521905899048
1771073076412178700,2.6481787109375,3.154054641723633,-0.3519785404205322,2.260849952697754
1771073076422119200,2.658119140625,3.3942670822143555,-0.8309428095817566,1.7297189235687256
1771073076432059600,2.6680595703125,2.749300956726074,-1.3323521614074707,1.0141470432281494
1771073076442000100,2.678000244140625,1.3512678146362305,-1.7015984058380127,0.32460808753967285
1771073076451940600,2.687940673828125,-0.43034839630126953,-1.8371503353118896,-0.12032227963209152
1771073076461881000,2.697881103515625,-1.9751276969909668,-1.7627445459365845,-0.30285224318504333
1771073076471821600,2.707821533203125,-3.1088547706604004,-1.5029680728912354,-0.29794248938560486
1771073076481762000,2.717761962890625,-3.688746452331543,-1.1206642389297485,-0.2266991287469864
1771073076491702500,2.72770263671875,-3.6961660385131836,-0.7714929580688477,-0.05850900709629059
1771073076501643000,2.73764306640625,-3.2189431190490723,-0.495394229888916,0.18629947304725647
1771073076511583200,2.747583251953125,-2.3866629600524902,-0.3572356700897217,0.31240272521972656
1771073076521523700,2.757523681640625,-1.4877300262451172,-0.32326483726501465,0.29150673747062683
1771073076531464200,2.767464111328125,-1.0003137588500977,-0.3809170722961426,0.19181911647319794
1771073076541404700,2.77740478515625,-1.1536626815795898,-0.45834338665008545,0.013620913028717041
1771073076551345200,2.78734521484375,-1.731156826019287,-0.41000401973724365,-0.13673946261405945
1771073076561285600,2.79728564453125,-2.274320602416992,-0.24529969692230225,-0.21554842591285706
1771073076571226000,2.80722607421875,-2.631784439086914,-0.03784072399139404,-0.3229777216911316
1771073076581166600,2.81716650390625,-2.764646053314209,0.20697379112243652,-0.28809401392936707
1771073076591107000,2.827107177734375,-2.855708122253418,0.4773223400115967,-0.14371883869171143
1771073076601047600,2.837047607421875,-2.77687406539917,0.7417936325073242,-0.03886649012565613
1771073076610988000,2.846988037109375,-2.514617919921875,0.9411242008209229,0.0211104154586792
1771073076630869000,2.866868896484375,-1.5774903297424316,0.9228625297546387,0.00024366378784179688
1771073076640809500,2.8768095703125,-1.072422981262207,0.7626054286956787,0.1195022314786911
1771073076650750000,2.88675,-0.5350570678710938,0.5450353622436523,0.23560070991516113
1771073076660690400,2.8966904296875,0.058734893798828125,0.3365335464477539,0.21956169605255127
1771073076670631000,2.906630859375,0.542384147644043,0.20900046825408936,0.12582074105739594
1771073076680571400,2.9165712890625,0.8929891586303711,0.08149838447570801,-0.034049659967422485
1771073076690512000,2.926511962890625,1.1902656555175781,0.028133392333984375,-0.22721895575523376
1771073076700452400,2.936452392578125,1.6140918731689453,0.00505828857421875,-0.3941769003868103
1771073076710392800,2.946392822265625,1.935948371887207,-0.07934081554412842,-0.5483939051628113
1771073076720333300,2.956333251953125,2.080538749694824,-0.2366340160369873,-0.7534201741218567
1771073076730273800,2.966273681640625,1.9677925109863281,-0.3812164068222046,-1.0471572875976562
1771073076740214000,2.976214111328125,1.6052913665771484,-0.43850278854370117,-1.2729671001434326
1771073076750154500,2.986154541015625,1.2478866577148438,-0.399014949798584,-1.3354731798171997
1771073076760095000,2.996094970703125,1.092167854309082,-0.28816747665405273,-1.3104184865951538
1771073076770035500,3.006035400390625,1.1534481048583984,-0.23451554775238037,-1.274208664894104
1771073076779976000,3.015975830078125,1.3737335205078125,-0.3160068988800049,-1.2311500310897827
1771073076789916400,3.02591650390625,1.9655170440673828,-0.4325559139251709,-1.2308696508407593
1771073076799857000,3.03585693359375,2.461480140686035,-0.4885052442550659,-1.2131716012954712
1771073076809797400,3.04579736328125,2.3380870819091797,-0.441373348236084,-1.105396032333374
1771073076819737900,3.05573779296875,1.5874662399291992,-0.2681504487991333,-0.9553281664848328
1771073076829678300,3.06567822265625,0.5749149322509766,-0.08665430545806885,-0.6496442556381226
1771073076839618800,3.075618896484375,-0.5275487899780273,0.23585796356201172,-0.06128287315368652
1771073076849559300,3.085559326171875,-1.1290864944458008,0.5543973445892334,0.43960195779800415
1771073076859499800,3.095499755859375,-0.6294403076171875,0.7260549068450928,0.794135570526123
1771073076869440300,3.105440185546875,0.993678092956543,0.48361682891845703,0.9738668203353882
1771073076879380700,3.115380615234375,2.5860767364501953,-0.11053240299224854,1.016467809677124
1771073076889321200,3.1253212890625,3.748152732849121,-0.6583082675933838,0.8884013891220093
1771073076899261700,3.13526171875,4.482131004333496,-1.1526501178741455,0.32977330684661865
1771073076909202200,3.1452021484375,4.187885284423828,-1.5612367391586304,-0.4569268226623535
1771073076919142700,3.155142578125,2.765918731689453,-1.6266815662384033,-1.070943832397461
1771073076929083100,3.165083251953125,1.0001916885375977,-1.348238468170166,-1.4055089950561523
1771073076939023600,3.175023681640625,-0.5717449188232422,-1.0207587480545044,-1.6875548362731934
1771073076948964000,3.184964111328125,-1.9941754341125488,-0.6445379257202148,-1.6781127452850342
1771073076958904600,3.194904541015625,-3.1227612495422363,-0.2691371440887451,-1.3380177021026611
1771073076968844800,3.2048447265625,-3.719813346862793,0.05299091339111328,-0.843604326248169
1771073076978785300,3.214785400390625,-3.8551244735717773,0.27333903312683105,-0.17096585035324097
1771073076988725800,3.224725830078125,-3.267843723297119,0.45148301124572754,0.5890109539031982
1771073076998666200,3.234666259765625,-2.092419147491455,0.5112941265106201,1.2169620990753174
1771073077008606700,3.244606689453125,-0.31313514709472656,0.555389404296875,1.8234325647354126
1771073077018547200,3.254547119140625,1.8719873428344727,0.5900206565856934,2.4289002418518066
1771073077028487700,3.26448779296875,3.3840255737304688,0.4256308078765869,2.5892367362976074
1771073077038428200,3.27442822265625,3.9539308547973633,0.03418087959289551,2.3384971618652344
1771073077048368600,3.28436865234375,3.870682716369629,-0.5491615533828735,1.7211030721664429
1771073077058309000,3.29430908203125,3.2500085830688477,-1.243404507637024,0.8381192684173584
1771073077068249600,3.30424951171875,2.1952638626098633,-1.9031683206558228,-0.1395537555217743
1771073077078190000,3.314190185546875,0.7831230163574219,-2.3709664344787598,-0.9718222618103027
1771073077088130600,3.324130615234375,-0.7455406188964844,-2.57285213470459,-1.5123502016067505
1771073077098071000,3.334071044921875,-1.9215002059936523,-2.4612226486206055,-1.765260934829712
1771073077108011500,3.344011474609375,-2.6369872093200684,-2.1895785331726074,-1.80072820186615
1771073077117952000,3.353951904296875,-2.9055323600769043,-1.8196552991867065,-1.5971441268920898
1771073077127892500,3.363892578125,-2.8330183029174805,-1.4117546081542969,-1.1598255634307861
1771073077137833000,3.3738330078125,-2.6964893341064453,-1.061295747756958,-0.6651501655578613
1771073077147773400,3.3837734375,-2.5979480743408203,-0.786789059638977,-0.26470112800598145
1771073077157714000,3.3937138671875,-2.438779830932617,-0.5746310949325562,0.031025663018226624
1771073077167654400,3.403654296875,-2.584075927734375,-0.3592979907989502,0.30358922481536865
1771073077177595000,3.413594970703125,-2.9020776748657227,-0.1789153814315796,0.5031450390815735
1771073077187535000,3.42353515625,-3.008676052093506,-0.005619049072265625,0.7248360514640808
1771073077197475600,3.4334755859375,-2.862293243408203,0.2027827501296997,0.8698797225952148
1771073077207416000,3.443416015625,-2.6148085594177246,0.41400575637817383,0.9328385591506958
1771073077217356500,3.4533564453125,-2.3435983657836914,0.5763078927993774,0.9633911848068237
1771073077227297000,3.463297119140625,-1.9559354782104492,0.7484588623046875,1.0533616542816162
1771073077237237500,3.473237548828125,-1.6072235107421875,0.8583455085754395,1.1072078943252563
1771073077247178000,3.483177978515625,-1.2278881072998047,0.9028066396713257,1.103670597076416
1771073077257118500,3.493118408203125,-0.9202518463134766,0.8516552448272705,0.9822937250137329
1771073077267059000,3.503058837890625,-0.5595073699951172,0.6889433860778809,0.7658880352973938
1771073077276999400,3.51299951171875,-0.06881427764892578,0.47198712825775146,0.4841846227645874
1771073077286940000,3.52293994140625,0.5018997192382812,0.18582630157470703,0.1730983406305313
1771073077296880400,3.53288037109375,0.9859018325805664,-0.08706498146057129,-0.16967742145061493
1771073077306820900,3.54282080078125,1.3220500946044922,-0.2410815954208374,-0.5030251741409302
1771073077316761300,3.55276123046875,1.3510770797729492,-0.31215548515319824,-0.7099855542182922
1771073077326701800,3.562701904296875,0.9853057861328125,-0.2659730911254883,-0.6940743327140808
1771073077336642300,3.572642333984375,0.6049013137817383,-0.05629146099090576,-0.6278436779975891
1771073077346582800,3.582582763671875,0.3096427917480469,0.14078187942504883,-0.6417297124862671
1771073077356523300,3.592523193359375,0.0749979019165039,0.24205422401428223,-0.5389602184295654
1771073077366463700,3.602463623046875,0.11306190490722656,0.2947549819946289,-0.3328549861907959
1771073077376404200,3.612404296875,0.38483142852783203,0.3183976411819458,-0.09156869351863861
1771073077386344700,3.6223447265625,0.8229846954345703,0.43646931648254395,0.2379373162984848
1771073077396285200,3.63228515625,1.3248481750488281,0.5652226209640503,0.5543206930160522
1771073077406225700,3.6422255859375,1.7065677642822266,0.6173702478408813,0.8315906524658203
1771073077416166100,3.652166259765625,2.1141910552978516,0.6037641763687134,1.0654735565185547
1771073077426106600,3.662106689453125,2.502429962158203,0.5865747928619385,1.0834532976150513
1771073077436047000,3.672047119140625,2.3389673233032227,0.4516298770904541,0.7840287685394287
1771073077445987600,3.681987548828125,1.634871482849121,0.3097341060638428,0.37721535563468933
1771073077455928300,3.69192822265625,0.6965599060058594,0.228607177734375,0.011375755071640015
1771073077465868800,3.701868896484375,-0.1543283462524414,0.34095609188079834,-0.1383991837501526
1771073077475809300,3.711809326171875,-0.7259359359741211,0.6121567487716675,0.099974125623703
1771073077485749800,3.721749755859375,-0.5087718963623047,0.9547227621078491,0.6075046062469482
1771073077495690200,3.731690185546875,0.54296875,1.1033096313476562,1.0661553144454956
1771073077505630700,3.741630615234375,1.900350570678711,0.96390700340271,1.4169001579284668
1771073077515571200,3.7515712890625,3.265533447265625,0.6301192045211792,1.723985195159912
1771073077525512000,3.761511962890625,4.504101753234863,0.18746483325958252,1.8266527652740479
1771073077535452400,3.771452392578125,5.328757286071777,-0.3577744960784912,1.6610101461410522
1771073077545393000,3.781392822265625,5.383011817932129,-1.0279996395111084,1.299466848373413
1771073077555333400,3.79133349609375,4.714322090148926,-1.6525219678878784,0.7724013328552246
1771073077565273900,3.80127392578125,3.501246452331543,-2.0582711696624756,0.09822237491607666
1771073077575214300,3.81121435546875,2.079401969909668,-2.1428136825561523,-0.47130534052848816
1771073077585155000,3.821155029296875,0.7641439437866211,-2.0633201599121094,-0.8794772624969482
1771073077595095600,3.831095458984375,-0.3740119934082031,-1.9272093772888184,-1.099158763885498
1771073077605036000,3.8410361328125,-1.3961420059204102,-1.7616585493087769,-1.0700640678405762
1771073077614976500,3.8509765625,-2.110001564025879,-1.5352025032043457,-0.766740083694458
1771073077624917000,3.8609169921875,-2.3430047035217285,-1.2819349765777588,-0.2651416063308716
1771073077634857500,3.870857421875,-2.053966999053955,-1.0220309495925903,0.3744388222694397
1771073077644798200,3.880798095703125,-1.3854751586914062,-0.7772989273071289,1.0204548835754395
1771073077654738700,3.89073876953125,-0.6441488265991211,-0.6238236427307129,1.4131507873535156
1771073077664679200,3.90067919921875,0.07672882080078125,-0.5735454559326172,1.6444969177246094
1771073077674619600,3.91061962890625,0.7102670669555664,-0.6244652271270752,1.7760624885559082
1771073077684560100,3.92056005859375,1.1992616653442383,-0.7799055576324463,1.6832547187805176
1771073077714381600,3.950381591796875,0.5164375305175781,-1.5082511901855469,0.2737908363342285
1771073077724322000,3.960322021484375,-0.36379337310791016,-1.6697567701339722,-0.16635817289352417
1771073077734262500,3.970262451171875,-1.1341876983642578,-1.7529046535491943,-0.5207726359367371
1771073077744203000,3.980203125,-1.7207846641540527,-1.761742353439331,-0.8392504453659058
1771073077754143500,3.9901435546875,-2.2243175506591797,-1.6837996244430542,-1.021374225616455
1771073077764084000,4.000083984375,-2.702324390411377,-1.5568962097167969,-1.0242393016815186
1771073077774024400,4.0100244140625,-3.119079113006592,-1.4188048839569092,-0.9070374369621277
1771073077783965000,4.01996484375,-3.417562961578369,-1.1973885297775269,-0.702468752861023
1771073077793905400,4.029905517578125,-3.438239097595215,-0.9285405874252319,-0.5420541763305664
1771073077803846000,4.039845947265625,-3.3131160736083984,-0.6134121417999268,-0.3993121087551117
1771073077813786400,4.049786376953125,-3.118861198425293,-0.3178896903991699,-0.2467097043991089
1771073077823726800,4.059726806640625,-2.8317737579345703,-0.05670309066772461,-0.05906930938363075
1771073077833667300,4.069667236328125,-2.6239919662475586,0.15060138702392578,0.04605678468942642
1771073077843607800,4.07960791015625,-2.3999624252319336,0.2809751033782959,0.10162186622619629
1771073077853548300,4.08954833984375,-2.2649126052856445,0.40188074111938477,0.1214369386434555
1771073077863488800,4.09948876953125,-2.3097567558288574,0.49355459213256836,0.14814603328704834
1771073077873429200,4.10942919921875,-2.434438705444336,0.5328977108001709,0.1314721554517746
1771073077883369700,4.11936962890625,-2.443525791168213,0.5131509304046631,0.09905488789081573
1771073077893310200,4.129310302734375,-2.1584792137145996,0.4597744941711426,0.15534666180610657
1771073077903250700,4.139250732421875,-1.5367522239685059,0.43406879901885986,0.3294358551502228
1771073077913194800,4.14919482421875,-0.6859292984008789,0.43800055980682373,0.5819424986839294
1771073077923131600,4.159131591796875,0.18413734436035156,0.4294140338897705,0.6694057583808899
1771073077933068800,4.16906884765625,0.7780418395996094,0.34219038486480713,0.6872633099555969
1771073077943006200,4.179006103515625,1.1589622497558594,0.2718926668167114,0.7079800963401794
1771073077952944000,4.188944091796875,1.403914451599121,0.2558513879776001,0.6805604696273804
1771073077962882300,4.19888232421875,1.5944528579711914,0.3173786401748657,0.5189805030822754
1771073077972821000,4.208821044921875,1.5278329849243164,0.4724346399307251,0.42781832814216614
1771073077982760400,4.218760498046875,0.9179849624633789,0.6861773729324341,0.3226189613342285
1771073077992700200,4.2287001953125,0.2909736633300781,0.9125339984893799,0.16994042694568634
1771073078002640600,4.238640625,-0.012587547302246094,1.0775901079177856,-0.02966395765542984
1771073078012581600,4.24858154296875,0.017945289611816406,1.0954214334487915,-0.26429617404937744
1771073078022523400,4.2585234375,0.46544837951660156,0.9534929990768433,-0.48924148082733154
1771073078032465400,4.26846533203125,0.9784145355224609,0.6584645509719849,-0.6494930982589722
1771073078042407700,4.27840771484375,1.2611150741577148,0.35558080673217773,-0.6910799145698547
1771073078052350500,4.2883505859375,1.4765920639038086,0.20650172233581543,-0.6614041328430176
1771073078062293200,4.298293212890625,1.969120979309082,0.25476253032684326,-0.7425097823143005
1771073078072236300,4.308236328125,2.399233818054199,0.4552433490753174,-0.8123869895935059
1771073078082179300,4.318179443359375,2.459170341491699,0.5943104028701782,-0.808467447757721
1771073078092119800,4.328119873046875,2.1974220275878906,0.6971398591995239,-0.6401373147964478
1771073078102060300,4.338060302734375,1.707132339477539,0.9378341436386108,-0.27175137400627136
1771073078112000800,4.348000732421875,1.2527275085449219,1.255650281906128,0.12824130058288574
1771073078121941200,4.357941162109375,1.1504030227661133,1.4762197732925415,0.43505826592445374
1771073078131881700,4.3678818359375,1.6255035400390625,1.3465646505355835,0.6440642476081848
1771073078141822200,4.377822265625,2.4024925231933594,0.858983039855957,0.7720925807952881
1771073078151762700,4.3877626953125,3.4628448486328125,0.2065213918685913,0.6505559682846069
1771073078161703200,4.397703125,4.671540260314941,-0.5535547137260437,0.14714953303337097
1771073078171643600,4.4076435546875,5.614649772644043,-1.3706698417663574,-0.5510374903678894
1771073078181584100,4.417584228515625,6.041181564331055,-2.2171764373779297,-1.2850391864776611
1771073078191524600,4.427524658203125,5.8268537521362305,-2.861238956451416,-1.846771478652954
1771073078201465000,4.437465087890625,4.6799726486206055,-3.1482319831848145,-2.22995924949646
1771073078211405600,4.447405517578125,2.8914880752563477,-2.9989209175109863,-2.3397340774536133
1771073078221346000,4.457345947265625,1.0494003295898438,-2.5774455070495605,-2.23507022857666
1771073078231286500,4.46728662109375,-0.6998910903930664,-2.059763193130493,-2.0206458568573
1771073078241227000,4.47722705078125,-2.0939297676086426,-1.50675630569458,-1.6881998777389526
1771073078251167500,4.48716748046875,-2.827702045440674,-1.0135438442230225,-1.2528988122940063
1771073078261108000,4.49710791015625,-3.054664134979248,-0.6342897415161133,-0.6459937691688538
1771073078271048400,4.50704833984375,-2.8339614868164062,-0.40995121002197266,0.0875132605433464
1771073078280989000,4.516989013671875,-2.183065891265869,-0.29671216011047363,0.7452620267868042
1771073078290929400,4.526929443359375,-1.3885278701782227,-0.26602160930633545,1.1488136053085327
1771073078300870000,4.536869873046875,-0.7290554046630859,-0.3062114715576172,1.3289446830749512
1771073078310810000,4.54681005859375,-0.27501487731933594,-0.4341263771057129,1.2780109643936157
1771073078320750600,4.55675048828125,-0.034752845764160156,-0.6464226245880127,0.983636736869812
1771073078330691000,4.566691162109375,0.04775428771972656,-0.9152097702026367,0.5041590929031372
1771073078340631600,4.576631591796875,-0.1317768096923828,-1.192674994468689,-0.02159147709608078
1771073078350572000,4.586572021484375,-0.4412117004394531,-1.4700467586517334,-0.45679253339767456
1771073078360512500,4.596512451171875,-0.8252553939819336,-1.6518727540969849,-0.6742719411849976
1771073078370453000,4.606452880859375,-1.2528152465820312,-1.689695119857788,-0.716711699962616
1771073078380393500,4.6163935546875,-1.6834888458251953,-1.5869125127792358,-0.7112447619438171
1771073078390334000,4.626333984375,-2.012603282928467,-1.4228260517120361,-0.6363855600357056
1771073078400274400,4.6362744140625,-2.133321762084961,-1.2194175720214844,-0.4324122369289398
1771073078410215000,4.64621484375,-2.070188045501709,-1.0237162113189697,-0.17383041977882385
1771073078420155400,4.6561552734375,-1.868852138519287,-0.8963069915771484,0.07699331641197205
1771073078430096000,4.666095947265625,-1.6439695358276367,-0.7932690382003784,0.21981224417686462
1771073078440036400,4.676036376953125,-1.4858169555664062,-0.6932960748672485,0.2994839549064636
1771073078449976800,4.685976806640625,-1.4225521087646484,-0.5575156211853027,0.3586796522140503
1771073078459917300,4.695917236328125,-1.5019044876098633,-0.402074933052063,0.46233314275741577
1771073078469857800,4.70585791015625,-1.7002744674682617,-0.20067822933197021,0.5827498435974121
1771073078479798300,4.71579833984375,-1.960984230041504,-0.002234220504760742,0.6321490406990051
1771073078489738800,4.72573876953125,-2.210721015930176,0.15880584716796875,0.6302310228347778
1771073078499679200,4.73567919921875,-2.490774631500244,0.2593498229980469,0.5662853717803955
1771073078509619700,4.74561962890625,-2.6796188354492188,0.30404210090637207,0.5133426785469055
1771073078519560200,4.755560302734375,-2.636568546295166,0.34627723693847656,0.4955947995185852
1771073078529500400,4.76550048828125,-2.342743396759033,0.44487977027893066,0.47802069783210754
1771073078539441000,4.77544091796875,-1.769463062286377,0.5445730686187744,0.4359101951122284
1771073078549381400,4.78538134765625,-1.0239543914794922,0.5335917472839355,0.2729666829109192
1771073078559321900,4.79532177734375,-0.37065887451171875,0.37817370891571045,0.10724638402462006
1771073078569262300,4.805262451171875,-0.06644058227539062,0.17939627170562744,-0.06649188697338104
1771073078579202800,4.815202880859375,0.07373523712158203,0.06486856937408447,-0.18005995452404022
1771073078589143300,4.825143310546875,0.13147830963134766,0.10823297500610352,-0.23421400785446167
1771073078599083800,4.835083740234375,0.149749755859375,0.19784963130950928,-0.2189253270626068
1771073078609024300,4.845024169921875,0.13785457611083984,0.2446603775024414,-0.19729715585708618
1771073078618964700,4.85496484375,0.023801803588867188,0.2844259738922119,-0.12810558080673218
1771073078628905200,4.8649052734375,-0.0015630722045898438,0.3577895164489746,-0.05574346333742142
1771073078638845700,4.874845703125,0.09232139587402344,0.4206078052520752,-0.0016924478113651276
1771073078648786200,4.8847861328125,0.10919570922851562,0.43531692028045654,0.08078408241271973
1771073078658726700,4.8947265625,0.19716835021972656,0.4193683862686157,0.2545454800128937
1771073078668667100,4.904667236328125,0.3798084259033203,0.40438270568847656,0.5305638313293457
1771073078678607600,4.914607666015625,0.7595357894897461,0.3236628770828247,0.7362185120582581
1771073078688548000,4.924548095703125,1.2499275207519531,0.1941523551940918,0.8751195669174194
1771073078698488600,4.934488525390625,1.8819704055786133,0.04856419563293457,0.9234092235565186
1771073078708429000,4.944428955078125,2.660830497741699,-0.13134729862213135,0.8131910562515259
1771073078718369500,4.95436962890625,3.1451377868652344,-0.2905278205871582,0.3995726406574249
1771073078728310000,4.96431005859375,2.994748115539551,-0.3468637466430664,-0.11658158898353577
1771073078738250500,4.97425048828125,2.1539573669433594,-0.3198058605194092,-0.4711610674858093
1771073078748191000,4.98419091796875,1.0580501556396484,-0.03132748603820801,-0.36277833580970764
1771073078758131200,4.994131103515625,0.36280250549316406,0.5767116546630859,0.12903468310832977
1771073078768071700,5.00407177734375,0.3523855209350586,1.1503549814224243,0.6631180644035339
1771073078778012200,5.01401220703125,1.091801643371582,1.3854480981826782,1.04264235496521
1771073078787952600,5.02395263671875,2.138418197631836,1.0845940113067627,1.108066201210022
1771073078797893000,5.03389306640625,2.8385562896728516,0.5037612915039062,1.0007845163345337
1771073078807833600,5.04383349609375,3.280226707458496,0.00397646427154541,0.782896876335144
1771073078817774000,5.053774169921875,3.651606559753418,-0.3731956481933594,0.4897027611732483
1771073078827714600,5.063714599609375,3.51442813873291,-0.7923507690429688,0.2069161832332611
1771073078837655000,5.073655029296875,2.9158315658569336,-1.225142002105713,-0.11045566201210022
1771073078847595500,5.083595458984375,1.9548730850219727,-1.5458495616912842,-0.39505618810653687
1771073078857536000,5.093535888671875,0.8209390640258789,-1.6631958484649658,-0.6065540313720703
1771073078867476500,5.1034765625,-0.3023862838745117,-1.5693343877792358,-0.8221808075904846
1771073078877417000,5.1134169921875,-1.3970508575439453,-1.341820240020752,-1.0418946743011475
1771073078887357400,5.123357421875,-2.445549488067627,-1.0928664207458496,-1.1694756746292114
1771073078897298000,5.1332978515625,-3.249450206756592,-0.8090015649795532,-1.0108058452606201
1771073078907238400,5.14323828125,-3.5128426551818848,-0.5251486301422119,-0.42548301815986633
1771073078917179000,5.153178955078125,-3.0253567695617676,-0.2666870355606079,0.4372785985469818
1771073078927119400,5.163119384765625,-2.271150588989258,-0.07188868522644043,1.141527771949768
1771073078937059800,5.173059814453125,-1.3411359786987305,0.0626678466796875,1.549415111541748
1771073078947000300,5.183000244140625,-0.30407047271728516,0.17155003547668457,1.8043431043624878
1771073078956940800,5.19294091796875,0.81964111328125,0.09575533866882324,1.8250585794448853
1771073078966881300,5.20288134765625,1.7783012390136719,-0.21104562282562256,1.6298891305923462
1771073078976821800,5.21282177734375,2.1699609756469727,-0.6147129535675049,1.3844006061553955
1771073078986762000,5.222761962890625,1.8863849639892578,-1.0358686447143555,0.9634178876876831
1771073078996702500,5.232702392578125,1.0292186737060547,-1.3507928848266602,0.35747551918029785
1771073079006643000,5.242642822265625,-0.09510135650634766,-1.495577096939087,-0.22307872772216797
1771073079016583400,5.25258349609375,-1.1142196655273438,-1.5107941627502441,-0.6091966032981873
1771073079026524000,5.26252392578125,-1.77125883102417,-1.380850076675415,-0.7763059139251709
1771073079036464400,5.27246435546875,-1.9478588104248047,-1.1750856637954712,-0.6805697083473206
1771073079046404900,5.28240478515625,-1.7976675033569336,-0.9750396013259888,-0.4973101019859314
1771073079056345300,5.292345458984375,-1.3947362899780273,-0.861341118812561,-0.323433518409729
1771073079066285800,5.302285888671875,-1.0467596054077148,-0.7741912603378296,-0.15477173030376434
1771073079076226300,5.312226318359375,-0.8652029037475586,-0.5995502471923828,0.05470690131187439
1771073079086166800,5.322166748046875,-0.9665718078613281,-0.354750394821167,0.24206575751304626
1771073079096107300,5.332107177734375,-1.1760120391845703,-0.06510019302368164,0.36781078577041626
1771073079106047700,5.3420478515625,-1.519927978515625,0.2070695161819458,0.49535489082336426
1771073079115988200,5.35198828125,-1.8290634155273438,0.38835835456848145,0.5822488069534302
1771073079125928700,5.3619287109375,-2.0276384353637695,0.4717869758605957,0.5812315940856934
1771073079135869200,5.371869140625,-2.2814130783081055,0.4965097904205322,0.5039508938789368
1771073079145809700,5.3818095703125,-2.507660388946533,0.5481538772583008,0.43556711077690125
1771073079155750100,5.391750244140625,-2.537748336791992,0.6658573150634766,0.43814817070961
1771073079165690600,5.401690673828125,-2.093024253845215,0.8171236515045166,0.47490406036376953
1771073079175631000,5.411631103515625,-1.3196840286254883,0.9519479274749756,0.5903929471969604
1771073079185571600,5.421571533203125,-0.5160255432128906,0.976287841796875,0.6956783533096313
1771073079195512000,5.431511962890625,0.1275796890258789,0.9068009853363037,0.7030112147331238
1771073079205452500,5.44145263671875,0.6718301773071289,0.7745628356933594,0.5241391062736511
1771073079215392800,5.451392822265625,1.0961847305297852,0.5739213228225708,0.22088192403316498
1771073079225333200,5.461333251953125,1.3585529327392578,0.3349093198776245,-0.12065443396568298
1771073079235273700,5.471273681640625,1.548069953918457,0.11174666881561279,-0.4449043273925781
1771073079245214200,5.481214111328125,1.6412544250488281,-0.05490291118621826,-0.7091943621635437
1771073079255154700,5.49115478515625,1.5595359802246094,-0.13705384731292725,-0.8831079602241516
1771073079265095200,5.50109521484375,1.245591163635254,-0.1804581880569458,-0.9834116697311401
1771073079275035600,5.51103564453125,0.8663311004638672,-0.1831376552581787,-1.034001350402832
1771073079284976000,5.52097607421875,0.6097965240478516,-0.11741495132446289,-1.0404326915740967
1771073079294916600,5.53091650390625,0.5922079086303711,-0.03856945037841797,-0.9892816543579102
1771073079304857000,5.540857177734375,0.6721782684326172,-0.040412306785583496,-0.8757004737854004
1771073079314797600,5.550797607421875,0.823512077331543,-0.03390908241271973,-0.6312398910522461
1771073079324738000,5.560738037109375,1.065572738647461,-0.02629411220550537,-0.31898409128189087
1771073079334678500,5.570678466796875,1.3510808944702148,-0.032150983810424805,-0.1827481985092163
1771073079344619000,5.580618896484375,1.3701171875,0.09229600429534912,-0.27387112379074097
1771073079354559500,5.5905595703125,0.8724393844604492,0.3384981155395508,-0.4549065828323364
1771073079364500000,5.6005,0.03499031066894531,0.5843825340270996,-0.4627814292907715
1771073079374440400,5.6104404296875,-0.9404516220092773,0.7661726474761963,-0.09171515703201294
1771073079384381000,5.620380859375,-1.5572104454040527,0.9925446510314941,0.6209998726844788
1771073079394321400,5.6303212890625,-1.0705184936523438,1.1232194900512695,1.119277834892273
1771073079404262000,5.640261962890625,0.42705821990966797,0.9401154518127441,1.2178950309753418
1771073079414202400,5.650202392578125,2.023651123046875,0.4949076175689697,1.115525245666504
1771073079424142800,5.660142822265625,3.2537574768066406,-0.11836087703704834,0.6450111269950867
1771073079434083000,5.6700830078125,3.9654312133789062,-0.7707961797714233,-0.014496564865112305
1771073079444023600,5.6800234375,3.9966516494750977,-1.3448693752288818,-0.7166239023208618
1771073079453964000,5.689964111328125,3.4594974517822266,-1.7276486158370972,-1.3076567649841309
1771073079463904800,5.69990478515625,2.467184066772461,-1.8295812606811523,-1.8008326292037964
1771073079473845200,5.70984521484375,1.3231334686279297,-1.6418654918670654,-2.0216078758239746
1771073079483785700,5.71978564453125,0.18173980712890625,-1.2978870868682861,-2.0890989303588867
1771073079493726200,5.729726318359375,-0.8271284103393555,-0.8700006008148193,-2.014066696166992
1771073079503666700,5.739666748046875,-1.6745109558105469,-0.41493892669677734,-1.6019840240478516
1771073079513607200,5.749607177734375,-2.0351881980895996,0.04784584045410156,-0.9319905638694763
1771073079523548000,5.7595478515625,-1.8871068954467773,0.3447718620300293,-0.2481994330883026
1771073079533488400,5.76948828125,-1.3913850784301758,0.41660451889038086,0.30398857593536377
1771073079543428900,5.779428955078125,-0.7202062606811523,0.38120222091674805,0.6788142919540405
1771073079553369300,5.789369384765625,-0.0643167495727539,0.30260753631591797,0.8262180685997009
1771073079563309800,5.799309814453125,0.46710872650146484,0.16089677810668945,0.8144717216491699
1771073079573250300,5.809250244140625,0.6049957275390625,-0.0874478816986084,0.6212530136108398
1771073079583190800,5.819190673828125,0.31466102600097656,-0.3910045623779297,0.21892747282981873
1771073079593131500,5.829131591796875,-0.25237178802490234,-0.6755950450897217,-0.27735593914985657
1771073079603072000,5.839072021484375,-0.8471364974975586,-0.9022146463394165,-0.6676793098449707
1771073079613012500,5.849012451171875,-1.3239469528198242,-1.065504550933838,-0.9073403477668762
1771073079622953000,5.858952880859375,-1.570770263671875,-1.1561776399612427,-1.0370732545852661
1771073079632893400,5.8688935546875,-1.5639820098876953,-1.2164442539215088,-1.2007989883422852
1771073079642834000,5.878833984375,-1.4373855590820312,-1.2635610103607178,-1.3964122533798218
1771073079652774700,5.888774658203125,-1.4008073806762695,-1.3033151626586914,-1.5045576095581055
1771073079662715100,5.898715087890625,-1.5062236785888672,-1.280456304550171,-1.5168848037719727
1771073079672655600,5.908655517578125,-1.690962314605713,-1.1536802053451538,-1.4001634120941162
1771073079682596000,5.91859619140625,-1.8926520347595215,-0.9000407457351685,-1.1796026229858398
1771073079692536600,5.92853662109375,-2.0085997581481934,-0.5530097484588623,-0.9441821575164795
1771073079702477000,5.93847705078125,-1.9817605018615723,-0.16205370426177979,-0.6528123617172241
1771073079712417800,5.948417724609375,-1.8796076774597168,0.21056270599365234,-0.2707897126674652
1771073079722358300,5.958358154296875,-1.6096935272216797,0.5110410451889038,-0.02190917730331421
1771073079732298800,5.968298828125,-1.2804536819458008,0.7232385873794556,0.12837021052837372
1771073079742239200,5.9782392578125,-1.071908950805664,0.8548698425292969,0.22362849116325378
1771073079752179700,5.9881796875,-1.0205421447753906,0.8997766971588135,0.316670298576355
1771073079762120200,5.9981201171875,-0.9740991592407227,0.9310253858566284,0.3874008059501648
1771073079772060700,6.008060791015625,-0.8422689437866211,0.9169497489929199,0.341616690158844
1771073079782001200,6.018001220703125,-0.47930240631103516,0.8135647773742676,0.13439518213272095
1771073079791941600,6.027941650390625,-0.05432605743408203,0.6261786222457886,-0.1806262731552124
1771073079801882000,6.037882080078125,0.15422725677490234,0.4024813175201416,-0.47152990102767944
1771073079811822600,6.047822509765625,0.19303131103515625,0.23253250122070312,-0.6745958924293518
1771073079821763000,6.05776318359375,0.28023719787597656,0.1313471794128418,-0.7525470852851868
1771073079831703600,6.06770361328125,0.41364097595214844,0.04474163055419922,-0.7887176871299744
1771073079841644000,6.07764404296875,0.5001125335693359,-0.027909159660339355,-0.811284065246582
1771073079851584500,6.08758447265625,0.6593999862670898,-0.05670297145843506,-0.7934294939041138
1771073079861525000,6.09752490234375,0.8054885864257812,0.03623676300048828,-0.7311296463012695
1771073079871465200,6.10746533203125,0.9001989364624023,0.1574392318725586,-0.6841375827789307
1771073079881405700,6.11740576171875,0.9745302200317383,0.28382015228271484,-0.6440443992614746
1771073079891346200,6.12734619140625,0.9900655746459961,0.3713829517364502,-0.5095506906509399
1771073079901286700,6.13728662109375,0.9082746505737305,0.415552020072937,-0.2560689151287079
1771073079911227100,6.14722705078125,0.7786149978637695,0.41895580291748047,-0.010025948286056519
1771073079921167600,6.157167724609375,0.8894853591918945,0.3848985433578491,0.17549669742584229
1771073079931108000,6.167108154296875,1.0345687866210938,0.2859913110733032,0.326556921005249
1771073079941048600,6.177048583984375,1.2900762557983398,0.15132355690002441,0.48276156187057495
1771073079950989000,6.186989013671875,1.6822118759155273,-0.03248786926269531,0.5169826149940491
1771073079960929500,6.196929443359375,2.127577781677246,-0.21607375144958496,0.46311381459236145
1771073079970870000,6.2068701171875,2.6722593307495117,-0.3542395830154419,0.13784179091453552
1771073079980810500,6.216810546875,2.8179779052734375,-0.3553847074508667,-0.35034602880477905
1771073079990751000,6.2267509765625,2.0148019790649414,-0.31820976734161377,-0.6769029498100281
1771073080000691500,6.23669140625,0.7327604293823242,-0.16683447360992432,-0.6668174266815186
1771073080010632000,6.2466318359375,-0.45026111602783203,0.13312208652496338,-0.44495511054992676
1771073080020572400,6.256572509765625,-1.0729608535766602,0.5117805004119873,0.0011045634746551514
1771073080030513000,6.266512939453125,-0.8442707061767578,0.8842799663543701,0.5275291204452515
1771073080040453400,6.276453369140625,0.1354970932006836,0.8306241035461426,0.7512408494949341
1771073080050393900,6.286393798828125,1.2612152099609375,0.300326943397522,0.7535429000854492
1771073080060334300,6.296334228515625,2.0034799575805664,-0.30391836166381836,0.7738385796546936
1771073080070274800,6.30627490234375,2.710712432861328,-0.8381989002227783,0.481067955493927
1771073080080215300,6.31621533203125,3.1572751998901367,-1.3504236936569214,-0.09969665110111237
1771073080090155500,6.326155517578125,3.020199775695801,-1.7987529039382935,-0.7771549224853516
1771073080100096000,6.336095947265625,2.272977828979492,-1.989653468132019,-1.2723602056503296
1771073080110036500,6.346036376953125,1.2300176620483398,-1.7829556465148926,-1.4544638395309448
1771073080119977000,6.35597705078125,0.257293701171875,-1.4014253616333008,-1.540423035621643
1771073080129917400,6.36591748046875,-0.8130922317504883,-1.0616211891174316,-1.7123323678970337
1771073080139858000,6.37585791015625,-2.1587653160095215,-0.7388437986373901,-1.6232229471206665
1771073080149798400,6.38579833984375,-3.3271689414978027,-0.423031210899353,-1.201401710510254
1771073080159739000,6.39573876953125,-4.0322089195251465,-0.1116713285446167,-0.5369011759757996
1771073080169679400,6.405679443359375,-3.792311191558838,0.2472519874572754,0.2917158603668213
1771073080179619800,6.415619873046875,-2.40970516204834,0.3567929267883301,0.8423692584037781
1771073080189560300,6.425560302734375,-0.3249244689941406,0.20010530948638916,1.1471513509750366
1771073080199500800,6.435500732421875,1.727036476135254,-0.0728830099105835,1.461745262145996
1771073080209441300,6.445441162109375,3.3592023849487305,-0.47750067710876465,1.4921468496322632
1771073080219381800,6.4553818359375,4.110905647277832,-0.919761061668396,1.2036651372909546
1771073080229322200,6.465322265625,3.71982479095459,-1.3085887432098389,0.6040588617324829
1771073080239262700,6.4752626953125,2.449042320251465,-1.517932653427124,-0.12962622940540314
1771073080249203200,6.485203125,0.9114971160888672,-1.5368560552597046,-0.7250500321388245
1771073080259143700,6.495143798828125,-0.5967578887939453,-1.5455355644226074,-1.2633750438690186
1771073080269084200,6.505084228515625,-1.8998913764953613,-1.4674454927444458,-1.6847718954086304
1771073080279024600,6.515024658203125,-2.82020902633667,-1.2566174268722534,-1.7940566539764404
1771073080288965000,6.524965087890625,-3.24245548248291,-0.9402951002120972,-1.6209558248519897
1771073080298905600,6.534905517578125,-3.287569046020508,-0.6265612840652466,-1.3000831604003906
1771073080308846000,6.54484619140625,-3.154592990875244,-0.29086971282958984,-0.862397313117981
1771073080318786300,6.554786376953125,-2.8054962158203125,0.036226511001586914,-0.4721452295780182
1771073080328726800,6.564726806640625,-2.2810444831848145,0.3793983459472656,-0.14338603615760803
1771073080338667300,6.574667236328125,-1.7171645164489746,0.6506617069244385,0.09648695588111877
1771073080348607700,6.584607666015625,-1.2925634384155273,0.7965021133422852,0.26389044523239136
1771073080358548200,6.59454833984375,-0.9398775100708008,0.8526535034179688,0.35302644968032837
1771073080368488700,6.60448876953125,-0.544097900390625,0.823357343673706,0.29278042912483215
1771073080378429200,6.61442919921875,-0.1166543960571289,0.7352011203765869,0.20781414210796356
1771073080388369700,6.62436962890625,-0.04629802703857422,0.5670521259307861,0.1381683349609375
1771073080398310100,6.63431005859375,-0.3632659912109375,0.3918273448944092,0.0903385579586029
1771073080408250600,6.644250732421875,-0.9623308181762695,0.2970278263092041,0.14948670566082
1771073080418191000,6.654191162109375,-1.569836139678955,0.4012300968170166,0.24092316627502441
1771073080428131600,6.664131591796875,-1.7193245887756348,0.6234829425811768,0.19814985990524292
1771073080438072000,6.674072021484375,-1.2285041809082031,0.785369873046875,0.09577929973602295
1771073080448012500,6.684012451171875,0.06018543243408203,0.8163495063781738,0.06462305784225464
1771073080457953000,6.693953125,1.0921125411987305,0.6844897270202637,0.16527530550956726
1771073080467893500,6.7038935546875,1.3686370849609375,0.3164401054382324,0.16758988797664642
1771073080477834000,6.713833984375,0.8660621643066406,-0.04481363296508789,0.03397652506828308
1771073080487774500,6.7237744140625,0.017913818359375,-0.20510101318359375,-0.29977864027023315
1771073080497715000,6.73371484375,-0.7180089950561523,-0.10672974586486816,-0.6327768564224243
1771073080507655400,6.743655517578125,-1.2865533828735352,0.15562987327575684,-0.7616119384765625
1771073080517596000,6.753595947265625,-1.8264689445495605,0.4571726322174072,-0.8148205280303955
1771073080527536400,6.763536376953125,-2.1392736434936523,0.7079710960388184,-0.8180633187294006
1771073080537476900,6.773476806640625,-2.114786148071289,0.9019122123718262,-0.8982737064361572
1771073080547417000,6.7834169921875,-1.7278270721435547,0.9312806129455566,-0.9949445128440857
1771073080557357600,6.793357666015625,-1.1674089431762695,0.8567397594451904,-0.9197168350219727
1771073080567298000,6.803298095703125,-0.35155296325683594,0.6035232543945312,-0.7561744451522827
1771073080577238500,6.813238525390625,0.4222269058227539,0.2654876708984375,-0.6946932077407837
1771073080587179000,6.823178955078125,1.1266202926635742,-0.057634830474853516,-0.881548285484314
1771073080597119500,6.833119384765625,1.6550312042236328,-0.14773273468017578,-1.1993868350982666
1771073080607060000,6.84306005859375,1.7908029556274414,-0.10609078407287598,-1.5417410135269165
1771073080617000400,6.85300048828125,1.5339117050170898,-0.07861590385437012,-1.585218071937561
1771073080626941000,6.86294091796875,1.4450254440307617,-0.10231351852416992,-1.311532735824585
1771073080636881400,6.87288134765625,1.7641773223876953,-0.10587763786315918,-0.9276443719863892
1771073080646822000,6.88282177734375,2.5220203399658203,-0.10247015953063965,-0.600315511226654
1771073080656762400,6.892762451171875,3.408845901489258,-0.2016890048980713,-0.3980150818824768
1771073080666702800,6.902702880859375,3.886502265930176,-0.47310638427734375,-0.27240613102912903
1771073080676643300,6.912643310546875,3.684750556945801,-0.8097050189971924,-0.31937700510025024
1771073080686583800,6.922583740234375,3.017538070678711,-1.101043701171875,-0.6686676740646362
1771073080696524300,6.932524169921875,2.2481298446655273,-1.2304061651229858,-1.0415055751800537
1771073080706464800,6.94246484375,1.774785041809082,-1.2773977518081665,-1.3358712196350098
1771073080716405200,6.9524052734375,1.6974172592163086,-1.3726775646209717,-1.497694730758667
1771073080726345700,6.962345703125,1.7964792251586914,-1.4792643785476685,-1.5710859298706055
1771073080736286200,6.9722861328125,1.7099199295043945,-1.5106152296066284,-1.5640326738357544
1771073080746226700,6.982226806640625,1.1520185470581055,-1.391550064086914,-1.523156762123108
1771073080756167200,6.992167236328125,0.37856197357177734,-1.140882968902588,-1.5185023546218872
1771073080766107600,7.002107666015625,-0.4279623031616211,-0.8505887985229492,-1.486801028251648
1771073080776047900,7.0120478515625,-1.124074935913086,-0.5829441547393799,-1.3632227182388306
1771073080785988400,7.02198828125,-1.4325437545776367,-0.3199341297149658,-1.0802600383758545
1771073080795928800,7.0319287109375,-1.2238216400146484,-0.19475126266479492,-0.7076296806335449
1771073080805869300,7.041869384765625,-0.7064609527587891,-0.2607078552246094,-0.3524031341075897
1771073080815809800,7.051809814453125,-0.1836528778076172,-0.4337446689605713,-0.1532418429851532
1771073080825750300,7.061750244140625,0.13303756713867188,-0.590167760848999,-0.13700522482395172
1771073080835690800,7.071690673828125,0.2782564163208008,-0.7228384017944336,-0.22301717102527618
1771073080845631200,7.08163134765625,0.30780029296875,-0.8166675567626953,-0.31623291969299316
1771073080855571700,7.09157177734375,0.32511043548583984,-0.8804595470428467,-0.39044153690338135
1771073080865512200,7.10151220703125,0.36628055572509766,-0.948548436164856,-0.4898664951324463
1771073080875452700,7.11145263671875,0.4458742141723633,-1.002822756767273,-0.49591588973999023
1771073080885393200,7.12139306640625,0.5523653030395508,-1.0355677604675293,-0.4779766798019409
1771073080895333600,7.131333740234375,0.6434545516967773,-1.1140140295028687,-0.5459985136985779
1771073080905274000,7.141274169921875,0.6316356658935547,-1.2123830318450928,-0.653967022895813
1771073080915214600,7.151214599609375,0.37455177307128906,-1.2734158039093018,-0.6775578260421753
1771073080925155000,7.161155029296875,-0.06483078002929688,-1.2645795345306396,-0.6262083053588867
1771073080935095600,7.171095458984375,-0.49526405334472656,-1.1680220365524292,-0.5186355113983154
1771073080945036000,7.1810361328125,-0.7666091918945312,-1.0565342903137207,-0.4102169871330261
1771073080954976500,7.1909765625,-1.0659914016723633,-0.8973231315612793,-0.23287802934646606
1771073080964917000,7.2009169921875,-1.425154685974121,-0.7260026931762695,-0.05858178436756134
1771073080974857500,7.210857421875,-1.770805835723877,-0.5539567470550537,0.03793039917945862
1771073080984798000,7.2207978515625,-1.984405517578125,-0.38092803955078125,0.08170825242996216
1771073080994738200,7.23073828125,-2.183960437774658,-0.21474504470825195,0.11338391900062561
1771073081004678700,7.2406787109375,-2.4228720664978027,-0.05084514617919922,0.24471941590309143
1771073081014619100,7.250619140625,-2.6374478340148926,0.13478708267211914,0.3840629458427429
1771073081024559600,7.2605595703125,-2.7636423110961914,0.3361032009124756,0.47637659311294556
1771073081034500000,7.2705,-2.785431385040283,0.5472657680511475,0.5232003927230835
1771073081044440600,7.280440673828125,-2.7106428146362305,0.7766807079315186,0.5236485004425049
1771073081054381000,7.290381103515625,-2.486758232116699,0.9427237510681152,0.43082037568092346
1771073081064321500,7.300321533203125,-1.9987640380859375,0.9767146110534668,0.2370467483997345
1771073081074262000,7.310261962890625,-1.324704647064209,0.8771224021911621,0.039056360721588135
1771073081084202500,7.320202392578125,-0.6401891708374023,0.7347927093505859,-0.11370456218719482
1771073081094143000,7.33014306640625,-0.25451183319091797,0.581690788269043,-0.24415501952171326
1771073081104083500,7.34008349609375,-0.12339401245117188,0.49025440216064453,-0.38462886214256287
1771073081114024000,7.35002392578125,-0.07915115356445312,0.4992556571960449,-0.40592068433761597
1771073081123964400,7.35996435546875,0.0688180923461914,0.5556809902191162,-0.3967398405075073
1771073081133905000,7.36990478515625,0.41307926177978516,0.6096515655517578,-0.37559765577316284
1771073081143845400,7.379845458984375,0.6353025436401367,0.6345620155334473,-0.33820217847824097
1771073081153785900,7.389785888671875,0.6708841323852539,0.693650484085083,-0.32447776198387146
1771073081163726300,7.399726318359375,0.6966066360473633,0.8005461692810059,-0.38918888568878174
1771073081173666800,7.409666748046875,0.8340358734130859,0.8297772407531738,-0.576874852180481
1771073081183607300,7.419607177734375,1.0236501693725586,0.7304081916809082,-0.5884369015693665
1771073081193547800,7.4295478515625,1.3471498489379883,0.6013767719268799,-0.4925999045372009
1771073081203488300,7.43948828125,1.671320915222168,0.5564606189727783,-0.3330411911010742
1771073081213428700,7.4494287109375,1.702763557434082,0.5791807174682617,-0.14295297861099243
1771073081223369000,7.459368896484375,1.4706306457519531,0.6483860015869141,0.00922614336013794
1771073081233309400,7.469309326171875,1.3138742446899414,0.7451949119567871,-0.07223498821258545
1771073081243250000,7.47925,1.3316240310668945,0.8719258308410645,-0.381492555141449
1771073081253190400,7.4891904296875,1.2268085479736328,0.8858463764190674,-0.6566667556762695
1771073081263131000,7.499130859375,0.8348598480224609,0.8069067001342773,-0.6813881993293762
1771073081273071400,7.5090712890625,0.19414997100830078,0.9226150512695312,-0.44642820954322815
1771073081283011800,7.51901171875,-0.4405364990234375,1.2739100456237793,-0.0763443112373352
1771073081292952300,7.528952392578125,-0.7769126892089844,1.675236701965332,0.3893691897392273
1771073081302892800,7.538892822265625,-0.6734066009521484,2.00960636138916,0.9323989748954773
1771073081312833300,7.548833251953125,0.2966327667236328,2.003000497817993,1.261582851409912
1771073081322773800,7.558773681640625,1.7813940048217773,1.6103050708770752,1.3464268445968628
1771073081332714200,7.56871435546875,3.517457962036133,1.0025949478149414,1.3102627992630005
1771073081342654700,7.57865478515625,5.297018051147461,0.1736438274383545,0.8729076385498047
1771073081352595200,7.58859521484375,6.501677513122559,-0.9690343141555786,0.05353665351867676
1771073081362535700,7.59853564453125,6.511381149291992,-2.0503406524658203,-0.756739616394043
1771073081372476200,7.60847607421875,5.2819318771362305,-2.782153606414795,-1.4920684099197388
1771073081382416600,7.618416748046875,3.386782646179199,-3.0960280895233154,-2.12849760055542
1771073081392357000,7.628357177734375,1.3255205154418945,-2.993971586227417,-2.5238466262817383
1771073081402297600,7.638297607421875,-0.3704662322998047,-2.586998701095581,-2.682701826095581
1771073081412238000,7.648238037109375,-1.7306032180786133,-2.022775173187256,-2.490048885345459
1771073081422178600,7.658178466796875,-2.8011884689331055,-1.4615681171417236,-2.006535530090332
1771073081432119000,7.668119140625,-3.260237693786621,-0.8960268497467041,-1.3552807569503784
1771073081442059500,7.6780595703125,-3.0148086547851562,-0.3485410213470459,-0.5597255229949951
1771073081451999700,7.687999755859375,-2.5298967361450195,0.06954574584960938,0.29301759600639343
1771073081461940200,7.697940185546875,-1.83164644241333,0.29595422744750977,0.8502998352050781
1771073081471880700,7.707880615234375,-1.1466264724731445,0.3375263214111328,1.110182762145996
1771073081481821200,7.7178212890625,-0.5509004592895508,0.24807000160217285,1.1887145042419434
1771073081491761700,7.72776171875,-0.058653831481933594,0.0680384635925293,1.2367136478424072
1771073081501702100,7.7377021484375,0.3322629928588867,-0.22597956657409668,1.1376965045928955
1771073081511642600,7.747642578125,0.40456104278564453,-0.6127698421478271,0.8062041401863098
1771073081521583000,7.7575830078125,0.22374439239501953,-1.0546751022338867,0.1656920313835144
1771073081531523600,7.767523681640625,-0.1802654266357422,-1.423283576965332,-0.5446431636810303
1771073081541464000,7.777464111328125,-0.7753105163574219,-1.7044788599014282,-1.0922701358795166
1771073081551404500,7.787404541015625,-1.2214717864990234,-1.8840408325195312,-1.4780956506729126
1771073081561345000,7.797344970703125,-1.4448771476745605,-1.9481507539749146,-1.6930291652679443
1771073081571285500,7.807285400390625,-1.3786468505859375,-1.8749686479568481,-1.776437759399414
1771073081581226000,7.81722607421875,-1.1991539001464844,-1.7520592212677002,-1.6932986974716187
1771073081591166500,7.82716650390625,-1.1586828231811523,-1.585850477218628,-1.4267816543579102
1771073081601107000,7.83710693359375,-1.2731819152832031,-1.351798176765442,-1.1398077011108398
1771073081611047400,7.84704736328125,-1.3128952980041504,-1.0553226470947266,-0.9194425344467163
1771073081620988000,7.85698779296875,-1.4382729530334473,-0.7077755928039551,-0.6413893699645996
1771073081630928400,7.866928466796875,-1.5974502563476562,-0.3876640796661377,-0.4025131165981293
1771073081640868900,7.876868896484375,-1.719902515411377,-0.11979937553405762,-0.2214994579553604
1771073081650809300,7.886809326171875,-1.9003844261169434,0.12684178352355957,-0.08134439587593079
1771073081660749800,7.896749755859375,-1.9325065612792969,0.3281364440917969,-0.00038896501064300537
1771073081670690600,7.906690673828125,-1.7934904098510742,0.49576497077941895,0.08605319261550903
1771073081680631000,7.916631103515625,-1.512497901916504,0.6299638748168945,0.23125788569450378
1771073081690571500,7.926571533203125,-1.2041215896606445,0.7510924339294434,0.35650381445884705
1771073081700512000,7.936511962890625,-0.9060754776000977,0.8480348587036133,0.40867188572883606
1771073081710452500,7.946452392578125,-0.7082977294921875,0.904350757598877,0.41907015442848206
1771073081720393000,7.95639306640625,-0.5670967102050781,0.861752986907959,0.3690955340862274
1771073081730333400,7.96633349609375,-0.3216714859008789,0.7617380619049072,0.2831796109676361
1771073081740274200,7.976274169921875,-0.05271720886230469,0.6690883636474609,0.16216936707496643
1771073081750214700,7.986214599609375,0.19486427307128906,0.5343620777130127,-0.08923684060573578
1771073081760155100,7.996155029296875,0.39050865173339844,0.37050867080688477,-0.38362565636634827
1771073081770095600,8.006095703125,0.5059328079223633,0.19090509414672852,-0.5939586162567139
1771073081780036000,8.0160361328125,0.6106348037719727,0.03335690498352051,-0.6675925254821777
1771073081789976600,8.0259765625,0.8145837783813477,-0.021613597869873047,-0.5608563423156738
1771073081799917300,8.035917236328125,0.9910268783569336,-0.03914284706115723,-0.4569321870803833
1771073081809857800,8.04585791015625,1.1761760711669922,-0.08261799812316895,-0.4078625738620758
1771073081819798300,8.05579833984375,1.3392705917358398,-0.08141899108886719,-0.2983417809009552
1771073081829738800,8.06573876953125,1.3563947677612305,-0.06011152267456055,-0.10990959405899048
1771073081839679200,8.07567919921875,1.1198253631591797,-0.006986141204833984,0.057582393288612366
1771073081849619700,8.08561962890625,0.9301786422729492,0.08815479278564453,0.17901693284511566
1771073081859560400,8.095560546875,1.0444650650024414,0.2089085578918457,0.18424727022647858
1771073081869501000,8.1055009765625,1.2778396606445312,0.4183793067932129,0.07001404464244843
1771073081879441400,8.11544140625,1.1283950805664062,0.6431355476379395,-0.04654580354690552
1771073081889382000,8.1253818359375,0.4721651077270508,0.7591273784637451,-0.09781187772750854
1771073081899322400,8.135322265625,-0.44991397857666016,0.7975537776947021,-0.0034022629261016846
1771073081909262800,8.145262939453126,-1.1760177612304688,0.9483366012573242,0.33066806197166443
1771073081919203300,8.155203369140626,-1.1900386810302734,1.224839448928833,0.7554853558540344
1771073081929143800,8.165143798828124,-0.3095893859863281,1.2987141609191895,1.025451421737671
1771073081939084300,8.175084228515624,1.0116567611694336,0.9781765937805176,1.1390995979309082
1771073081949024800,8.185024658203124,2.046894073486328,0.3903501033782959,1.0247206687927246
1771073081958965200,8.19496533203125,3.0117835998535156,-0.1329178810119629,0.576178789138794
1771073081968905700,8.20490576171875,3.6748485565185547,-0.593172550201416,-0.06045600771903992
1771073081978846200,8.21484619140625,3.902310371398926,-1.0419849157333374,-0.523180365562439
1771073081988786700,8.22478662109375,3.743741035461426,-1.439234733581543,-0.9332171678543091
1771073081998727200,8.23472705078125,3.073671340942383,-1.690192699432373,-1.3105497360229492
1771073082008667600,8.244667724609375,1.868478775024414,-1.5816954374313354,-1.5178613662719727
1771073082018607900,8.25460791015625,0.6124668121337891,-1.1036607027053833,-1.3693394660949707
1771073082028548400,8.26454833984375,-0.564875602722168,-0.5438334941864014,-1.0508650541305542
1771073082038488800,8.27448876953125,-1.6997032165527344,-0.015992403030395508,-0.4831496477127075
1771073082048429300,8.28442919921875,-2.475219249725342,0.5253174304962158,0.3182242512702942
1771073082058369800,8.294369873046875,-2.4527292251586914,1.1084635257720947,1.2468024492263794
1771073082068310300,8.304310302734375,-1.4765219688415527,1.4763875007629395,1.8941007852554321
1771073082078250800,8.314250732421876,-0.17484092712402344,1.4663889408111572,2.1721031665802
1771073082088191200,8.324191162109376,0.8233575820922852,1.0867087841033936,2.0561156272888184
1771073082098131700,8.334131591796876,1.3174285888671875,0.4615745544433594,1.6701116561889648
1771073082108072200,8.344072265625,1.357295036315918,-0.19942617416381836,0.9905871748924255
1771073082118012700,8.3540126953125,1.0065622329711914,-0.7473344802856445,0.160989910364151
1771073082127953200,8.363953125,0.2660846710205078,-1.2059756517410278,-0.6858550906181335
1771073082137893600,8.3738935546875,-0.529484748840332,-1.551978588104248,-1.338809847831726
1771073082147834000,8.383834228515624,-1.0151853561401367,-1.7553808689117432,-1.754248023033142
1771073082157774600,8.393774658203125,-1.170262336730957,-1.8074837923049927,-1.8839049339294434
1771073082167715000,8.403715087890625,-1.209939956665039,-1.720252513885498,-1.6778595447540283
1771073082177655600,8.413655517578125,-1.361088752746582,-1.559564232826233,-1.2639284133911133
1771073082187596000,8.423595947265625,-1.4802265167236328,-1.2537528276443481,-0.7771626114845276
1771073082197536500,8.43353662109375,-1.3786611557006836,-0.894212007522583,-0.39576900005340576
1771073082207477000,8.44347705078125,-1.2618017196655273,-0.5567052364349365,-0.0008064359426498413
1771073082217417500,8.45341748046875,-1.3850517272949219,-0.33951425552368164,0.3225058913230896
1771073082227358000,8.46335791015625,-1.5857853889465332,-0.19085907936096191,0.5027199387550354
1771073082237298200,8.473298095703125,-1.7591571807861328,-0.05414605140686035,0.5651355385780334
1771073082247238700,8.48323876953125,-1.8603248596191406,0.05800318717956543,0.5171412229537964
1771073082257179100,8.49317919921875,-1.8969545364379883,0.11099386215209961,0.4574403762817383
1771073082267119600,8.50311962890625,-1.9292144775390625,0.11559557914733887,0.3889755308628082
1771073082277060000,8.51306005859375,-1.9812278747558594,0.11330008506774902,0.28438085317611694
1771073082287000600,8.52300048828125,-1.9267373085021973,0.13405656814575195,0.13950535655021667
1771073082296941000,8.532941162109376,-1.6350302696228027,0.19590067863464355,0.04777724668383598
1771073082306881500,8.542881591796874,-1.1112031936645508,0.21423912048339844,-0.052815601229667664
1771073082316822000,8.552822021484374,-0.5985984802246094,0.1551520824432373,-0.11990193277597427
1771073082326762500,8.562762451171874,-0.31592845916748047,0.09883928298950195,-0.20480526983737946
1771073082336703000,8.572702880859374,-0.3359518051147461,0.10240626335144043,-0.28021782636642456
1771073082346643500,8.5826435546875,-0.5766029357910156,0.18201375007629395,-0.34907734394073486
1771073082356584000,8.592583984375,-0.7440891265869141,0.31069397926330566,-0.3070025146007538
1771073082366524400,8.6025244140625,-0.7864847183227539,0.43737244606018066,-0.16301369667053223
1771073082376465000,8.61246484375,-0.7259931564331055,0.5181670188903809,-0.001875508576631546
1771073082386405400,8.6224052734375,-0.5104827880859375,0.6158759593963623,0.18120187520980835
1771073082396345900,8.632345947265625,-0.3002777099609375,0.7135281562805176,0.2886562943458557
1771073082406286300,8.642286376953125,-0.09315204620361328,0.7281994819641113,0.29051920771598816
1771073082416226800,8.652226806640625,0.12989330291748047,0.6604821681976318,0.19343771040439606
1771073082426167300,8.662167236328125,0.37136363983154297,0.5673105716705322,0.11781306564807892
1771073082436107800,8.672107666015625,0.571782112121582,0.519418478012085,0.05182592570781708
1771073082446048300,8.68204833984375,0.6168622970581055,0.5277385711669922,0.086473748087883
1771073082455988700,8.69198876953125,0.5095119476318359,0.565640926361084,0.30717039108276367
1771073082465929000,8.701928955078126,0.3671560287475586,0.5785791873931885,0.553726077079773
1771073082475869400,8.711869384765626,0.30198192596435547,0.6059441566467285,0.7946267127990723
1771073082485810000,8.721809814453126,0.35164928436279297,0.6400163173675537,1.0361967086791992
1771073082495750400,8.73175048828125,0.7500543594360352,0.6071224212646484,1.1433852910995483
1771073082505691000,8.74169091796875,1.6261920928955078,0.4709620475769043,1.0655696392059326
1771073082515631400,8.75163134765625,2.4737415313720703,0.29775047302246094,0.7656823992729187
1771073082525571800,8.76157177734375,2.6175384521484375,0.0807795524597168,0.37472307682037354
1771073082535512300,8.77151220703125,1.8273248672485352,0.03316473960876465,0.2163788080215454
1771073082545452800,8.781452880859375,0.40659046173095703,0.3083040714263916,0.36927878856658936
1771073082555393300,8.791393310546875,-0.5958538055419922,0.8071117401123047,0.7364317178726196
1771073082565333800,8.801333740234375,-0.7063322067260742,1.2321162223815918,1.1852946281433105
1771073082575274200,8.811274169921875,0.16249942779541016,1.3106780052185059,1.5919420719146729
1771073082585214700,8.821214599609375,1.6340084075927734,1.0534584522247314,1.8126951456069946
1771073082595155200,8.8311552734375,3.004241943359375,0.5998551845550537,1.8188858032226562
1771073082605095700,8.841095703125,4.328974723815918,0.03299140930175781,1.5722198486328125
1771073082615036200,8.8510361328125,5.231651306152344,-0.5864782333374023,1.1330018043518066
1771073082624976600,8.8609765625,5.293259620666504,-1.2505252361297607,0.5003603100776672
1771073082634917000,8.870917236328125,4.500486373901367,-1.7557322978973389,-0.17611050605773926
1771073082644857600,8.880857666015626,3.044644355773926,-1.8845783472061157,-0.796846330165863
1771073082654798000,8.890798095703126,1.6170978546142578,-1.7309966087341309,-1.1714649200439453
1771073082664738600,8.900738525390626,0.3145866394042969,-1.4578171968460083,-1.3836157321929932
1771073082674679000,8.910678955078126,-0.8912429809570312,-1.172095775604248,-1.458714246749878
1771073082684619500,8.92061962890625,-1.8950777053833008,-0.9356787204742432,-1.2644424438476562
1771073082694559700,8.930559814453124,-2.450888156890869,-0.7111296653747559,-0.8652034997940063
1771073082704500200,8.940500244140624,-2.3578333854675293,-0.4501016139984131,-0.22395402193069458
1771073082714440700,8.950440673828124,-1.5437049865722656,-0.26541805267333984,0.47750991582870483
1771073082724381200,8.960381103515624,-0.45378971099853516,-0.2256615161895752,1.0217777490615845
1771073082734321700,8.97032177734375,0.5178947448730469,-0.2659130096435547,1.3908137083053589
1771073082744262100,8.98026220703125,1.2261848449707031,-0.3607604503631592,1.718822956085205
1771073082754202600,8.99020263671875,1.6740503311157227,-0.5174977779388428,1.916837453842163
1771073082764143000,9.00014306640625,1.6418514251708984,-0.7774944305419922,1.7861075401306152
1771073082774083600,9.01008349609375,1.0010309219360352,-1.0692784786224365,1.3547475337982178
1771073082784024000,9.020024169921875,-0.027925491333007812,-1.2757991552352905,0.7699510455131531
1771073082793964500,9.029964599609375,-0.9287223815917969,-1.4157886505126953,0.2149348258972168
1771073082803905000,9.039905029296875,-1.5677170753479004,-1.5421785116195679,-0.2452341914176941
1771073082813845500,9.049845458984375,-2.023484230041504,-1.6127631664276123,-0.565893292427063
1771073082823786000,9.059785888671875,-2.364717960357666,-1.5840387344360352,-0.7607924342155457
1771073082833726500,9.0697265625,-2.5119056701660156,-1.4802720546722412,-0.9233253598213196
1771073082843667000,9.0796669921875,-2.3330588340759277,-1.3249088525772095,-1.0744532346725464
1771073082853607400,9.089607421875,-2.004570484161377,-1.1734941005706787,-1.094352126121521
1771073082863548000,9.0995478515625,-1.702528476715088,-1.0071808099746704,-0.8918226361274719
1771073082873488400,9.10948828125,-1.3570098876953125,-0.8295077085494995,-0.6446109414100647
1771073082883428900,9.119428955078124,-1.0872011184692383,-0.6210546493530273,-0.414655864238739
1771073082893369300,9.129369384765624,-0.9598932266235352,-0.4175379276275635,-0.24396543204784393
1771073082903309800,9.139309814453124,-1.0613212585449219,-0.23316073417663574,-0.08439163863658905
1771073082913250800,9.149250732421875,-1.3947563171386719,-0.09572649002075195,0.008612602949142456
1771073082923191000,9.15919091796875,-1.691634178161621,0.06134510040283203,0.049178726971149445
1771073082933131300,9.16913134765625,-1.8819236755371094,0.20978736877441406,0.020578637719154358
1771073082943071500,9.179071533203125,-1.9905948638916016,0.3188207149505615,0.0387117862701416
1771073082953011700,9.18901171875,-2.0326056480407715,0.4016399383544922,0.06374968588352203
1771073082962952000,9.198951904296875,-1.9409594535827637,0.4904294013977051,0.09938762336969376
1771073082972892200,9.20889208984375,-1.6531119346618652,0.594243049621582,0.2071763426065445
1771073082982832600,9.21883251953125,-1.3406805992126465,0.7221212387084961,0.37619054317474365
1771073082992772900,9.22877294921875,-1.007791519165039,0.8643896579742432,0.6077523231506348
1771073083002713300,9.23871337890625,-0.7233638763427734,1.0316872596740723,0.8995158672332764
1771073083012653800,9.24865380859375,-0.43716907501220703,1.2003989219665527,1.212531566619873
1771073083022594300,9.25859423828125,-0.10167407989501953,1.3549089431762695,1.4630428552627563
1771073083032534800,9.26853466796875,0.30675315856933594,1.4626188278198242,1.6120235919952393
1771073083042475500,9.2784755859375,0.6351099014282227,1.516700267791748,1.7252262830734253
1771073083052416000,9.288416015625,0.8572235107421875,1.479726791381836,1.6772105693817139
1771073083062356700,9.298356689453126,0.9233665466308594,1.282543659210205,1.4067394733428955
1771073083072297500,9.30829736328125,0.6981449127197266,0.9798314571380615,0.9364771246910095
1771073083082238000,9.318238037109374,0.1916971206665039,0.7227566242218018,0.438631534576416
1771073083092178700,9.3281787109375,-0.060906410217285156,0.6221284866333008,0.07726407051086426
1771073083102119200,9.338119140625,0.1186981201171875,0.6241719722747803,-0.12143188714981079
1771073083112060000,9.348059814453125,0.4794321060180664,0.581770658493042,-0.1982842981815338
1771073083122000400,9.35800048828125,0.8925714492797852,0.4467611312866211,-0.13408774137496948
1771073083131941000,9.367941162109375,1.375274658203125,0.31261181831359863,0.026164531707763672
1771073083141881600,9.377881591796875,2.011672019958496,0.2654707431793213,0.06300953030586243
1771073083151821800,9.38782177734375,2.4632978439331055,0.33640289306640625,-0.17023628950119019
1771073083161762300,9.39776220703125,2.184145927429199,0.4272434711456299,-0.47922205924987793
1771073083171702800,9.407702880859375,1.0789871215820312,0.5409097671508789,-0.4497430920600891
1771073083181643300,9.417643310546875,-0.16598224639892578,0.7621605396270752,-0.16225826740264893
1771073083191583700,9.427583740234375,-0.680384635925293,1.0854759216308594,0.08983173966407776
1771073083201524200,9.437524169921875,-0.09085941314697266,1.4217236042022705,0.46532732248306274
1771073083211464700,9.447464599609376,1.2882375717163086,1.3152554035186768,0.7502720952033997
1771073083221405200,9.4574052734375,2.7945356369018555,0.8629090785980225,1.0245182514190674
1771073083231345700,9.467345703125,3.9774961471557617,0.2766566276550293,1.1110849380493164
1771073083241286100,9.4772861328125,4.788543701171875,-0.2730410099029541,0.8251399993896484
1771073083251226600,9.4872265625,5.099869728088379,-0.9082690477371216,0.274044394493103
1771073083261167000,9.4971669921875,4.5295305252075195,-1.5506923198699951,-0.3945479691028595
1771073083271107600,9.507107666015624,3.3491296768188477,-1.8742644786834717,-1.0152844190597534
1771073083281048000,9.517048095703124,1.9978828430175781,-1.821077585220337,-1.4689810276031494
1771073083290988500,9.526988525390625,0.6891489028930664,-1.5518556833267212,-1.679994821548462
1771073083300929000,9.536928955078125,-0.5865440368652344,-1.2508485317230225,-1.7810537815093994
1771073083310869500,9.546869384765625,-1.6765618324279785,-0.9872100353240967,-1.7577145099639893
1771073083320810000,9.55681005859375,-2.3686370849609375,-0.714435338973999,-1.53960382938385
1771073083330750500,9.56675048828125,-2.531435012817383,-0.4646773338317871,-1.1512434482574463
1771073083340691000,9.57669091796875,-2.0919880867004395,-0.3742952346801758,-0.6827512383460999
1771073083350631400,9.58663134765625,-1.3248615264892578,-0.45377659797668457,-0.20865637063980103
1771073083360572000,9.596572021484375,-0.7142677307128906,-0.5939297676086426,0.14259189367294312
1771073083370512400,9.606512451171875,-0.28993701934814453,-0.7063062191009521,0.32859641313552856
1771073083380452600,9.61645263671875,0.06616973876953125,-0.7922351360321045,0.46354082226753235
1771073083390393000,9.62639306640625,0.414703369140625,-0.8015642166137695,0.5848703384399414
1771073083400333600,9.63633349609375,0.6659765243530273,-0.947994589805603,0.4996997117996216
1771073083410274000,9.646274169921876,0.4656820297241211,-1.2284804582595825,0.3201831877231598
1771073083420214500,9.656214599609376,-0.3281850814819336,-1.4500998258590698,0.23714450001716614
1771073083430155000,9.666155029296876,-1.2901573181152344,-1.5405865907669067,0.1969468742609024
1771073083440095500,9.676095458984374,-1.9842524528503418,-1.4958144426345825,0.17799222469329834
1771073083450036000,9.686035888671874,-2.543962001800537,-1.3305658102035522,0.29297059774398804
1771073083459976400,9.6959765625,-2.935190200805664,-1.1100224256515503,0.38807496428489685
1771073083469917000,9.7059169921875,-3.0879788398742676,-0.9664785861968994,0.2957570552825928
1771073083479857400,9.715857421875,-2.888701915740967,-0.8793778419494629,0.11019474267959595
1771073083489798000,9.7257978515625,-2.275516986846924,-0.8599355220794678,-0.046774908900260925
1771073083499738400,9.73573828125,-1.3313264846801758,-0.9513427019119263,-0.06513723731040955
1771073083509678800,9.745678955078125,-0.5253477096557617,-1.0069928169250488,-0.00005014240741729736
1771073083519619300,9.755619384765625,-0.013150215148925781,-0.9276131391525269,0.05622190982103348
1771073083529559800,9.765559814453125,-0.022548675537109375,-0.6971073150634766,0.11252455413341522
1771073083539500300,9.775500244140625,-0.43314361572265625,-0.4225351810455322,0.1405094414949417
1771073083549440800,9.785440673828125,-0.8293523788452148,-0.25608253479003906,0.06380592286586761
1771073083559381200,9.79538134765625,-1.209578514099121,-0.13530945777893066,0.0661650151014328
1771073083569321700,9.80532177734375,-1.5147929191589355,0.0016913414001464844,0.0800013542175293
1771073083579262200,9.81526220703125,-1.6359200477600098,0.14492464065551758,0.09671612083911896
1771073083589202700,9.82520263671875,-1.5209999084472656,0.3377687931060791,0.17491686344146729
1771073083599143200,9.83514306640625,-1.3163118362426758,0.5157227516174316,0.22395756840705872
1771073083609083400,9.84508349609375,-0.9646539688110352,0.623692512512207,0.23345981538295746
1771073083619024000,9.85502392578125,-0.7742433547973633,0.6515941619873047,0.2813124656677246
1771073083628964400,9.86496435546875,-0.735356330871582,0.6123487949371338,0.3362358510494232
1771073083638904800,9.87490478515625,-0.6853551864624023,0.49466800689697266,0.20752695202827454
1771073083648845300,9.88484521484375,-0.45702552795410156,0.4227299690246582,0.034179896116256714
1771073083658785800,9.894785888671874,-0.0072689056396484375,0.46379756927490234,-0.07535550743341446
1771073083668726300,9.904726318359375,0.516139030456543,0.521477222442627,-0.1367049515247345
1771073083678666800,9.914666748046875,0.803196907043457,0.5599095821380615,-0.16894163191318512
1771073083688607200,9.924607177734375,0.8568935394287109,0.5861952304840088,-0.1694502979516983
1771073083698547700,9.934547607421875,0.7035427093505859,0.6166567802429199,-0.1784275472164154
1771073083708488200,9.94448828125,0.6844682693481445,0.6396133899688721,-0.1813650131225586
1771073083718428700,9.9544287109375,0.7989082336425781,0.6376433372497559,-0.07411988079547882
1771073083728369200,9.964369140625,0.9842119216918945,0.5543508529663086,0.07305289804935455
1771073083738309600,9.9743095703125,1.1779060363769531,0.3547844886779785,0.17878256738185883
1771073083748250000,9.98425,1.4110326766967773,0.1107778549194336,0.3016203045845032
1771073083758190600,9.994190673828125,1.791306495666504,-0.0856938362121582,0.4777758717536926
1771073083768131000,10.004131103515626,2.235231399536133,-0.22497129440307617,0.5107755661010742
1771073083778071600,10.014071533203126,2.894153594970703,-0.2972753047943115,0.279879629611969
1771073083788012000,10.024011962890626,3.2001028060913086,-0.2095341682434082,-0.022865772247314453
1771073083797952500,10.033952392578126,2.4855661392211914,-0.12576842308044434,-0.41765862703323364
1771073083807893000,10.04389306640625,1.4044418334960938,-0.09964799880981445,-0.5901089906692505
1771073083817833500,10.05383349609375,0.14686298370361328,-0.006025791168212891,-0.4719246029853821
1771073083827774000,10.06377392578125,-0.5749607086181641,0.30480194091796875,-0.08445122838020325
1771073083837714200,10.073714111328124,-0.6015768051147461,0.6658909320831299,0.39213234186172485
1771073083847654700,10.083654541015624,-0.2263336181640625,0.9799790382385254,0.8903898000717163
1771073083857595100,10.09359521484375,0.4741029739379883,1.0006992816925049,1.234707236289978
1771073083867535600,10.10353564453125,1.1706733703613281,0.6426942348480225,1.3544727563858032
1771073083877476000,10.11347607421875,1.5064544677734375,0.06242084503173828,1.2998228073120117
1771073083887416600,10.12341650390625,1.9035615921020508,-0.4749875068664551,1.0961273908615112
1771073083897357000,10.133357177734375,2.8454713821411133,-0.8552587032318115,0.8109198808670044
1771073083907297500,10.143297607421875,3.6856918334960938,-1.1860157251358032,0.44117605686187744
1771073083917238000,10.153238037109375,3.9650487899780273,-1.591707468032837,-0.024389520287513733
1771073083927178500,10.163178466796875,3.3298301696777344,-1.8339638710021973,-0.40347808599472046
1771073083937119000,10.173118896484375,1.9874095916748047,-1.819523811340332,-0.6599793434143066
1771073083947059500,10.1830595703125,0.5998773574829102,-1.6165900230407715,-0.7700561285018921
1771073083957000000,10.193,-0.6502695083618164,-1.3838542699813843,-0.8407456278800964
1771073083966940400,10.2029404296875,-1.8898406028747559,-1.0889365673065186,-0.6325536370277405
1771073083976881000,10.212880859375,-2.727809429168701,-0.8002371788024902,-0.07850796729326248
1771073083986821400,10.2228212890625,-2.668222427368164,-0.4411482810974121,0.6866292357444763
1771073083996761900,10.232761962890624,-1.830944538116455,-0.10536336898803711,1.3458505868911743
1771073084006702300,10.242702392578124,-0.7469892501831055,0.08845829963684082,1.7608513832092285
1771073084016642800,10.252642822265624,0.12363529205322266,0.07262539863586426,2.0159246921539307
1771073084026583300,10.262583251953124,0.6300630569458008,-0.1460893154144287,2.057018518447876
1771073084036523800,10.272523681640624,0.8819646835327148,-0.47168755531311035,1.8367832899093628
1771073084046464300,10.28246435546875,0.8740243911743164,-0.7959167957305908,1.4177073240280151
1771073084056404500,10.292404541015625,0.4785623550415039,-1.051499605178833,0.8091940879821777
1771073084066345000,10.302344970703125,-0.06924819946289062,-1.241131067276001,0.17653249204158783
1771073084076285400,10.312285400390625,-0.7667198181152344,-1.3333629369735718,-0.25091588497161865
1771073084086226000,10.322225830078125,-1.4827213287353516,-1.3142956495285034,-0.40217459201812744
1771073084096166400,10.33216650390625,-1.9552092552185059,-1.1414085626602173,-0.38333916664123535
1771073084116047400,10.35204736328125,-2.025679588317871,-0.441969633102417,-0.17234870791435242
1771073084125987800,10.36198779296875,-1.8065071105957031,-0.16030478477478027,0.057255491614341736
1771073084135928300,10.37192822265625,-1.6254029273986816,-0.04437422752380371,0.253939151763916
1771073084145868800,10.381868896484375,-1.7158546447753906,0.038507938385009766,0.4344711899757385
1771073084155809300,10.391809326171876,-2.072718620300293,0.15643811225891113,0.5454646944999695
1771073084165749800,10.401749755859376,-2.3952741622924805,0.30259108543395996,0.5693082809448242
1771073084175690200,10.411690185546876,-2.550722599029541,0.48186755180358887,0.5764539241790771
1771073084185630700,10.421630615234376,-2.4516921043395996,0.6458175182342529,0.6130844354629517
1771073084195571200,10.4315712890625,-2.1680822372436523,0.7350707054138184,0.722030758857727
1771073084205511700,10.44151171875,-1.807487964630127,0.7633461952209473,0.8824913501739502
1771073084215452200,10.4514521484375,-1.5488848686218262,0.768134355545044,1.0609079599380493
1771073084225392600,10.461392578125,-1.306009292602539,0.8115129470825195,1.262244462966919
1771073084235333000,10.4713330078125,-1.0263471603393555,0.8912055492401123,1.4452977180480957
1771073084245273600,10.481273681640625,-0.7625303268432617,0.9618453979492188,1.5341771841049194
1771073084255214000,10.491214111328125,-0.507298469543457,0.9493100643157959,1.5581525564193726
1771073084265154600,10.501154541015625,-0.21519851684570312,0.8966867923736572,1.5249223709106445
1771073084275095000,10.511094970703125,0.18320751190185547,0.8056480884552002,1.428970217704773
1771073084285035300,10.52103515625,0.5806703567504883,0.6962780952453613,1.285719394683838
1771073084294975700,10.530975830078125,0.9537668228149414,0.5695278644561768,1.107839822769165
1771073084304916200,10.540916259765625,1.2338247299194336,0.42844510078430176,0.8718171119689941
1771073084314856700,10.550856689453125,1.299692153930664,0.2789468765258789,0.574860155582428
1771073084324797200,10.560797119140625,1.0276622772216797,0.1430366039276123,0.1807537078857422
1771073084334737700,10.570737548828125,0.6115579605102539,0.0843355655670166,-0.19621291756629944
1771073084344678100,10.58067822265625,0.3758211135864258,0.08348488807678223,-0.5085958242416382
1771073084354618600,10.59061865234375,0.2694845199584961,0.002610445022583008,-0.7365837097167969
1771073084364559000,10.60055908203125,0.2874755859375,-0.09721684455871582,-0.8036159873008728
1771073084374499600,10.61049951171875,0.5203895568847656,-0.1842491626739502,-0.7156890034675598
1771073084384440000,10.620440185546874,1.0162668228149414,-0.2783927917480469,-0.5210410356521606
1771073084394380500,10.630380615234374,1.4197521209716797,-0.378204345703125,-0.5242161154747009
1771073084404321000,10.640321044921874,1.5625324249267578,-0.32584285736083984,-0.8965217471122742
1771073084414261500,10.650261474609374,1.2329578399658203,-0.06862378120422363,-1.3464536666870117
1771073084424202000,10.660201904296875,0.28337860107421875,0.20306873321533203,-1.4781923294067383
1771073084434142500,10.670142578125,-1.3494892120361328,0.3985426425933838,-1.2315220832824707
1771073084444083000,10.6800830078125,-2.9837026596069336,0.6174709796905518,-0.737117350101471
1771073084454023400,10.6900234375,-3.595454216003418,0.9431500434875488,-0.06782054901123047
1771073084463964000,10.6999638671875,-2.3506417274475098,1.1210556030273438,0.8278118968009949
1771073084473904400,10.709904296875,-0.21278667449951172,0.9882841110229492,1.529628872871399
1771073084483844900,10.719844970703125,1.9066944122314453,0.647545576095581,1.895825743675232
1771073084493785300,10.729785400390625,3.77616024017334,0.18311834335327148,1.8662885427474976
1771073084503725800,10.739725830078125,5.359489440917969,-0.4027261734008789,1.5284514427185059
1771073084513666000,10.749666015625,6.237200736999512,-1.0452635288238525,0.9819328784942627
1771073084523606500,10.7596064453125,6.331020355224609,-1.6100679636001587,0.3782341480255127
1771073084533547000,10.769547119140626,5.478009223937988,-2.013002395629883,-0.40203386545181274
1771073084543487500,10.779487548828126,3.910776138305664,-2.122800827026367,-1.0715782642364502
1771073084553428000,10.789427978515626,2.089567184448242,-1.8081023693084717,-1.3304450511932373
1771073084563368400,10.799368408203126,0.5449380874633789,-1.2534754276275635,-1.2214727401733398
1771073084573309000,10.809308837890624,-0.6139812469482422,-0.6649975776672363,-0.8987656831741333
1771073084583249400,10.81924951171875,-1.4618940353393555,-0.2766669988632202,-0.27718621492385864
1771073084593190000,10.82918994140625,-1.8414325714111328,-0.025098085403442383,0.5854978561401367
1771073084603130400,10.83913037109375,-1.6469793319702148,0.15111613273620605,1.3350695371627808
1771073084613070800,10.84907080078125,-1.0321578979492188,0.1268935203552246,1.5642049312591553
1771073084623011300,10.85901123046875,-0.2711601257324219,-0.15960216522216797,1.188215732574463
1771073084632951800,10.868951904296875,0.29111766815185547,-0.5719419717788696,0.5331992506980896
1771073084642892300,10.878892333984375,0.43659400939941406,-0.9053852558135986,0.12108421325683594
1771073084652832800,10.888832763671875,0.3433876037597656,-1.1051766872406006,-0.15643984079360962
1771073084662773200,10.898773193359375,0.23900127410888672,-1.253408670425415,-0.40146082639694214
1771073084672713700,10.908713623046875,0.08292484283447266,-1.3462579250335693,-0.5848960876464844
1771073084682654200,10.918654296875,-0.09359550476074219,-1.3631925582885742,-0.7134277820587158
1771073084692594700,10.9285947265625,-0.29752349853515625,-1.3268616199493408,-0.7330677509307861
1771073084702535200,10.93853515625,-0.5526618957519531,-1.2471840381622314,-0.7163558006286621
1771073084712475600,10.9484755859375,-0.8350667953491211,-1.057356834411621,-0.5904281735420227
1771073084722416000,10.958416015625,-1.1209659576416016,-0.8071269989013672,-0.3898724615573883
1771073084732356600,10.968356689453126,-1.2339134216308594,-0.538712739944458,-0.1482919156551361
1771073084742296800,10.978296875,-1.377608299255371,-0.2888343334197998,0.15600937604904175
1771073084752237300,10.9882373046875,-1.4830751419067383,-0.08156943321228027,0.4212881624698639
1771073084762177800,10.998177734375,-1.5317096710205078,0.05434584617614746,0.6173215508460999
1771073084772118300,11.0081181640625,-1.4834203720092773,0.10906600952148438,0.6920426487922668
1771073084782058800,11.018058837890624,-1.240370750427246,0.09447050094604492,0.6405524015426636
1771073084791999200,11.027999267578124,-0.9387016296386719,0.06877398490905762,0.5952951908111572
1771073084801939700,11.037939697265625,-0.6855564117431641,0.08011531829833984,0.648970365524292
1771073084811880200,11.047880126953125,-0.5234355926513672,0.12678909301757812,0.7108542323112488
1771073084821820700,11.057820556640625,-0.5737323760986328,0.21248626708984375,0.7749861478805542
1771073084831761200,11.06776123046875,-0.6997613906860352,0.2960059642791748,0.7968304753303528
1771073084841701600,11.07770166015625,-0.9134397506713867,0.39696168899536133,0.7698494791984558
1771073084851642000,11.08764208984375,-1.133479118347168,0.4536154270172119,0.6085464954376221
1771073084861582600,11.09758251953125,-1.3120641708374023,0.43949270248413086,0.38011184334754944
1771073084871523000,11.107523193359375,-1.4420280456542969,0.399524450302124,0.11976788938045502
1771073084881463600,11.117463623046875,-1.382345199584961,0.35892772674560547,-0.07968404144048691
1771073084891404000,11.127404052734375,-1.1951713562011719,0.3232557773590088,-0.15252646803855896
1771073084901344500,11.137344482421875,-1.0334968566894531,0.30155158042907715,-0.11303539574146271
1771073084911285000,11.147284912109376,-0.9714469909667969,0.3926117420196533,-0.02163841389119625
1771073084921225500,11.1572255859375,-1.0594615936279297,0.5317962169647217,-0.0013295859098434448
1771073084931166000,11.167166015625,-1.0686559677124023,0.6458611488342285,-0.10976370424032211
1771073084941106400,11.1771064453125,-1.0737314224243164,0.6722805500030518,-0.28894177079200745
1771073084951047000,11.187046875,-0.9386806488037109,0.6689820289611816,-0.45711830258369446
1771073084960987100,11.196987060546874,-0.6326236724853516,0.709359884262085,-0.4905504584312439
1771073084970927600,11.206927734375,-0.23932361602783203,0.7397394180297852,-0.49762850999832153
1771073084980868000,11.2168681640625,0.08109283447265625,0.762096643447876,-0.48972415924072266
1771073084990808600,11.22680859375,0.35729217529296875,0.7292253971099854,-0.3641451597213745
1771073085000749000,11.2367490234375,0.5505495071411133,0.5909812450408936,-0.10867226123809814
1771073085010689500,11.246689453125,0.7176418304443359,0.3145749568939209,0.19040381908416748
1771073085020630000,11.256630126953125,0.9177751541137695,-0.013825654983520508,0.5026510953903198
1771073085030570500,11.266570556640625,1.2491092681884766,-0.33779871463775635,0.6517206430435181
1771073085040511000,11.276510986328125,1.7244014739990234,-0.5759211778640747,0.748620331287384
1771073085050451500,11.286451416015625,2.249079704284668,-0.7127151489257812,0.734283447265625
1771073085060392000,11.296391845703125,2.8622798919677734,-0.6941111087799072,0.37892264127731323
1771073085070332400,11.30633251953125,3.137481689453125,-0.5124746561050415,-0.31826481223106384
1771073085080273000,11.31627294921875,2.668156623840332,-0.2943013906478882,-0.7478707432746887
1771073085090213400,11.32621337890625,1.4940509796142578,-0.08938455581665039,-0.7507947683334351
1771073085100153900,11.33615380859375,-0.031226158142089844,0.19001483917236328,-0.46387621760368347
1771073085110094300,11.34609423828125,-1.4940166473388672,0.6231215000152588,0.22378511726856232
1771073085120034800,11.356034912109376,-2.527738094329834,1.1594815254211426,0.880664587020874
1771073085129975300,11.365975341796876,-2.6036229133605957,1.550278902053833,1.5688660144805908
1771073085139915800,11.375915771484374,-1.4236536026000977,1.32906174659729,2.0755786895751953
1771073085149856300,11.385856201171874,0.24454879760742188,0.5741920471191406,2.3158364295959473
1771073085159796700,11.395796630859374,1.9753828048706055,-0.07455527782440186,2.4153976440429688
1771073085169737200,11.4057373046875,4.211742401123047,-0.7888975143432617,2.004631996154785
1771073085179677700,11.415677734375,6.253462791442871,-1.6539990901947021,1.227719783782959
1771073085189618000,11.425617919921875,7.202404975891113,-2.4342801570892334,0.36600080132484436
1771073085199558400,11.435558349609375,6.715405464172363,-3.093134641647339,-0.5187464356422424
1771073085209499000,11.445498779296875,4.927554130554199,-3.433772087097168,-1.3192647695541382
1771073085219439400,11.455439453125,2.532036781311035,-3.220353603363037,-1.6530570983886719
1771073085229379800,11.4653798828125,0.22889137268066406,-2.6151716709136963,-1.6968541145324707
1771073085239320300,11.4753203125,-1.5639572143554688,-1.9090745449066162,-1.5998443365097046
1771073085249260800,11.4852607421875,-3.041599750518799,-1.2617597579956055,-1.0949866771697998
1771073085259201300,11.495201171875,-3.7873878479003906,-0.5973260402679443,-0.22995734214782715
1771073085269141800,11.505141845703125,-3.6450161933898926,0.05260777473449707,0.8492469787597656
1771073085279082200,11.515082275390625,-2.7295780181884766,0.6588358879089355,1.9370877742767334
1771073085289022700,11.525022705078126,-1.3719902038574219,1.0603997707366943,2.715859889984131
1771073085298963200,11.534963134765626,-0.24321269989013672,1.2271668910980225,3.1189870834350586
1771073085308903700,11.544903564453126,0.2166728973388672,1.0626637935638428,3.4013562202453613
1771073085318844200,11.55484423828125,0.012408256530761719,0.6556987762451172,3.32892107963562
1771073085328784600,11.56478466796875,-0.3405027389526367,0.15478897094726562,2.599607229232788
1771073085338725000,11.57472509765625,-0.5427780151367188,-0.2442392110824585,1.6368892192840576
1771073085348665600,11.58466552734375,-0.6468544006347656,-0.6076514720916748,0.8223713636398315
1771073085358606000,11.594606201171874,-0.5161733627319336,-1.0224719047546387,0.11271434277296066
1771073085368546600,11.604546630859375,-0.44440174102783203,-1.4254801273345947,-0.3905467391014099
1771073085378487000,11.614487060546875,-0.3163442611694336,-1.7003538608551025,-0.7143829464912415
1771073085388427500,11.624427490234375,-0.17950439453125,-1.7764848470687866,-0.8651138544082642
1771073085398368000,11.634367919921875,-0.12217903137207031,-1.6744890213012695,-0.7814320921897888
1771073085408308500,11.64430859375,-0.10131072998046875,-1.4607750177383423,-0.5455930233001709
1771073085418248700,11.654248779296875,-0.1883678436279297,-1.1879725456237793,-0.18993276357650757
1771073085428189200,11.664189208984375,-0.42142486572265625,-0.8431903123855591,0.20752447843551636
1771073085438129700,11.674129638671875,-0.805119514465332,-0.5037535429000854,0.47301825881004333
1771073085448070100,11.684070068359375,-1.248906135559082,-0.22619307041168213,0.5585277676582336
1771073085458010600,11.6940107421875,-1.5717058181762695,-0.0124586820602417,0.6370448470115662
1771073085467951000,11.703951171875,-1.8649168014526367,0.12459015846252441,0.6425689458847046
1771073085477891600,11.7138916015625,-2.277252674102783,0.2612152099609375,0.6854152679443359
1771073085487832000,11.72383203125,-2.627840995788574,0.41013216972351074,0.7360332608222961
1771073085497772500,11.7337724609375,-2.685941219329834,0.5592653751373291,0.6985138058662415
1771073085507713000,11.743713134765626,-2.3902344703674316,0.6555607318878174,0.6316993832588196
1771073085517653500,11.753653564453124,-1.838829517364502,0.7056832313537598,0.6250481009483337
1771073085527594000,11.763593994140624,-1.286849021911621,0.7105510234832764,0.7099084258079529
1771073085537534500,11.773534423828124,-0.9315986633300781,0.712568998336792,0.820288896560669
1771073085547475000,11.783474853515624,-0.7840127944946289,0.7057056427001953,0.8810211420059204
1771073085557415400,11.79341552734375,-0.9294929504394531,0.7121174335479736,1.0054293870925903
1771073085567356000,11.80335595703125,-1.2918148040771484,0.7075002193450928,1.1158080101013184
1771073085577296400,11.81329638671875,-1.5875625610351562,0.6927406787872314,1.0447481870651245
1771073085587236900,11.82323681640625,-1.6651153564453125,0.6746039390563965,0.8828293681144714
1771073085597177300,11.83317724609375,-1.5421881675720215,0.6503603458404541,0.7688742280006409
1771073085607117800,11.843117919921875,-1.3052978515625,0.5870361328125,0.6476106643676758
1771073085617058300,11.853058349609375,-0.9184913635253906,0.5662732124328613,0.501671552658081
1771073085626998800,11.862998779296875,-0.33597660064697266,0.5695850849151611,0.3438614308834076
1771073085636939300,11.872939208984375,0.26377010345458984,0.5652115345001221,0.12926042079925537
1771073085646879500,11.88287939453125,0.759735107421875,0.5271996259689331,-0.041136324405670166
1771073085656820000,11.892820068359375,1.1692705154418945,0.5099787712097168,-0.08450889587402344
1771073085666760400,11.902760498046876,1.528517723083496,0.44281041622161865,-0.09421342611312866
1771073085676701000,11.912700927734376,2.0217466354370117,0.37005698680877686,-0.05057328939437866
1771073085686641400,11.922641357421876,2.5296106338500977,0.27863645553588867,0.05380252003669739
1771073085696582000,11.932581787109376,2.9762706756591797,0.18556535243988037,0.1434294581413269
1771073085706522400,11.9425224609375,3.4341087341308594,0.1155853271484375,0.08334782719612122
1771073085716462800,11.952462890625,3.7816877365112305,0.1832066774368286,-0.14721980690956116
1771073085726403300,11.9624033203125,3.434157371520996,0.5042784214019775,-0.13502079248428345
1771073085736343800,11.97234375,2.002467155456543,0.9657413959503174,0.26113250851631165
1771073085746284300,11.9822841796875,0.7859630584716797,1.3218094110488892,0.6746351718902588
1771073085756224800,11.992224853515625,0.02076435089111328,1.4810086488723755,1.0298004150390625
1771073085766165200,12.002165283203125,-0.01853466033935547,1.4919373989105225,1.1429164409637451
1771073085776105700,12.012105712890625,0.6069669723510742,1.310510277748108,1.0785582065582275
1771073085786046200,12.022046142578125,1.5317268371582031,0.7425720691680908,0.8580005168914795
1771073085795986700,12.031986572265625,2.207456588745117,0.006048440933227539,0.6756283044815063
1771073085815867600,12.05186767578125,3.5483503341674805,-1.0108094215393066,-0.22947081923484802
1771073085825808100,12.06180810546875,3.7864856719970703,-1.4707990884780884,-0.68760085105896
1771073085835748600,12.07174853515625,3.5673789978027344,-1.926605224609375,-1.1022067070007324
1771073085845689000,12.081689208984375,2.6558313369750977,-2.1609692573547363,-1.3586734533309937
1771073085855629600,12.091629638671876,1.3585224151611328,-1.9644924402236938,-1.4418476819992065
1771073085865569800,12.10156982421875,0.1480121612548828,-1.553408145904541,-1.5099854469299316
1771073085875510300,12.11151025390625,-0.9582967758178711,-1.1192042827606201,-1.496919870376587
1771073085885450800,12.12145068359375,-1.9267244338989258,-0.7833620309829712,-1.380122423171997
1771073085895391200,12.13139111328125,-2.360532283782959,-0.4107058048248291,-1.053458333015442
1771073085905331700,12.141331787109374,-2.2116775512695312,-0.07982039451599121,-0.5913076400756836
1771073085915272200,12.151272216796874,-1.6748428344726562,0.07050704956054688,-0.056898266077041626
1771073085925212700,12.161212646484374,-1.017435073852539,0.06588864326477051,0.4009343385696411
1771073085935153200,12.171153076171874,-0.5422163009643555,-0.06771111488342285,0.6219725608825684
1771073085945093600,12.18109375,-0.29831409454345703,-0.2297971248626709,0.6254924535751343
1771073085955034000,12.1910341796875,-0.19658660888671875,-0.3592921495437622,0.5405436754226685
1771073085964974600,12.200974609375,-0.15546131134033203,-0.49474143981933594,0.29737046360969543
1771073085974915000,12.2109150390625,-0.06719112396240234,-0.6725959777832031,-0.025298751890659332
1771073085984855600,12.22085546875,0.04444694519042969,-0.8651195764541626,-0.28380757570266724
1771073085994796000,12.230796142578125,0.17729473114013672,-1.0019456148147583,-0.422793447971344
1771073086004736500,12.240736572265625,0.3220529556274414,-1.1108927726745605,-0.5658431053161621
1771073086014677000,12.250677001953125,0.4576568603515625,-1.2013137340545654,-0.699511706829071
1771073086024617500,12.260617431640625,0.42931652069091797,-1.2345770597457886,-0.7753780484199524
1771073086034558000,12.270557861328125,0.23766517639160156,-1.257224202156067,-0.8865047097206116
1771073086044498400,12.28049853515625,-0.11681652069091797,-1.322148084640503,-0.9880709052085876
1771073086054439000,12.29043896484375,-0.5335063934326172,-1.2903457880020142,-0.935234546661377
1771073086064379400,12.30037939453125,-0.9077548980712891,-1.1809325218200684,-0.7873844504356384
1771073086074320000,12.31031982421875,-1.1710500717163086,-1.0605303049087524,-0.6981744170188904
1771073086084260400,12.32026025390625,-1.3241748809814453,-0.9603865146636963,-0.6790559887886047
1771073086094200600,12.33020068359375,-1.238570213317871,-0.8656257390975952,-0.6320610046386719
1771073086104141000,12.34014111328125,-0.9524755477905273,-0.7166519165039062,-0.3565129041671753
1771073086114081500,12.35008154296875,-0.7546195983886719,-0.5477192401885986,-0.0799359530210495
1771073086124022000,12.36002197265625,-0.7255182266235352,-0.37020623683929443,0.1084333211183548
1771073086133962500,12.36996240234375,-0.8766021728515625,-0.16041302680969238,0.23061946034431458
1771073086143903000,12.379903076171875,-1.1337051391601562,0.03525495529174805,0.34960341453552246
1771073086153843500,12.389843505859375,-1.3968381881713867,0.18106627464294434,0.48948153853416443
1771073086163784000,12.399783935546875,-1.5020017623901367,0.31859445571899414,0.6132116317749023
1771073086173724400,12.409724365234375,-1.4263372421264648,0.45982885360717773,0.6509628295898438
1771073086183665000,12.419664794921875,-1.227646827697754,0.49976253509521484,0.5782208442687988
1771073086193605400,12.42960546875,-1.0445613861083984,0.4092540740966797,0.5081088542938232
1771073086203545900,12.4395458984375,-0.9508600234985352,0.3047208786010742,0.5031646490097046
1771073086213486000,12.449486083984375,-0.89373779296875,0.200303316116333,0.4320394992828369
1771073086223426600,12.459426513671875,-0.9255504608154297,0.14334702491760254,0.3668762445449829
1771073086233367000,12.469366943359375,-1.0390806198120117,0.1510317325592041,0.3475617468357086
1771073086243307500,12.4793076171875,-1.0576753616333008,0.22179102897644043,0.3838133215904236
1771073086253247700,12.489247802734376,-1.0508146286010742,0.30281615257263184,0.4307851195335388
1771073086263188200,12.499188232421876,-0.9969692230224609,0.3674013614654541,0.3687327802181244
1771073086273128700,12.509128662109376,-0.9772434234619141,0.4004538059234619,0.21852931380271912
1771073086283069200,12.519069091796876,-0.9794111251831055,0.3846285343170166,0.08520258963108063
1771073086293009400,12.529009521484374,-0.8910331726074219,0.34351396560668945,-0.008608903735876083
1771073086302950000,12.538949951171874,-0.6260643005371094,0.2929689884185791,-0.0000984296202659607
1771073086312890400,12.548890380859374,-0.31125450134277344,0.2059175968170166,0.18644611537456512
1771073086322830800,12.558830810546874,-0.12359428405761719,0.10927104949951172,0.4605603814125061
1771073086332771000,12.56877099609375,-0.0036783218383789062,0.04836606979370117,0.7394508123397827
