time,seconds_elapsed,z,y,x
1771073073877332200,0.113332275390625,0.18469008803367615,-0.13662005960941315,0.3123885691165924
1771073073887277800,0.12327783203125,0.19853851199150085,-0.07909582555294037,0.2793653905391693
1771073073897224000,0.133223876953125,0.21877852082252502,0.06578002870082855,0.24847275018692017
1771073073907170600,0.143170654296875,0.21771325170993805,0.1957421898841858,0.2047969400882721
1771073073917117000,0.153116943359375,0.18469008803367615,0.2671148478984833,0.13555480539798737
1771073073927057700,0.1630576171875,0.13675321638584137,0.2756369709968567,0.019441060721874237
1771073073936998100,0.172998046875,0.08775109052658081,0.19893798232078552,-0.11265163123607635
1771073073946938600,0.182938720703125,0.04833633825182915,0.09773793816566467,-0.2095906287431717
1771073073956879000,0.192879150390625,0.04194475710391998,-0.05459476262331009,-0.25859275460243225
1771073073966819600,0.202819580078125,0.0834900364279747,-0.15153375267982483,-0.2841590642929077
1771073073976760000,0.212760009765625,0.1495363861322403,-0.17283903062343597,-0.3033338189125061
1771073073986700500,0.222700439453125,0.20812588930130005,-0.18455693125724792,-0.3129211962223053
1771073073996641000,0.23264111328125,0.2528669536113739,-0.22929799556732178,-0.28628960251808167
1771073074006581500,0.24258154296875,0.285890132188797,-0.293213814496994,-0.2234390527009964
1771073074016522000,0.25252197265625,0.3093259334564209,-0.3230412006378174,-0.1435442715883255
1771073074026462500,0.26246240234375,0.3199785649776459,-0.32943278551101685,-0.07110634446144104
1771073074036403000,0.27240283203125,0.29334697127342224,-0.31878015398979187,-0.002929474925622344
1771073074046343400,0.282343505859375,0.24434484541416168,-0.2655169665813446,0.060986343771219254
1771073074056284000,0.292283935546875,0.18149429559707642,-0.21225377917289734,0.09933583438396454
1771073074066224400,0.302224365234375,0.1452753245830536,-0.16431692242622375,0.13235901296138763
1771073074076164900,0.312164794921875,0.12077426165342331,-0.11211899667978287,0.18029586970806122
1771073074086105300,0.322105224609375,0.10799109935760498,-0.06205160543322563,0.23355905711650848
1771073074096045800,0.3320458984375,0.11012163013219833,-0.029028434306383133,0.28256118297576904
1771073074105986300,0.341986328125,0.1399490088224411,0.03275685757398605,0.3081275224685669
1771073074115926800,0.3519267578125,0.18788588047027588,0.12117373943328857,0.30599698424339294
1771073074125867000,0.361866943359375,0.2102564126253128,0.19680745899677277,0.2942790687084198
1771073074135807500,0.371807373046875,0.20173430442810059,0.23409168422222137,0.2697780132293701
1771073074145748000,0.381748046875,0.1687111258506775,0.1957421898841858,0.20799273252487183
1771073074155688400,0.3916884765625,0.14847111701965332,0.14993585646152496,0.14620743691921234
1771073074165629000,0.40162890625,0.15273217856884003,0.18295903503894806,0.11105373501777649
1771073074175569400,0.4115693359375,0.18149429559707642,0.27776750922203064,0.06524740159511566
1771073074185510000,0.421510009765625,0.22090904414653778,0.3928159773349762,0.0141147430986166
1771073074195450400,0.431450439453125,0.2624543309211731,0.4737760126590729,-0.024234747514128685
1771073074205390800,0.441390869140625,0.2954775094985962,0.5270391702651978,-0.05725792050361633
1771073074215331300,0.451331298828125,0.31571751832962036,0.5771065950393677,-0.09347688406705856
1771073074225271800,0.461271728515625,0.3412838280200958,0.6431529521942139,-0.1243695318698883
1771073074235212300,0.47121240234375,0.36152383685112,0.7006771564483643,-0.1531316488981247
1771073074245152800,0.48115283203125,0.34447962045669556,0.72304767370224,-0.1861548274755478
1771073074255093200,0.49109326171875,0.28375959396362305,0.693220317363739,-0.1861548274755478
1771073074265033700,0.50103369140625,0.21664799749851227,0.5952160358428955,-0.148870587348938
1771073074274974200,0.51097412109375,0.1495363861322403,0.4066644012928009,-0.11691268533468246
1771073074284914700,0.520914794921875,0.08881635963916779,0.20746009051799774,-0.09773793816566467
1771073074294855200,0.530855224609375,0.045140545815229416,0.027430538088083267,-0.0913463607430458
1771073074304795600,0.540795654296875,0.0035952648613601923,-0.1249021589756012,-0.09241162240505219
1771073074314736000,0.550736083984375,-0.01664474420249462,-0.20799273252487183,-0.09560741484165192
1771073074324676600,0.560676513671875,0.014247900806367397,-0.2516685426235199,-0.10626004636287689
1771073074334617000,0.5706171875,0.07283740490674973,-0.2751043438911438,-0.11797794699668884
1771073074344557600,0.5805576171875,0.1687111258506775,-0.18668745458126068,-0.08069372177124023
1771073074354497800,0.590497802734375,0.25606274604797363,-0.1153147891163826,-0.019973693415522575
1771073074364438300,0.600438232421875,0.2656501233577728,-0.2665822207927704,0.00985368900001049
1771073074374378800,0.610378662109375,0.3050648868083954,-0.47537389397621155,0.02583264373242855
1771073074384319200,0.6203193359375,0.39135122299194336,-0.6468813419342041,0.048203181475400925
1771073074394259700,0.630259765625,0.4595280885696411,-0.7800393104553223,0.0684431865811348
1771073074404200200,0.6402001953125,0.45313653349876404,-0.8439550995826721,0.09614004194736481
1771073074414140700,0.650140625,0.3892207145690918,-0.8173235058784485,0.1291632205247879
1771073074424081200,0.6600810546875,0.275237500667572,-0.6948181986808777,0.15046848356723785
1771073074434021600,0.670021728515625,0.10373004525899887,-0.4199801981449127,0.20799273252487183
1771073074443962000,0.679962158203125,-0.01664474420249462,-0.13662005960941315,0.2569948434829712
1771073074453902600,0.689902587890625,-0.05819002538919449,0.035952646285295486,0.24527695775032043
1771073074463843000,0.699843017578125,-0.04966791719198227,0.0636495053768158,0.17283903062343597
1771073074473783600,0.709783447265625,-0.03688475489616394,0.015712639316916466,0.05779055133461952
1771073074483724000,0.71972412109375,-0.035819489508867264,-0.010918952524662018,-0.05086633935570717
1771073074493664500,0.72966455078125,-0.039015281945466995,-0.011984216049313545,-0.11158636957406998
1771073074503605000,0.73960498046875,-0.035819489508867264,-0.03328948840498924,-0.12117373943328857
1771073074513545500,0.74954541015625,-0.02516685426235199,-0.08974846452474594,-0.0870852991938591
1771073074523486000,0.75948583984375,-0.0017310534603893757,-0.15579481422901154,-0.023169483989477158
1771073074533426400,0.769426513671875,0.0270310640335083,-0.21758009493350983,0.04394212365150452
1771073074543367000,0.779366943359375,0.05153212696313858,-0.2527337968349457,0.10998847335577011
1771073074553307400,0.789307373046875,0.06325002759695053,-0.23036326467990875,0.1621863842010498
1771073074563247900,0.799247802734375,0.05579318478703499,-0.16431692242622375,0.1898832470178604
1771073074573188400,0.809188232421875,0.03129211813211441,-0.09720530360937119,0.171773761510849
1771073074583128800,0.81912890625,-0.0006657897611148655,-0.04394212365150452,0.1249021589756012
1771073074593069300,0.8290693359375,-0.027297381311655045,0.012516847811639309,0.07696529477834702
1771073074612950500,0.848950439453125,-0.031558435410261154,0.12330426275730133,0.03968106955289841
1771073074622891000,0.85889111328125,-0.015579480677843094,0.13182637095451355,0.04287686198949814
1771073074632831500,0.86883154296875,0.011052110232412815,0.12650005519390106,0.056725289672613144
1771073074642772000,0.87877197265625,0.04301001876592636,0.1243695318698883,0.07803056389093399
1771073074652712400,0.88871240234375,0.07177213579416275,0.1243695318698883,0.10359688848257065
1771073074662653200,0.898653076171875,0.08881635963916779,0.10412952303886414,0.13555480539798737
1771073074672593700,0.90859375,0.09627319872379303,0.07217161357402802,0.171773761510849
1771073074682534100,0.9185341796875,0.10053425282239914,0.03808317333459854,0.18881797790527344
1771073074692474600,0.928474609375,0.11757847666740417,0.018908429890871048,0.1952095627784729
1771073074702415000,0.9384150390625,0.1399490088224411,0.025300011038780212,0.19414429366588593
1771073074712355600,0.94835546875,0.15592797100543976,0.035952646285295486,0.17390428483486176
1771073074722296000,0.958296142578125,0.17190691828727722,0.03808317333459854,0.14514216780662537
1771073074732236800,0.96823681640625,0.19853851199150085,0.06578002870082855,0.11638005077838898
1771073074742177300,0.97817724609375,0.23582273721694946,0.11371689289808273,0.08868319541215897
1771073074752117800,0.98811767578125,0.2677806615829468,0.15100112557411194,0.06524740159511566
1771073074762058200,0.998058349609375,0.28269433975219727,0.1669800728559494,0.04287686198949814
1771073074771998700,1.007998779296875,0.27949854731559753,0.1765674501657486,0.03755054250359535
1771073074781939200,1.017939208984375,0.2528669536113739,0.18828535079956055,0.052464235574007034
1771073074791880000,1.0278798828125,0.20706062018871307,0.22450430691242218,0.08761793375015259
1771073074801820400,1.0378203125,0.14634059369564056,0.2756369709968567,0.13662005960941315
1771073074811761000,1.047760986328125,0.08029424399137497,0.2884201407432556,0.1898832470178604
1771073074821701400,1.057701416015625,0.01850895583629608,0.25859275460243225,0.2239716798067093
1771073074831641900,1.067641845703125,-0.03795001655817032,0.17976324260234833,0.22184115648269653
1771073074841582300,1.077582275390625,-0.0858868807554245,0.07004108279943466,0.1856221854686737
1771073074851522800,1.087522705078125,-0.12530162930488586,-0.04287686198949814,0.12809795141220093
1771073074861463600,1.097463623046875,-0.1615206003189087,-0.14620743691921234,0.05779055133461952
1771073074871404000,1.107404052734375,-0.1945437788963318,-0.23995064198970795,-0.009321057237684727
1771073074881344500,1.117344482421875,-0.2275669425725937,-0.31451907753944397,-0.05193160101771355
1771073074891285000,1.127284912109375,-0.25845959782600403,-0.349672794342041,-0.05938844755291939
1771073074901226000,1.13722607421875,-0.279764860868454,-0.3326285779476166,-0.028495801612734795
1771073074911165700,1.147165771484375,-0.2648511826992035,-0.24634221196174622,0.03861580789089203
1771073074921106000,1.15710595703125,-0.21052272617816925,-0.1153147891163826,0.0918789878487587
1771073074931046000,1.1670458984375,-0.14873743057250977,-0.03968106955289841,0.09933583438396454
1771073074940986000,1.176986083984375,-0.11571425944566727,-0.06418213248252869,0.05992107838392258
1771073074950926000,1.186926025390625,-0.13382373750209808,-0.1994706094264984,-0.04554001986980438
1771073074960866300,1.1968662109375,-0.22330589592456818,-0.3976096510887146,-0.20532956719398499
1771073074970806500,1.206806640625,-0.3767038583755493,-0.5190497040748596,-0.3587275445461273
1771073074980747000,1.2167470703125,-0.5460807681083679,-0.4913528561592102,-0.4641886353492737
1771073074990687200,1.226687255859375,-0.6866955757141113,-0.39015281200408936,-0.5206475853919983
1771073075000627700,1.236627685546875,-0.7783082723617554,-0.2996053993701935,-0.5366265773773193
1771073075010568200,1.246568115234375,-0.821984052658081,-0.20586219429969788,-0.5004075765609741
1771073075020508700,1.2565087890625,-0.7964177131652832,-0.0684431865811348,-0.41518649458885193
1771073075030449400,1.266449462890625,-0.7048050761222839,0.07856319099664688,-0.2905506491661072
1771073075040390000,1.276389892578125,-0.57058185338974,0.21491694450378418,-0.12756532430648804
1771073075050330600,1.28633056640625,-0.41292282938957214,0.3320959508419037,0.048203181475400925
1771073075060271400,1.296271240234375,-0.25739431381225586,0.37683701515197754,0.20586219429969788
1771073075070212000,1.306212158203125,-0.11038794368505478,0.33955278992652893,0.3273022472858429
1771073075080152800,1.31615283203125,0.01957421936094761,0.23515695333480835,0.40932756662368774
1771073075090093600,1.326093505859375,0.09840372949838638,0.0870852991938591,0.44128546118736267
1771073075100034600,1.33603466796875,0.11438268423080444,-0.08335687965154648,0.42317599058151245
1771073075109975300,1.345975341796875,0.08029424399137497,-0.27297380566596985,0.35393384099006653
1771073075119916000,1.355916015625,0.001464737462811172,-0.46046021580696106,0.2516685426235199
1771073075129856500,1.3658564453125,-0.1093226820230484,-0.5808349847793579,0.1387505829334259
1771073075139797000,1.375796875,-0.24035011231899261,-0.5978792309761047,0.048203181475400925
1771073075149737500,1.385737548828125,-0.37563860416412354,-0.5201149582862854,-0.0018642114009708166
1771073075159678000,1.395677978515625,-0.4960133731365204,-0.37097805738449097,-0.01784316636621952
1771073075169618400,1.405618408203125,-0.5854955315589905,-0.19414429366588593,-0.009321057237684727
1771073075179559000,1.415558837890625,-0.624910295009613,-0.0002663159102667123,0.008788425475358963
1771073075189499400,1.42549951171875,-0.6121271252632141,0.19893798232078552,0.04607265070080757
1771073075199440000,1.43543994140625,-0.5556681752204895,0.36298859119415283,0.09400951862335205
1771073075209380400,1.44538037109375,-0.4704470634460449,0.450340211391449,0.13129374384880066
1771073075219320600,1.455320556640625,-0.3862912356853485,0.4588623046875,0.14407691359519958
1771073075229261000,1.465260986328125,-0.30959224700927734,0.439687579870224,0.14407691359519958
1771073075239201500,1.475201416015625,-0.24780695140361786,0.4215780794620514,0.14407691359519958
1771073075249142000,1.48514208984375,-0.2083922028541565,0.3874896466732025,0.14620743691921234
1771073075259082500,1.49508251953125,-0.19667430222034454,0.31931278109550476,0.14727269113063812
1771073075269023000,1.50502294921875,-0.20093534886837006,0.23089589178562164,0.14514216780662537
1771073075278963500,1.51496337890625,-0.20519641041755676,0.16058848798274994,0.15472954511642456
1771073075288904000,1.524904052734375,-0.21052272617816925,0.10306425392627716,0.16964323818683624
1771073075298844400,1.534844482421875,-0.21584904193878174,0.048735812306404114,0.17923060059547424
1771073075308785000,1.544784912109375,-0.22011010348796844,0.00612526573240757,0.1856221854686737
1771073075318725400,1.554725341796875,-0.2275669425725937,-0.02263685315847397,0.1771000772714615
1771073075328665900,1.564665771484375,-0.23076273500919342,-0.05139897018671036,0.15579481422901154
1771073075338606300,1.5746064453125,-0.2275669425725937,-0.06631266325712204,0.13129374384880066
1771073075348546800,1.584546875,-0.22011010348796844,-0.06631266325712204,0.11105373501777649
1771073075358487300,1.5944873046875,-0.2083922028541565,-0.05459476262331009,0.08868319541215897
1771073075368427800,1.604427734375,-0.1934785097837448,-0.052464235574007034,0.05779055133461952
1771073075378368300,1.6143681640625,-0.1806953400373459,-0.07057371735572815,0.015180006623268127
1771073075388308700,1.624308837890625,-0.17110797762870789,-0.0918789878487587,-0.030626330524683
1771073075398249200,1.634249267578125,-0.16471639275550842,-0.105727419257164,-0.08175898343324661
1771073075408189700,1.644189697265625,-0.1615206003189087,-0.09720530360937119,-0.13076111674308777
1771073075418130200,1.654130126953125,-0.1615206003189087,-0.06311687082052231,-0.16378428041934967
1771073075428070700,1.664070556640625,-0.1615206003189087,0.011451584286987782,-0.16911059617996216
1771073075438011100,1.67401123046875,-0.14873743057250977,0.12223900109529495,-0.1339569091796875
1771073075447951400,1.683951416015625,-0.11784479022026062,0.2798980176448822,-0.07004108279943466
1771073075457891800,1.693891845703125,-0.06564687192440033,0.43649178743362427,-0.008255792781710625
1771073075467832300,1.703832275390625,0.0035952648613601923,0.5334307551383972,0.01837579719722271
1771073075477772800,1.713772705078125,0.08881635963916779,0.5494097471237183,0.00985368900001049
1771073075487713300,1.72371337890625,0.18042902648448944,0.5014728307723999,-0.015712639316916466
1771073075497653800,1.73365380859375,0.25606274604797363,0.4343612492084503,-0.048735812306404114
1771073075507594200,1.74359423828125,0.3103911876678467,0.3544664680957794,-0.07962846010923386
1771073075517534700,1.75353466796875,0.3434143662452698,0.25433170795440674,-0.0913463607430458
1771073075527475200,1.76347509765625,0.35832804441452026,0.16058848798274994,-0.07643266767263412
1771073075537415700,1.773415771484375,0.3806985914707184,0.12650005519390106,-0.027430538088083267
1771073075547356200,1.783356201171875,0.4318312406539917,0.19893798232078552,0.05992107838392258
1771073075557296600,1.793296630859375,0.5053344368934631,0.34807488322257996,0.15899059176445007
1771073075567237000,1.803237060546875,0.5894902944564819,0.46205809712409973,0.21651484072208405
1771073075577177600,1.813177490234375,0.6693850159645081,0.45140546560287476,0.18455693125724792
1771073075587118000,1.8231181640625,0.6928208470344543,0.23835274577140808,0.027963170781731606
1771073075597058600,1.83305859375,0.6331660747528076,-0.15899059176445007,-0.21598219871520996
1771073075606999000,1.8429990234375,0.5106607675552368,-0.5701823830604553,-0.448209673166275
1771073075616939500,1.852939453125,0.34874069690704346,-0.8301066756248474,-0.5760413408279419
1771073075626880000,1.8628798828125,0.17403744161128998,-0.9291762113571167,-0.5568665862083435
1771073075636820500,1.872820556640625,0.030226856470108032,-0.8993488550186157,-0.3779022693634033
1771073075646761000,1.882760986328125,-0.028362644836306572,-0.6980140209197998,-0.08388951420783997
1771073075656701400,1.892701416015625,0.0270310640335083,-0.3890875577926636,0.25060325860977173
1771073075666642000,1.902641845703125,0.1676458716392517,-0.048203181475400925,0.559529721736908
1771073075676582100,1.91258203125,0.36365437507629395,0.2277000993490219,0.7917572259902954
1771073075686522600,1.922522705078125,0.5649892091751099,0.3842938542366028,0.9057404398918152
1771073075696463000,1.932463134765625,0.7290397882461548,0.42370861768722534,0.9057404398918152
1771073075706403600,1.942403564453125,0.8398272395133972,0.35340121388435364,0.8013445734977722
1771073075716344000,1.952343994140625,0.8813725113868713,0.20106850564479828,0.6191844940185547
1771073075726284500,1.962284423828125,0.849414587020874,0.03275685757398605,0.41358861327171326
1771073075736225000,1.97222509765625,0.7546061277389526,-0.11957584321498871,0.23355905711650848
1771073075746165500,1.98216552734375,0.6182523965835571,-0.2324937880039215,0.10785794258117676
1771073075756106000,1.99210595703125,0.45207124948501587,-0.29640960693359375,0.03968106955289841
1771073075766046500,2.00204638671875,0.285890132188797,-0.2942790687084198,0.016245270147919655
1771073075775987000,2.011987060546875,0.15699322521686554,-0.2474074810743332,0.019441060721874237
1771073075785927400,2.021927490234375,0.06964161247015,-0.19627483189105988,0.01837579719722271
1771073075795868000,2.031867919921875,0.01318263728171587,-0.15046848356723785,-0.0007989477599039674
1771073075805808400,2.041808349609375,-0.012383690103888512,-0.09294424951076508,-0.03275685757398605
1771073075815748900,2.051748779296875,-0.0006657897611148655,-0.03009369783103466,-0.05938844755291939
1771073075825689300,2.061689453125,0.05153212696313858,0.01784316636621952,-0.0679105594754219
1771073075835629800,2.0716298828125,0.12290479242801666,0.05299686640501022,-0.060453712940216064
1771073075845570300,2.0815703125,0.20812588930130005,0.08602003753185272,-0.029561065137386322
1771073075855510800,2.0915107421875,0.30293434858322144,0.12543480098247528,0.027963170781731606
1771073075865451300,2.101451171875,0.39667755365371704,0.15526217222213745,0.11105373501777649
1771073075875391700,2.111391845703125,0.482963889837265,0.16911059617996216,0.2005358785390854
1771073075885332200,2.121332275390625,0.5649892091751099,0.15952323377132416,0.27830013632774353
1771073075895272400,2.1312724609375,0.6406229138374329,0.12330426275730133,0.3326285779476166
1771073075905213000,2.141212890625,0.6853640079498291,0.056192658841609955,0.349672794342041
1771073075915153400,2.1511533203125,0.6992124319076538,-0.020506324246525764,0.31984540820121765
1771073075925094000,2.161093994140625,0.6885597705841064,-0.0822916179895401,0.2601906359195709
1771073075935034400,2.171034423828125,0.652340829372406,-0.1344895362854004,0.19627483189105988
1771073075944974800,2.180974853515625,0.5862944722175598,-0.171773761510849,0.14407691359519958
1771073075954915300,2.190915283203125,0.5010733604431152,-0.1760348230600357,0.10253162682056427
1771073075964855800,2.200855712890625,0.41585230827331543,-0.14727269113063812,0.07163897901773453
1771073075974796300,2.21079638671875,0.33915331959724426,-0.11211899667978287,0.03328948840498924
1771073075984736800,2.22073681640625,0.2581932842731476,-0.08974846452474594,-0.023169483989477158
1771073075994677200,2.23067724609375,0.17084164917469025,-0.0588558167219162,-0.0966726765036583
1771073076004618000,2.240617919921875,0.08988162130117416,0.008255792781710625,-0.17976324260234833
1771073076014558500,2.250558349609375,0.01850895583629608,0.0636495053768158,-0.2788327634334564
1771073076024499000,2.2604990234375,-0.04647212475538254,0.09028109163045883,-0.38962018489837646
1771073076034439400,2.270439453125,-0.0954742506146431,0.08921582996845245,-0.48868969082832336
1771073076044380000,2.2803798828125,-0.1327584832906723,0.07536740601062775,-0.5494097471237183
1771073076054320400,2.2903203125,-0.1657816469669342,0.05512739345431328,-0.5653886795043945
1771073076064261000,2.30026123046875,-0.20093534886837006,0.02210422046482563,-0.5451486706733704
1771073076074201600,2.31020166015625,-0.23928484320640564,-0.03328948840498924,-0.5099949836730957
1771073076084142000,2.32014208984375,-0.279764860868454,-0.11851058155298233,-0.4716454744338989
1771073076094082600,2.33008251953125,-0.325571209192276,-0.23036326467990875,-0.439687579870224
1771073076113963500,2.349963623046875,-0.47470811009407043,-0.47537389397621155,-0.40559911727905273
1771073076133844700,2.3698447265625,-0.6813692450523376,-0.6170539855957031,-0.43223071098327637
1771073076143785200,2.37978515625,-0.797482967376709,-0.6575340032577515,-0.47910231351852417
1771073076153725700,2.3897255859375,-0.897617757320404,-0.6532729268074036,-0.5291697382926941
1771073076163666200,2.399666259765625,-0.9583377838134766,-0.5861613154411316,-0.5526055097579956
1771073076173606700,2.409606689453125,-0.9625988602638245,-0.43702441453933716,-0.525973916053772
1771073076183547100,2.419547119140625,-0.8795083165168762,-0.18881797790527344,-0.4173170328140259
1771073076193488000,2.42948779296875,-0.6962829232215881,0.14460954070091248,-0.2330264151096344
1771073076203428400,2.439428466796875,-0.4587291479110718,0.41412124037742615,-0.03914843872189522
1771073076213368800,2.449368896484375,-0.2648511826992035,0.5036033987998962,0.08761793375015259
1771073076223309300,2.459309326171875,-0.16791218519210815,0.439687579870224,0.08442214131355286
1771073076233249800,2.469249755859375,-0.17110797762870789,0.23622220754623413,-0.07536740601062775
1771073076243190300,2.479190185546875,-0.2840259075164795,-0.04607265070080757,-0.3235738277435303
1771073076253131000,2.489131103515625,-0.45127230882644653,-0.23675484955310822,-0.5313002467155457
1771073076263071500,2.499071533203125,-0.6057355403900146,-0.25486433506011963,-0.5984118580818176
1771073076273012000,2.509011962890625,-0.721849262714386,-0.19414429366588593,-0.5291697382926941
1771073076282952400,2.518952392578125,-0.8028092980384827,-0.08761793375015259,-0.34274858236312866
1771073076292893000,2.528892822265625,-0.8187882900238037,0.09880319982767105,-0.06151897460222244
1771073076302833400,2.53883349609375,-0.7463503479957581,0.3171822428703308,0.2516685426235199
1771073076312774000,2.54877392578125,-0.6195839643478394,0.48336338996887207,0.5201149582862854
1771073076322714400,2.55871435546875,-0.4938828647136688,0.5547360181808472,0.6905571818351746
1771073076332654800,2.56865478515625,-0.3873564898967743,0.5366265773773193,0.756603479385376
1771073076342595300,2.57859521484375,-0.2978743314743042,0.43649178743362427,0.7086666226387024
1771073076352535800,2.588535888671875,-0.24993747472763062,0.2426137924194336,0.546746551990509
1771073076362476300,2.598476318359375,-0.2680469751358032,-0.05139897018671036,0.2878875136375427
1771073076372416800,2.608416748046875,-0.3394196331501007,-0.3976096510887146,-0.00612526573240757
1771073076382357200,2.618357177734375,-0.4374238848686218,-0.6564686894416809,-0.2522011697292328
1771073076392297700,2.628297607421875,-0.5471460223197937,-0.7299718856811523,-0.3970770239830017
1771073076412178700,2.6481787109375,-0.8017440438270569,-0.4870918095111847,-0.34807488322257996
1771073076422119200,2.658119140625,-0.8880304098129272,-0.21118851006031036,-0.18295903503894806
1771073076432059600,2.6680595703125,-0.901878833770752,0.10519478470087051,0.020506324246525764
1771073076442000100,2.678000244140625,-0.8411588072776794,0.3821633458137512,0.20799273252487183
1771073076451940600,2.687940673828125,-0.7271755933761597,0.5611276030540466,0.32836753129959106
1771073076461881000,2.697881103515625,-0.600409209728241,0.6154560446739197,0.3635212182998657
1771073076471821600,2.707821533203125,-0.48855653405189514,0.5685844421386719,0.3219759464263916
1771073076481762000,2.717761962890625,-0.4097270369529724,0.4546012580394745,0.23036326467990875
1771073076491702500,2.72770263671875,-0.36072489619255066,0.3086601495742798,0.11424952745437622
1771073076501643000,2.73764306640625,-0.34261542558670044,0.1723063886165619,0.017310533672571182
1771073076511583200,2.747583251953125,-0.3500722646713257,0.06151897460222244,-0.02210422046482563
1771073076521523700,2.757523681640625,-0.3692470192909241,0.02210422046482563,0.015180006623268127
1771073076531464200,2.767464111328125,-0.3767038583755493,0.06897582113742828,0.1249021589756012
1771073076541404700,2.77740478515625,-0.3628554344177246,0.14460954070091248,0.2601906359195709
1771073076551345200,2.78734521484375,-0.336223840713501,0.18402428925037384,0.37097805738449097
1771073076561285600,2.79728564453125,-0.3021354079246521,0.18402428925037384,0.425306499004364
1771073076571226000,2.80722607421875,-0.2595248520374298,0.16378428041934967,0.4210454523563385
1771073076581166600,2.81716650390625,-0.212653249502182,0.13502216339111328,0.37097805738449097
1771073076591107000,2.827107177734375,-0.18282587826251984,0.08921582996845245,0.293213814496994
1771073076601047600,2.837047607421875,-0.18708692491054535,0.028495801612734795,0.19414429366588593
1771073076610988000,2.846988037109375,-0.21904483437538147,-0.04607265070080757,0.0918789878487587
1771073076630869000,2.866868896484375,-0.3032006621360779,-0.13662005960941315,-0.0870852991938591
1771073076640809500,2.8768095703125,-0.3213101327419281,-0.12170637398958206,-0.1723063886165619
1771073076650750000,2.88675,-0.32450592517852783,-0.0492684431374073,-0.2671148478984833
1771073076660690400,2.8966904296875,-0.30959224700927734,0.07643266767263412,-0.3555317521095276
1771073076670631000,2.906630859375,-0.2733732759952545,0.22237378358840942,-0.42264336347579956
1771073076680571400,2.9165712890625,-0.22330589592456818,0.3640538454055786,-0.469514936208725
1771073076690512000,2.926511962890625,-0.1657816469669342,0.4727107286453247,-0.4929507374763489
1771073076700452400,2.936452392578125,-0.11251847445964813,0.5771065950393677,-0.48442864418029785
1771073076710392800,2.946392822265625,-0.06671213358640671,0.714525580406189,-0.44181808829307556
1771073076720333300,2.956333251953125,-0.012383690103888512,0.8625972270965576,-0.37683701515197754
1771073076730273800,2.966273681640625,0.06964161247015,0.96592777967453,-0.2841590642929077
1771073076740214000,2.976214111328125,0.18149429559707642,0.9616667628288269,-0.17763271927833557
1771073076750154500,2.986154541015625,0.30186909437179565,0.8349003791809082,-0.07643266767263412
1771073076760095000,2.996094970703125,0.4030691385269165,0.6165213584899902,0.013049479573965073
1771073076770035500,3.006035400390625,0.47976812720298767,0.37151068449020386,0.09933583438396454
1771073076779976000,3.015975830078125,0.5436839461326599,0.15526217222213745,0.1813611388206482
1771073076789916400,3.02591650390625,0.6246439814567566,-0.001331579522229731,0.26871275901794434
1771073076799857000,3.03585693359375,0.7407577037811279,-0.04500738903880119,0.37736964225769043
1771073076809797400,3.04579736328125,0.8675240874290466,0.002929474925622344,0.4881570637226105
1771073076819737900,3.05573779296875,0.9719198942184448,0.07643266767263412,0.5563339591026306
1771073076829678300,3.06567822265625,1.045423150062561,0.1339569091796875,0.5318328738212585
1771073076839618800,3.075618896484375,1.05820631980896,0.11478215456008911,0.3965443968772888
1771073076849559300,3.085559326171875,0.992159903049469,-0.04287686198949814,0.1579253375530243
1771073076859499800,3.095499755859375,0.8739156723022461,-0.2857569754123688,-0.12756532430648804
1771073076869440300,3.105440185546875,0.7396924495697021,-0.46152547001838684,-0.3555317521095276
1771073076879380700,3.115380615234375,0.6352965831756592,-0.46578651666641235,-0.4492749273777008
1771073076889321200,3.1253212890625,0.5543365478515625,-0.3699128031730652,-0.40346860885620117
1771073076899261700,3.13526171875,0.5042691826820374,-0.1952095627784729,-0.21172115206718445
1771073076909202200,3.1452021484375,0.5277049541473389,0.05193160101771355,0.0822916179895401
1771073076919142700,3.155142578125,0.6203829050064087,0.2798980176448822,0.3699128031730652
1771073076929083100,3.165083251953125,0.727974534034729,0.3874896466732025,0.5605949759483337
1771073076939023600,3.175023681640625,0.8249135613441467,0.4024033546447754,0.6287718415260315
1771073076948964000,3.184964111328125,0.9186567068099976,0.34807488322257996,0.5733781456947327
1771073076958904600,3.194904541015625,0.9868336319923401,0.20746009051799774,0.4125233590602875
1771073076968844800,3.2048447265625,0.9985514879226685,-0.00985368900001049,0.1813611388206482
1771073076978785300,3.214785400390625,0.9516798853874207,-0.2889527678489685,-0.08388951420783997
1771073076988725800,3.224725830078125,0.849414587020874,-0.60533607006073,-0.3640538454055786
1771073076998666200,3.234666259765625,0.7119956016540527,-0.9259804487228394,-0.6165213584899902
1771073077008606700,3.244606689453125,0.5511407852172852,-1.1965574026107788,-0.7880287766456604
1771073077018547200,3.254547119140625,0.3519364893436432,-1.3574122190475464,-0.8242477178573608
1771073077028487700,3.26448779296875,0.11864373832941055,-1.322258472442627,-0.7283740043640137
1771073077038428200,3.27442822265625,-0.11251847445964813,-1.14116370677948,-0.5643234252929688
1771073077048368600,3.28436865234375,-0.3063964545726776,-0.8748477697372437,-0.36724963784217834
1771073077058309000,3.29430908203125,-0.42144492268562317,-0.5723128914833069,-0.16484954953193665
1771073077068249600,3.30424951171875,-0.42677125334739685,-0.26871275901794434,0.019441060721874237
1771073077078190000,3.314190185546875,-0.31917962431907654,-0.007723161485046148,0.15579481422901154
1771073077088130600,3.324130615234375,-0.13169321417808533,0.15632744133472443,0.21331904828548431
1771073077098071000,3.334071044921875,0.08988162130117416,0.2191779911518097,0.18881797790527344
1771073077108011500,3.344011474609375,0.30613014101982117,0.23089589178562164,0.11105373501777649
1771073077117952000,3.353951904296875,0.49894285202026367,0.22130851447582245,0.023702116683125496
1771073077127892500,3.363892578125,0.6459492444992065,0.204264298081398,-0.035952646285295486
1771073077137833000,3.3738330078125,0.7375619411468506,0.1861548274755478,-0.04767054691910744
1771073077147773400,3.3837734375,0.7833682298660278,0.17337165772914886,-0.013582111336290836
1771073077157714000,3.3937138671875,0.7918903827667236,0.16591481864452362,0.05566002428531647
1771073077167654400,3.403654296875,0.7759113907814026,0.15526217222213745,0.14088112115859985
1771073077177595000,3.413594970703125,0.7322356104850769,0.11691268533468246,0.2005358785390854
1771073077187535000,3.42353515625,0.6725808382034302,0.044474758207798004,0.21971063315868378
1771073077197475600,3.4334755859375,0.6012081503868103,-0.03968106955289841,0.19734008610248566
1771073077207416000,3.443416015625,0.5149217844009399,-0.08655267208814621,0.13662005960941315
1771073077217356500,3.4533564453125,0.4137217700481415,-0.09400951862335205,0.04181159660220146
1771073077227297000,3.463297119140625,0.2986733019351959,-0.09400951862335205,-0.0679105594754219
1771073077237237500,3.473237548828125,0.1729721873998642,-0.09507478028535843,-0.17337165772914886
1771073077247178000,3.483177978515625,0.03981423005461693,-0.09614004194736481,-0.2692453861236572
1771073077257118500,3.493118408203125,-0.08908267319202423,-0.105727419257164,-0.3470096290111542
1771073077267059000,3.503058837890625,-0.20093534886837006,-0.12596742808818817,-0.40453386306762695
1771073077276999400,3.51299951171875,-0.28615644574165344,-0.15686006844043732,-0.43329599499702454
1771073077286940000,3.52293994140625,-0.3404848873615265,-0.15686006844043732,-0.42796966433525085
1771073077296880400,3.53288037109375,-0.3596596419811249,-0.1249021589756012,-0.383228600025177
1771073077306820900,3.54282080078125,-0.344745934009552,-0.0822916179895401,-0.2937464416027069
1771073077316761300,3.55276123046875,-0.30107012391090393,-0.00985368900001049,-0.1808284968137741
1771073077326701800,3.562701904296875,-0.24674169719219208,0.05299686640501022,-0.07962846010923386
1771073077336642300,3.572642333984375,-0.20626167953014374,0.06258423626422882,-0.016777902841567993
1771073077346582800,3.582582763671875,-0.17643429338932037,0.030626330524683,0.00985368900001049
1771073077356523300,3.592523193359375,-0.14980269968509674,-0.04394212365150452,0.007723161485046148
1771073077366463700,3.602463623046875,-0.12956269085407257,-0.15579481422901154,-0.011451584286987782
1771073077376404200,3.612404296875,-0.118910051882267,-0.25486433506011963,-0.03382211923599243
1771073077386344700,3.6223447265625,-0.12104058265686035,-0.349672794342041,-0.048735812306404114
1771073077396285200,3.63228515625,-0.15086796879768372,-0.43276336789131165,-0.040213704109191895
1771073077406225700,3.6422255859375,-0.20200061798095703,-0.4668518006801605,-0.018908429890871048
1771073077416166100,3.652166259765625,-0.2648511826992035,-0.4487423002719879,0.015180006623268127
1771073077426106600,3.662106689453125,-0.32876700162887573,-0.3635212182998657,0.07483477145433426
1771073077436047000,3.672047119140625,-0.37563860416412354,-0.21971063315868378,0.15579481422901154
1771073077445987600,3.681987548828125,-0.39481332898139954,-0.10679268091917038,0.23142851889133453
1771073077455928300,3.69192822265625,-0.3873564898967743,-0.06418213248252869,0.24953800439834595
1771073077465868800,3.701868896484375,-0.3596596419811249,-0.08335687965154648,0.1771000772714615
1771073077475809300,3.711809326171875,-0.33728909492492676,-0.1952095627784729,0.010918952524662018
1771073077485749800,3.721749755859375,-0.3543333113193512,-0.3986749053001404,-0.22130851447582245
1771073077495690200,3.731690185546875,-0.4246407151222229,-0.5829655528068542,-0.45566651225090027
1771073077505630700,3.741630615234375,-0.5194491744041443,-0.6639255881309509,-0.6271739602088928
1771073077515571200,3.7515712890625,-0.6195839643478394,-0.6490118503570557,-0.6964160799980164
1771073077525512000,3.761511962890625,-0.7250450849533081,-0.568051815032959,-0.6314350366592407
1771073077535452400,3.771452392578125,-0.8198535442352295,-0.4103928208351135,-0.42903491854667664
1771073077545393000,3.781392822265625,-0.8699209094047546,-0.19734008610248566,-0.13608743250370026
1771073077555333400,3.79133349609375,-0.8635293245315552,0.03382211923599243,0.17816534638404846
1771073077565273900,3.80127392578125,-0.8028092980384827,0.23409168422222137,0.4593949317932129
1771073077575214300,3.81121435546875,-0.7026745080947876,0.3470096290111542,0.6660560965538025
1771073077585155000,3.821155029296875,-0.5780386924743652,0.36192330718040466,0.7864308953285217
1771073077595095600,3.831095458984375,-0.4491417706012726,0.318247526884079,0.8269109129905701
1771073077605036000,3.8410361328125,-0.32876700162887573,0.21172115206718445,0.7992140650749207
1771073077614976500,3.8509765625,-0.23502379655838013,0.025300011038780212,0.7139929533004761
1771073077624917000,3.8609169921875,-0.18602167069911957,-0.20692746341228485,0.5808349847793579
1771073077634857500,3.870857421875,-0.18708692491054535,-0.425306499004364,0.4295675754547119
1771073077644798200,3.880798095703125,-0.24248063564300537,-0.5787044763565063,0.27723485231399536
1771073077654738700,3.89073876953125,-0.33728909492492676,-0.659664511680603,0.1430116444826126
1771073077664679200,3.90067919921875,-0.45446810126304626,-0.6639255881309509,0.03328948840498924
1771073077674619600,3.91061962890625,-0.5844302773475647,-0.5797697305679321,-0.04660528525710106
1771073077684560100,3.92056005859375,-0.7154576778411865,-0.4018706977367401,-0.08921582996845245
1771073077714381600,3.950381591796875,-0.9242493510246277,0.318247526884079,0.0023968431632965803
1771073077724322000,3.960322021484375,-0.9125314950942993,0.48336338996887207,0.040746334940195084
1771073077734262500,3.970262451171875,-0.8731167316436768,0.5771065950393677,0.0588558167219162
1771073077744203000,3.980203125,-0.8123967051506042,0.6314350366592407,0.0684431865811348
1771073077754143500,3.9901435546875,-0.7356976866722107,0.6665887236595154,0.07057371735572815
1771073077764084000,4.000083984375,-0.6558029055595398,0.6804371476173401,0.06524740159511566
1771073077774024400,4.0100244140625,-0.579103946685791,0.6538055539131165,0.052464235574007034
1771073077783965000,4.01996484375,-0.5183839201927185,0.5845634341239929,0.032224226742982864
1771073077793905400,4.029905517578125,-0.4768386483192444,0.4865591824054718,0.008788425475358963
1771073077803846000,4.039845947265625,-0.45446810126304626,0.38535910844802856,-0.0050600022077560425
1771073077813786400,4.049786376953125,-0.45127230882644653,0.29268118739128113,-0.00612526573240757
1771073077823726800,4.059726806640625,-0.4672512710094452,0.2095906287431717,-0.002929474925622344
1771073077833667300,4.069667236328125,-0.503470242023468,0.14247901737689972,0.005592633970081806
1771073077843607800,4.07960791015625,-0.5482112765312195,0.0913463607430458,0.006657897960394621
1771073077853548300,4.08954833984375,-0.5844302773475647,0.060453712940216064,0.0034621069207787514
1771073077863488800,4.09948876953125,-0.6142576336860657,0.02636527456343174,-0.01784316636621952
1771073077873429200,4.10942919921875,-0.6408892273902893,-0.03328948840498924,-0.07217161357402802
1771073077883369700,4.11936962890625,-0.654737651348114,-0.12703268229961395,-0.15526217222213745
1771073077893310200,4.129310302734375,-0.6494113206863403,-0.24847275018692017,-0.25433170795440674
1771073077903250700,4.139250732421875,-0.6344976425170898,-0.360325425863266,-0.3448790907859802
1771073077913194800,4.14919482421875,-0.6270408034324646,-0.4316980838775635,-0.4066644012928009
1771073077923131600,4.159131591796875,-0.6227797269821167,-0.42424124479293823,-0.42796966433525085
1771073077933068800,4.16906884765625,-0.6046702861785889,-0.34328120946884155,-0.40559911727905273
1771073077943006200,4.179006103515625,-0.5737776160240173,-0.228232741355896,-0.3555317521095276
1771073077952944000,4.188944091796875,-0.5301018357276917,-0.09507478028535843,-0.29587697982788086
1771073077962882300,4.19888232421875,-0.46512073278427124,0.06471476703882217,-0.23089589178562164
1771073077972821000,4.208821044921875,-0.3916175365447998,0.23835274577140808,-0.15952323377132416
1771073077982760400,4.218760498046875,-0.32876700162887573,0.37683701515197754,-0.1009337306022644
1771073077992700200,4.2287001953125,-0.2936132848262787,0.40879490971565247,-0.0870852991938591
1771073078002640600,4.238640625,-0.26698169112205505,0.3683148920536041,-0.12543480098247528
1771073078012581600,4.24858154296875,-0.23395852744579315,0.3022685647010803,-0.18828535079956055
1771073078022523400,4.2585234375,-0.18708692491054535,0.23089589178562164,-0.24154852330684662
1771073078032465400,4.26846533203125,-0.12530162930488586,0.18828535079956055,-0.2607232630252838
1771073078042407700,4.27840771484375,-0.04221107065677643,0.16591481864452362,-0.2468748539686203
1771073078052350500,4.2883505859375,0.049401599913835526,0.12650005519390106,-0.22556957602500916
1771073078062293200,4.298293212890625,0.14634059369564056,0.08388951420783997,-0.18935060501098633
1771073078072236300,4.308236328125,0.24221432209014893,0.09028109163045883,-0.13608743250370026
1771073078082179300,4.318179443359375,0.3231743574142456,0.1243695318698883,-0.07536740601062775
1771073078092119800,4.328119873046875,0.38176384568214417,0.15526217222213745,-0.02636527456343174
1771073078102060300,4.338060302734375,0.4030691385269165,0.1573926955461502,-0.023169483989477158
1771073078112000800,4.348000732421875,0.3647196292877197,0.0913463607430458,-0.08602003753185272
1771073078121941200,4.357941162109375,0.2635195851325989,-0.040746334940195084,-0.2234390527009964
1771073078131881700,4.3678818359375,0.12823110818862915,-0.17923060059547424,-0.40879490971565247
1771073078141822200,4.377822265625,-0.008122635073959827,-0.293213814496994,-0.5792371034622192
1771073078151762700,4.3877626953125,-0.1284974217414856,-0.3699128031730652,-0.6868287324905396
1771073078161703200,4.397703125,-0.21052272617816925,-0.3560643792152405,-0.6910898089408875
1771073078171643600,4.4076435546875,-0.2179795652627945,-0.25806012749671936,-0.5494097471237183
1771073078181584100,4.417584228515625,-0.13062795996665955,-0.08974846452474594,-0.27350643277168274
1771073078191524600,4.427524658203125,0.04620581120252609,0.11584742367267609,0.09827057272195816
1771073078201465000,4.437465087890625,0.275237500667572,0.3235738277435303,0.49348339438438416
1771073078211405600,4.447405517578125,0.5106607675552368,0.4588623046875,0.823715090751648
1771073078221346000,4.457345947265625,0.710930347442627,0.48549389839172363,1.036767840385437
1771073078231286500,4.46728662109375,0.8685893416404724,0.4215780794620514,1.1124016046524048
1771073078241227000,4.47722705078125,0.9783114790916443,0.26818013191223145,1.0516815185546875
1771073078251167500,4.48716748046875,1.0347704887390137,0.07536740601062775,0.8897614479064941
1771073078261108000,4.49710791015625,1.0390315055847168,-0.10679268091917038,0.6745781898498535
1771073078271048400,4.50704833984375,0.9857683181762695,-0.2697780132293701,0.4434159994125366
1771073078280989000,4.516989013671875,0.8824377655982971,-0.38589176535606384,0.23355905711650848
1771073078290929400,4.526929443359375,0.7524756193161011,-0.4295675754547119,0.07696529477834702
1771073078300870000,4.536869873046875,0.6097303032875061,-0.4114580750465393,-0.02636527456343174
1771073078310810000,4.54681005859375,0.4648544192314148,-0.3549990952014923,-0.07856319099664688
1771073078320750600,4.55675048828125,0.3327617347240448,-0.28149592876434326,-0.09028109163045883
1771073078330691000,4.566691162109375,0.23688800632953644,-0.19627483189105988,-0.0679105594754219
1771073078340631600,4.576631591796875,0.1910816729068756,-0.10253162682056427,-0.019973693415522575
1771073078350572000,4.586572021484375,0.19747324287891388,-0.017310533672571182,0.036485280841588974
1771073078360512500,4.596512451171875,0.24541011452674866,0.03488738462328911,0.09400951862335205
1771073078370453000,4.606452880859375,0.31145647168159485,0.04980107396841049,0.14194637537002563
1771073078380393500,4.6163935546875,0.3743070065975189,0.03808317333459854,0.171773761510849
1771073078390334000,4.626333984375,0.4275701940059662,0.0007989477599039674,0.17816534638404846
1771073078400274400,4.6362744140625,0.4680502116680145,-0.06205160543322563,0.16325165331363678
1771073078410215000,4.64621484375,0.49042075872421265,-0.13022847473621368,0.13981585204601288
1771073078420155400,4.6561552734375,0.4968123435974121,-0.17816534638404846,0.12596742808818817
1771073078430096000,4.666095947265625,0.4882902204990387,-0.20373167097568512,0.1291632205247879
1771073078440036400,4.676036376953125,0.47550705075263977,-0.21331904828548431,0.16005586087703705
1771073078449976800,4.685976806640625,0.45739758014678955,-0.20373167097568512,0.2090579867362976
1771073078459917300,4.695917236328125,0.42543965578079224,-0.1675127148628235,0.25060325860977173
1771073078469857800,4.70585791015625,0.38176384568214417,-0.09720530360937119,0.2655169665813446
1771073078479798300,4.71579833984375,0.3242396116256714,0.0018642114009708166,0.23995064198970795
1771073078489738800,4.72573876953125,0.2571280002593994,0.10306425392627716,0.17390428483486176
1771073078499679200,4.73567919921875,0.19001640379428864,0.1904158741235733,0.07483477145433426
1771073078509619700,4.74561962890625,0.12503531575202942,0.24048326909542084,-0.04660528525710106
1771073078519560200,4.755560302734375,0.061119500547647476,0.24367906153202057,-0.17550218105316162
1771073078529500400,4.76550048828125,-0.004926844500005245,0.20532956719398499,-0.2948117256164551
1771073078539441000,4.77544091796875,-0.0762995108962059,0.1573926955461502,-0.38642439246177673
1771073078549381400,4.78538134765625,-0.14767217636108398,0.12650005519390106,-0.43223071098327637
1771073078559321900,4.79532177734375,-0.20626167953014374,0.13182637095451355,-0.4205128252506256
1771073078569262300,4.805262451171875,-0.24035011231899261,0.1627190262079239,-0.36192330718040466
1771073078579202800,4.815202880859375,-0.24887222051620483,0.18722008168697357,-0.28735485672950745
1771073078589143300,4.825143310546875,-0.24035011231899261,0.20852535963058472,-0.21065588295459747
1771073078599083800,4.835083740234375,-0.2318280041217804,0.23622220754623413,-0.14460954070091248
1771073078609024300,4.845024169921875,-0.2265016883611679,0.25433170795440674,-0.09773793816566467
1771073078618964700,4.85496484375,-0.21904483437538147,0.25433170795440674,-0.07430213689804077
1771073078628905200,4.8649052734375,-0.22969746589660645,0.2372874766588211,-0.07643266767263412
1771073078638845700,4.874845703125,-0.25845959782600403,0.21704746782779694,-0.09241162240505219
1771073078648786200,4.8847861328125,-0.30107012391090393,0.18295903503894806,-0.11478215456008911
1771073078658726700,4.8947265625,-0.344745934009552,0.10732531547546387,-0.1435442715883255
1771073078668667100,4.904667236328125,-0.3958786129951477,-0.0023968431632965803,-0.17763271927833557
1771073078678607600,4.914607666015625,-0.45446810126304626,-0.11744531989097595,-0.2138516753911972
1771073078688548000,4.924548095703125,-0.5098618268966675,-0.1952095627784729,-0.251135915517807
1771073078698488600,4.934488525390625,-0.54927659034729,-0.22077588737010956,-0.2798980176448822
1771073078708429000,4.944428955078125,-0.5684512853622437,-0.18029586970806122,-0.2671148478984833
1771073078718369500,4.95436962890625,-0.5588639378547668,-0.05566002428531647,-0.204264298081398
1771073078728310000,4.96431005859375,-0.5173186659812927,0.09347688406705856,-0.1009337306022644
1771073078738250500,4.97425048828125,-0.44168493151664734,0.2095906287431717,0.0034621069207787514
1771073078748191000,4.98419091796875,-0.36179015040397644,0.23515695333480835,0.04181159660220146
1771073078758131200,4.994131103515625,-0.325571209192276,0.13289164006710052,-0.010386320762336254
1771073078768071700,5.00407177734375,-0.3628554344177246,-0.04287686198949814,-0.14034847915172577
1771073078778012200,5.01401220703125,-0.4619249403476715,-0.18775272369384766,-0.2852243483066559
1771073078787952600,5.02395263671875,-0.5812344551086426,-0.2090579867362976,-0.38003280758857727
1771073078797893000,5.03389306640625,-0.6643250584602356,-0.15153375267982483,-0.39068543910980225
1771073078807833600,5.04383349609375,-0.7016092538833618,-0.09081372618675232,-0.3235738277435303
1771073078817774000,5.053774169921875,-0.7111966609954834,-0.00985368900001049,-0.16911059617996216
1771073078827714600,5.063714599609375,-0.683499813079834,0.09560741484165192,0.05459476262331009
1771073078837655000,5.073655029296875,-0.608931303024292,0.1861548274755478,0.3070622384548187
1771073078847595500,5.083595458984375,-0.5056007504463196,0.25965800881385803,0.5435507893562317
1771073078857536000,5.093535888671875,-0.40866175293922424,0.30546435713768005,0.7470161318778992
1771073078867476500,5.1034765625,-0.31811434030532837,0.2948117256164551,0.8886961936950684
1771073078877417000,5.1134169921875,-0.2318280041217804,0.23515695333480835,0.9621993899345398
1771073078887357400,5.123357421875,-0.14341111481189728,0.10945583879947662,0.9568730592727661
1771073078897298000,5.1332978515625,-0.06777740269899368,-0.08335687965154648,0.8599340915679932
1771073078907238400,5.14323828125,-0.027297381311655045,-0.30599698424339294,0.6777740120887756
1771073078917179000,5.153178955078125,-0.039015281945466995,-0.5158539414405823,0.46152547001838684
1771073078927119400,5.163119384765625,-0.10186583548784256,-0.668186604976654,0.24634221196174622
1771073078937059800,5.173059814453125,-0.20626167953014374,-0.7512772083282471,0.04607265070080757
1771073078947000300,5.183000244140625,-0.336223840713501,-0.7704519033432007,-0.11584742367267609
1771073078956940800,5.19294091796875,-0.47896915674209595,-0.7203845381736755,-0.2138516753911972
1771073078966881300,5.20288134765625,-0.6068007946014404,-0.5797697305679321,-0.22237378358840942
1771073078976821800,5.21282177734375,-0.7069355845451355,-0.3549990952014923,-0.1531316488981247
1771073078986762000,5.222761962890625,-0.7751124501228333,-0.08548741042613983,-0.060453712940216064
1771073078996702500,5.232702392578125,-0.788960874080658,0.16591481864452362,0.015180006623268127
1771073079006643000,5.242642822265625,-0.7431545257568359,0.3512706756591797,0.04607265070080757
1771073079016583400,5.25258349609375,-0.6589987277984619,0.439687579870224,0.02263685315847397
1771073079026524000,5.26252392578125,-0.5631250143051147,0.44288337230682373,-0.04340949282050133
1771073079036464400,5.27246435546875,-0.47364285588264465,0.3842938542366028,-0.11371689289808273
1771073079046404900,5.28240478515625,-0.4001396596431732,0.2937464416027069,-0.15845796465873718
1771073079056345300,5.292345458984375,-0.34155014157295227,0.21278640627861023,-0.15952323377132416
1771073079066285800,5.302285888671875,-0.2914827764034271,0.17337165772914886,-0.10945583879947662
1771073079076226300,5.312226318359375,-0.24993747472763062,0.16378428041934967,-0.027430538088083267
1771073079086166800,5.322166748046875,-0.21904483437538147,0.16911059617996216,0.0588558167219162
1771073079096107300,5.332107177734375,-0.19987009465694427,0.18295903503894806,0.13342426717281342
1771073079106047700,5.3420478515625,-0.1934785097837448,0.20639483630657196,0.18455693125724792
1771073079115988200,5.35198828125,-0.20093534886837006,0.20746009051799774,0.2047969400882721
1771073079125928700,5.3619287109375,-0.21478378772735596,0.1861548274755478,0.2005358785390854
1771073079135869200,5.371869140625,-0.2179795652627945,0.16165375709533691,0.16325165331363678
1771073079145809700,5.3818095703125,-0.21158799529075623,0.12863057851791382,0.08016108721494675
1771073079155750100,5.391750244140625,-0.20200061798095703,0.07110634446144104,-0.03914843872189522
1771073079165690600,5.401690673828125,-0.1988048255443573,0.003994738683104515,-0.17017586529254913
1771073079175631000,5.411631103515625,-0.212653249502182,-0.023702116683125496,-0.27776750922203064
1771073079185571600,5.421571533203125,-0.2456764280796051,0.016777902841567993,-0.3491401672363281
1771073079195512000,5.431511962890625,-0.2936132848262787,0.08602003753185272,-0.39068543910980225
1771073079205452500,5.44145263671875,-0.336223840713501,0.15526217222213745,-0.40453386306762695
1771073079215392800,5.451392822265625,-0.34581121802330017,0.2234390527009964,-0.383228600025177
1771073079225333200,5.461333251953125,-0.31917962431907654,0.2713759243488312,-0.3257043659687042
1771073079235273700,5.471273681640625,-0.26272064447402954,0.2798980176448822,-0.23622220754623413
1771073079245214200,5.481214111328125,-0.1849564015865326,0.26391905546188354,-0.1243695318698883
1771073079255154700,5.49115478515625,-0.0954742506146431,0.24474431574344635,-0.008255792781710625
1771073079265095200,5.50109521484375,0.001464737462811172,0.2287653684616089,0.08335687965154648
1771073079275035600,5.51103564453125,0.10479531437158585,0.21598219871520996,0.12703268229961395
1771073079284976000,5.52097607421875,0.20919114351272583,0.19680745899677277,0.1291632205247879
1771073079294916600,5.53091650390625,0.31145647168159485,0.16911059617996216,0.10785794258117676
1771073079304857000,5.540857177734375,0.40093860030174255,0.14141374826431274,0.09400951862335205
1771073079314797600,5.550797607421875,0.47550705075263977,0.10412952303886414,0.10146636515855789
1771073079324738000,5.560738037109375,0.5245091915130615,0.05512739345431328,0.13662005960941315
1771073079334678500,5.570678466796875,0.5649892091751099,0.029561065137386322,0.2005358785390854
1771073079344619000,5.580618896484375,0.6118608117103577,0.03914843872189522,0.284691721200943
1771073079354559500,5.5905595703125,0.6576671600341797,0.05725792050361633,0.3549990952014923
1771073079364500000,5.6005,0.6960166096687317,0.05086633935570717,0.3752391040325165
1771073079374440400,5.6104404296875,0.7077345252037048,-0.027963170781731606,0.31451907753944397
1771073079384381000,5.620380859375,0.660862922668457,-0.20160114765167236,0.14620743691921234
1771073079394321400,5.6303212890625,0.5447492003440857,-0.4295675754547119,-0.1009337306022644
1771073079404262000,5.640261962890625,0.40200385451316833,-0.5829655528068542,-0.3363569974899292
1771073079414202400,5.650202392578125,0.26991117000579834,-0.5627255439758301,-0.48016759753227234
1771073079424142800,5.660142822265625,0.18042902648448944,-0.43702441453933716,-0.5036033987998962
1771073079434083000,5.6700830078125,0.14740586280822754,-0.2836264371871948,-0.39920756220817566
1771073079444023600,5.6800234375,0.1921469271183014,-0.13768532872200012,-0.20213377475738525
1771073079453964000,5.689964111328125,0.29228171706199646,0.0018642114009708166,0.03328948840498924
1771073079463904800,5.69990478515625,0.42543965578079224,0.11265163123607635,0.24953800439834595
1771073079473845200,5.70984521484375,0.5628587007522583,0.15526217222213745,0.4157191216945648
1771073079483785700,5.71978564453125,0.6853640079498291,0.13182637095451355,0.5211802124977112
1771073079493726200,5.729726318359375,0.7854987978935242,0.04660528525710106,0.5563339591026306
1771073079503666700,5.739666748046875,0.8419577479362488,-0.0822916179895401,0.5105276107788086
1771073079513607200,5.749607177734375,0.8355661630630493,-0.24527695775032043,0.39547911286354065
1771073079523548000,5.7595478515625,0.7652587890625,-0.3976096510887146,0.24953800439834595
1771073079533488400,5.76948828125,0.6534060835838318,-0.5073317885398865,0.10359688848257065
1771073079543428900,5.779428955078125,0.5234439373016357,-0.5542033910751343,-0.021038956940174103
1771073079553369300,5.789369384765625,0.38815543055534363,-0.5307676196098328,-0.11478215456008911
1771073079563309800,5.799309814453125,0.25606274604797363,-0.4221107065677643,-0.17550218105316162
1771073079573250300,5.809250244140625,0.13781848549842834,-0.2474074810743332,-0.20532956719398499
1771073079583190800,5.819190673828125,0.04407528415322304,-0.060986343771219254,-0.22130851447582245
1771073079593131500,5.829131591796875,-0.010253162123262882,0.08388951420783997,-0.2372874766588211
1771073079603072000,5.839072021484375,-0.024101590737700462,0.17763271927833557,-0.261788547039032
1771073079613012500,5.849012451171875,-0.0070573715493083,0.2234390527009964,-0.2937464416027069
1771073079622953000,5.858952880859375,0.01957421936094761,0.2234390527009964,-0.32463908195495605
1771073079632893400,5.8688935546875,0.05259739235043526,0.1957421898841858,-0.3406180441379547
1771073079642834000,5.878833984375,0.10053425282239914,0.1669800728559494,-0.32676962018013
1771073079652774700,5.888774658203125,0.1676458716392517,0.14034847915172577,-0.27776750922203064
1771073079662715100,5.898715087890625,0.24541011452674866,0.10519478470087051,-0.20746009051799774
1771073079672655600,5.908655517578125,0.33063119649887085,0.04660528525710106,-0.12117373943328857
1771073079682596000,5.91859619140625,0.407330185174942,-0.0492684431374073,-0.027430538088083267
1771073079692536600,5.92853662109375,0.46698495745658875,-0.1771000772714615,0.06418213248252869
1771073079702477000,5.93847705078125,0.5000081062316895,-0.32943278551101685,0.14727269113063812
1771073079712417800,5.948417724609375,0.5000081062316895,-0.47324338555336,0.20692746341228485
1771073079722358300,5.958358154296875,0.4659196734428406,-0.5637907981872559,0.23036326467990875
1771073079732298800,5.968298828125,0.4137217700481415,-0.5744433999061584,0.2239716798067093
1771073079742239200,5.9782392578125,0.34980595111846924,-0.508397102355957,0.18775272369384766
1771073079752179700,5.9881796875,0.27843329310417175,-0.3922833502292633,0.11638005077838898
1771073079762120200,5.9981201171875,0.19853851199150085,-0.26338642835617065,0.005592633970081806
1771073079772060700,6.008060791015625,0.11970899999141693,-0.14620743691921234,-0.1243695318698883
1771073079782001200,6.018001220703125,0.05153212696313858,-0.05033370852470398,-0.2426137924194336
1771073079791941600,6.027941650390625,0.0025300011038780212,0.03169159218668938,-0.3129211962223053
1771073079801882000,6.037882080078125,-0.027297381311655045,0.09560741484165192,-0.32890015840530396
1771073079811822600,6.047822509765625,-0.043276336044073105,0.1296958476305008,-0.31079065799713135
1771073079821763000,6.05776318359375,-0.04434159770607948,0.1339569091796875,-0.2756369709968567
1771073079831703600,6.06770361328125,-0.028362644836306572,0.12223900109529495,-0.22450430691242218
1771073079841644000,6.07764404296875,-0.0017310534603893757,0.09347688406705856,-0.1669800728559494
1771073079851584500,6.08758447265625,0.030226856470108032,0.04660528525710106,-0.09773793816566467
1771073079861525000,6.09752490234375,0.05898897349834442,-0.007723161485046148,-0.019973693415522575
1771073079871465200,6.10746533203125,0.07816372066736221,-0.06311687082052231,0.05779055133461952
1771073079881405700,6.11740576171875,0.08029424399137497,-0.10892320424318314,0.12596742808818817
1771073079891346200,6.12734619140625,0.07283740490674973,-0.14620743691921234,0.17923060059547424
1771073079901286700,6.13728662109375,0.05259739235043526,-0.1760348230600357,0.20586219429969788
1771073079911227100,6.14722705078125,0.01957421936094761,-0.20373167097568512,0.18029586970806122
1771073079921167600,6.157167724609375,-0.018775271251797676,-0.21331904828548431,0.12064110487699509
1771073079931108000,6.167108154296875,-0.0624510794878006,-0.20266640186309814,0.048203181475400925
1771073079941048600,6.177048583984375,-0.11145320534706116,-0.17923060059547424,-0.027430538088083267
1771073079950989000,6.186989013671875,-0.16258586943149567,-0.13662005960941315,-0.0870852991938591
1771073079960929500,6.196929443359375,-0.2041311413049698,-0.06524740159511566,-0.11158636957406998
1771073079970870000,6.2068701171875,-0.22437115013599396,0.03914843872189522,-0.08282424509525299
1771073079980810500,6.216810546875,-0.2041311413049698,0.17976324260234833,0.013049479573965073
1771073079990751000,6.2267509765625,-0.15406376123428345,0.2937464416027069,0.13981585204601288
1771073080000691500,6.23669140625,-0.10612688958644867,0.318247526884079,0.22077588737010956
1771073080010632000,6.2466318359375,-0.09121319651603699,0.21278640627861023,0.21225377917289734
1771073080020572400,6.256572509765625,-0.11571425944566727,0.03488738462328911,0.10466215014457703
1771073080030513000,6.266512939453125,-0.19987009465694427,-0.15472954511642456,-0.06897582113742828
1771073080040453400,6.276453369140625,-0.33302804827690125,-0.2612559199333191,-0.24794010818004608
1771073080050393900,6.286393798828125,-0.4523375630378723,-0.24527695775032043,-0.36192330718040466
1771073080060334300,6.296334228515625,-0.5439502596855164,-0.14727269113063812,-0.4024033546447754
1771073080070274800,6.30627490234375,-0.6036050319671631,-0.007723161485046148,-0.3704454302787781
1771073080080215300,6.31621533203125,-0.6036050319671631,0.19680745899677277,-0.2607232630252838
1771073080090155500,6.326155517578125,-0.5109270811080933,0.4119907021522522,-0.08602003753185272
1771073080100096000,6.336095947265625,-0.35539859533309937,0.6048034429550171,0.11211899667978287
1771073080110036500,6.346036376953125,-0.18815219402313232,0.7241129875183105,0.284691721200943
1771073080119977000,6.35597705078125,-0.04647212475538254,0.75180983543396,0.4263717830181122
1771073080129917400,6.36591748046875,0.07816372066736221,0.7241129875183105,0.5286371111869812
1771073080139858000,6.37585791015625,0.18575534224510193,0.5994771122932434,0.5723128914833069
1771073080149798400,6.38579833984375,0.24434484541416168,0.34807488322257996,0.5360939502716064
1771073080159739000,6.39573876953125,0.23262694478034973,-0.0023968431632965803,0.39974018931388855
1771073080169679400,6.405679443359375,0.15166690945625305,-0.4103928208351135,0.16964323818683624
1771073080179619800,6.415619873046875,0.03555317223072052,-0.7502118945121765,-0.10412952303886414
1771073080189560300,6.425560302734375,-0.06884266436100006,-0.8823046088218689,-0.3214432895183563
1771073080199500800,6.435500732421875,-0.16365112364292145,-0.7896266579627991,-0.4269044101238251
1771073080209441300,6.445441162109375,-0.2541985511779785,-0.546746551990509,-0.393881231546402
1771073080219381800,6.4553818359375,-0.31917962431907654,-0.19414429366588593,-0.24048326909542084
1771073080229322200,6.465322265625,-0.34794172644615173,0.18722008168697357,-0.03808317333459854
1771073080239262700,6.4752626953125,-0.32876700162887573,0.5217128396034241,0.14514216780662537
1771073080249203200,6.485203125,-0.26698169112205505,0.7613971829414368,0.2601906359195709
1771073080259143700,6.495143798828125,-0.16684691607952118,0.8881635665893555,0.30599698424339294
1771073080269084200,6.505084228515625,-0.030493171885609627,0.9009467363357544,0.2985401451587677
1771073080279024600,6.515024658203125,0.11970899999141693,0.8135951161384583,0.25486433506011963
1771073080288965000,6.524965087890625,0.2518016993999481,0.6697844862937927,0.1909485012292862
1771073080298905600,6.534905517578125,0.3519364893436432,0.517451822757721,0.13022847473621368
1771073080308846000,6.54484619140625,0.41052597761154175,0.3608580529689789,0.08868319541215897
1771073080318786300,6.554786376953125,0.42437440156936646,0.20319904386997223,0.0684431865811348
1771073080328726800,6.564726806640625,0.3988080620765686,0.0636495053768158,0.06737792491912842
1771073080338667300,6.574667236328125,0.342349112033844,-0.020506324246525764,0.08868319541215897
1771073080348607700,6.584607666015625,0.2720417082309723,-0.03755054250359535,0.12277163565158844
1771073080358548200,6.59454833984375,0.19853851199150085,-0.04287686198949814,0.16112112998962402
1771073080368488700,6.60448876953125,0.13888375461101532,-0.04181159660220146,0.20692746341228485
1771073080378429200,6.61442919921875,0.10053425282239914,-0.00985368900001049,0.2761695981025696
1771073080388369700,6.62436962890625,0.0834900364279747,0.04554001986980438,0.36778226494789124
1771073080398310100,6.63431005859375,0.08242477476596832,0.12330426275730133,0.44767704606056213
1771073080408250600,6.644250732421875,0.09201214462518692,0.1957421898841858,0.4860265254974365
1771073080418191000,6.654191162109375,0.09840372949838638,0.21278640627861023,0.4551338851451874
1771073080428131600,6.664131591796875,0.09627319872379303,0.15952323377132416,0.3656517565250397
1771073080438072000,6.674072021484375,0.08881635963916779,0.08175898343324661,0.2655169665813446
1771073080448012500,6.684012451171875,0.08242477476596832,0.02210422046482563,0.23142851889133453
1771073080457953000,6.693953125,0.0739026665687561,0.024234747514128685,0.3123885691165924
1771073080467893500,6.7038935546875,0.07177213579416275,0.1243695318698883,0.4668518006801605
1771073080477834000,6.713833984375,0.08135951310396194,0.2575274705886841,0.6340981721878052
1771073080487774500,6.7237744140625,0.11864373832941055,0.3470096290111542,0.7672561407089233
1771073080497715000,6.73371484375,0.1910816729068756,0.3683148920536041,0.8386288285255432
1771073080507655400,6.743655517578125,0.2773680090904236,0.34807488322257996,0.8418245911598206
1771073080517596000,6.753595947265625,0.3476754128932953,0.3086601495742798,0.7704519033432007
1771073080527536400,6.763536376953125,0.3892207145690918,0.24367906153202057,0.6383592486381531
1771073080537476900,6.773476806640625,0.4041343927383423,0.14141374826431274,0.47111284732818604
1771073080547417000,6.7834169921875,0.40946072340011597,0.015712639316916466,0.3081275224685669
1771073080557357600,6.793357666015625,0.4083954393863678,-0.09081372618675232,0.16538217663764954
1771073080567298000,6.803298095703125,0.3998733460903168,-0.16964323818683624,0.05992107838392258
1771073080577238500,6.813238525390625,0.39667755365371704,-0.21118851006031036,0.0034621069207787514
1771073080587179000,6.823178955078125,0.40626493096351624,-0.20586219429969788,-0.018908429890871048
1771073080597119500,6.833119384765625,0.43928807973861694,-0.14407691359519958,-0.025300011038780212
1771073080607060000,6.84306005859375,0.49468180537223816,-0.03755054250359535,-0.028495801612734795
1771073080617000400,6.85300048828125,0.5585976243019104,0.029561065137386322,-0.05938844755291939
1771073080626941000,6.86294091796875,0.6182523965835571,-0.00985368900001049,-0.12863057851791382
1771073080636881400,6.87288134765625,0.6587324142456055,-0.11638005077838898,-0.21704746782779694
1771073080646822000,6.88282177734375,0.6725808382034302,-0.19840535521507263,-0.2905506491661072
1771073080656762400,6.892762451171875,0.6672545075416565,-0.1760348230600357,-0.3139864504337311
1771073080666702800,6.902702880859375,0.6597976684570312,-0.048203181475400925,-0.2798980176448822
1771073080676643300,6.912643310546875,0.6534060835838318,0.12543480098247528,-0.21172115206718445
1771073080686583800,6.922583740234375,0.6661892533302307,0.2660495936870575,-0.14993585646152496
1771073080696524300,6.932524169921875,0.7162566184997559,0.3257043659687042,-0.11371689289808273
1771073080706464800,6.94246484375,0.78656405210495,0.30652961134910583,-0.09986846894025803
1771073080716405200,6.9524052734375,0.8664588332176208,0.2575274705886841,-0.07004108279943466
1771073080726345700,6.962345703125,0.9516798853874207,0.2277000993490219,0.0002663159102667123
1771073080736286200,6.9722861328125,1.0369009971618652,0.24367906153202057,0.11638005077838898
1771073080746226700,6.982226806640625,1.1114695072174072,0.27244117856025696,0.24421168863773346
1771073080756167200,6.992167236328125,1.166863203048706,0.26391905546188354,0.3400854170322418
1771073080766107600,7.002107666015625,1.202016830444336,0.21065588295459747,0.3699128031730652
1771073080776047900,7.0120478515625,1.2201263904571533,0.10519478470087051,0.32517173886299133
1771073080785988400,7.02198828125,1.2126694917678833,-0.02583264373242855,0.21758009493350983
1771073080795928800,7.0319287109375,1.1753852367401123,-0.1430116444826126,0.08016108721494675
1771073080805869300,7.041869384765625,1.1210567951202393,-0.2090579867362976,-0.044474758207798004
1771073080815809800,7.051809814453125,1.0614020824432373,-0.20266640186309814,-0.1435442715883255
1771073080825750300,7.061750244140625,1.0092041492462158,-0.15366427600383759,-0.2095906287431717
1771073080835690800,7.071690673828125,0.9676588773727417,-0.08655267208814621,-0.251135915517807
1771073080845631200,7.08163134765625,0.9388967156410217,-0.023702116683125496,-0.27670222520828247
1771073080855571700,7.09157177734375,0.9207872748374939,0.015712639316916466,-0.28628960251808167
1771073080865512200,7.10151220703125,0.9133304357528687,0.04554001986980438,-0.28735485672950745
1771073080875452700,7.11145263671875,0.9197220206260681,0.07004108279943466,-0.27776750922203064
1771073080885393200,7.12139306640625,0.9293093681335449,0.0966726765036583,-0.24900537729263306
1771073080895333600,7.131333740234375,0.9463536143302917,0.12543480098247528,-0.19148114323616028
1771073080905274000,7.141274169921875,0.9751157164573669,0.1627190262079239,-0.10199899226427078
1771073080915214600,7.151214599609375,1.0177263021469116,0.20532956719398499,0.0141147430986166
1771073080925155000,7.161155029296875,1.062467336654663,0.2277000993490219,0.1387505829334259
1771073080935095600,7.171095458984375,1.099751591682434,0.204264298081398,0.24953800439834595
1771073080945036000,7.1810361328125,1.129578948020935,0.15100112557411194,0.3454117476940155
1771073080954976500,7.1909765625,1.155145287513733,0.110521100461483,0.42317599058151245
1771073080964917000,7.2009169921875,1.1615368127822876,0.08921582996845245,0.4721781015396118
1771073080974857500,7.210857421875,1.1530147790908813,0.08175898343324661,0.48922231793403625
1771073080984798000,7.2207978515625,1.134905219078064,0.08175898343324661,0.4775044322013855
1771073080994738200,7.23073828125,1.110404133796692,0.10412952303886414,0.44661179184913635
1771073081004678700,7.2406787109375,1.0741852521896362,0.14247901737689972,0.39121806621551514
1771073081014619100,7.250619140625,1.0230525732040405,0.16804534196853638,0.3070622384548187
1771073081024559600,7.2605595703125,0.9633978009223938,0.1627190262079239,0.2090579867362976
1771073081034500000,7.2705,0.8909598588943481,0.14141374826431274,0.09507478028535843
1771073081044440600,7.280440673828125,0.803608238697052,0.10306425392627716,-0.03382211923599243
1771073081054381000,7.290381103515625,0.7024081945419312,0.04127896577119827,-0.15952323377132416
1771073081064321500,7.300321533203125,0.6012081503868103,-0.029028434306383133,-0.26391905546188354
1771073081074262000,7.310261962890625,0.5138565301895142,-0.08442214131355286,-0.3214432895183563
1771073081084202500,7.320202392578125,0.4446144104003906,-0.1153147891163826,-0.3235738277435303
1771073081094143000,7.33014306640625,0.3902859687805176,-0.1291632205247879,-0.28202855587005615
1771073081104083500,7.34008349609375,0.34980595111846924,-0.15153375267982483,-0.22237378358840942
1771073081114024000,7.35002392578125,0.3189133107662201,-0.19414429366588593,-0.17017586529254913
1771073081123964400,7.35996435546875,0.29228171706199646,-0.23568958044052124,-0.14141374826431274
1771073081133905000,7.36990478515625,0.2677806615829468,-0.24314641952514648,-0.11691268533468246
1771073081143845400,7.379845458984375,0.2390185296535492,-0.2047969400882721,-0.08921582996845245
1771073081153785900,7.389785888671875,0.19853851199150085,-0.1621863842010498,-0.07430213689804077
1771073081163726300,7.399726318359375,0.14847111701965332,-0.14727269113063812,-0.07962846010923386
1771073081173666800,7.409666748046875,0.10799109935760498,-0.1483379602432251,-0.09773793816566467
1771073081183607300,7.419607177734375,0.0834900364279747,-0.1675127148628235,-0.10412952303886414
1771073081193547800,7.4295478515625,0.07070687413215637,-0.19840535521507263,-0.0913463607430458
1771073081203488300,7.43948828125,0.061119500547647476,-0.20692746341228485,-0.04234423115849495
1771073081213428700,7.4494287109375,0.04301001876592636,-0.18775272369384766,0.026897907257080078
1771073081223369000,7.459368896484375,0.0035952648613601923,-0.16538217663764954,0.08868319541215897
1771073081233309400,7.469309326171875,-0.04966791719198227,-0.14727269113063812,0.11957584321498871
1771073081243250000,7.47925,-0.0858868807554245,-0.09294424951076508,0.12596742808818817
1771073081253190400,7.4891904296875,-0.09227846562862396,0.007190529722720385,0.12809795141220093
1771073081263131000,7.499130859375,-0.07843003422021866,0.10412952303886414,0.12596742808818817
1771073081273071400,7.5090712890625,-0.07310371845960617,0.14993585646152496,0.08974846452474594
1771073081283011800,7.51901171875,-0.10612688958644867,0.13502216339111328,-0.010386320762336254
1771073081292952300,7.528952392578125,-0.1796300858259201,0.04554001986980438,-0.17976324260234833
1771073081302892800,7.538892822265625,-0.30533120036125183,-0.12596742808818817,-0.4066644012928009
1771073081312833300,7.548833251953125,-0.47470811009407043,-0.3304980397224426,-0.6420876383781433
1771073081322773800,7.558773681640625,-0.6483460664749146,-0.4551338851451874,-0.8199867010116577
1771073081332714200,7.56871435546875,-0.8017440438270569,-0.4828307330608368,-0.873249888420105
1771073081342654700,7.57865478515625,-0.9285104274749756,-0.3837612271308899,-0.7741803526878357
1771073081352595200,7.58859521484375,-0.9711209535598755,-0.14407691359519958,-0.5142560005187988
1771073081362535700,7.59853564453125,-0.8965525031089783,0.2095906287431717,-0.1339569091796875
1771073081372476200,7.60847607421875,-0.7229145169258118,0.5749760270118713,0.2623211741447449
1771073081382416600,7.618416748046875,-0.4810996949672699,0.8583361506462097,0.5850960612297058
1771073081392357000,7.628357177734375,-0.20200061798095703,0.9925593733787537,0.7896266579627991
1771073081402297600,7.638297607421875,0.07709845900535583,0.9872331023216248,0.8886961936950684
1771073081412238000,7.648238037109375,0.32530489563941956,0.8860330581665039,0.8929572701454163
1771073081422178600,7.658178466796875,0.5191828608512878,0.6942855715751648,0.8141277432441711
1771073081432119000,7.668119140625,0.6416881680488586,0.4492749273777008,0.6788392663002014
1771073081442059500,7.6780595703125,0.6842987537384033,0.21278640627861023,0.5254412889480591
1771073081451999700,7.687999755859375,0.6448839902877808,0.016777902841567993,0.3869570195674896
1771073081461940200,7.697940185546875,0.5458144545555115,-0.1387505829334259,0.27830013632774353
1771073081471880700,7.707880615234375,0.41585230827331543,-0.23142851889133453,0.20266640186309814
1771073081481821200,7.7178212890625,0.28375959396362305,-0.2665822207927704,0.1430116444826126
1771073081491761700,7.72776171875,0.16018901765346527,-0.24847275018692017,0.08761793375015259
1771073081501702100,7.7377021484375,0.04727107286453247,-0.14407691359519958,0.029028434306383133
1771073081511642600,7.747642578125,-0.04860265180468559,0.04554001986980438,-0.023169483989477158
1771073081521583000,7.7575830078125,-0.10080057382583618,0.26818013191223145,-0.06471476703882217
1771073081531523600,7.767523681640625,-0.08695214241743088,0.45673179626464844,-0.09560741484165192
1771073081541464000,7.777464111328125,-0.02090579830110073,0.5664539337158203,-0.1243695318698883
1771073081551404500,7.787404541015625,0.07496792823076248,0.6026729345321655,-0.15419691801071167
1771073081561345000,7.797344970703125,0.1921469271183014,0.593085527420044,-0.18189376592636108
1771073081571285500,7.807285400390625,0.32637014985084534,0.5547360181808472,-0.19148114323616028
1771073081581226000,7.81722607421875,0.46165862679481506,0.5110602378845215,-0.1627190262079239
1771073081591166500,7.82716650390625,0.5799028873443604,0.4673844277858734,-0.09241162240505219
1771073081601107000,7.83710693359375,0.6629934310913086,0.4119907021522522,-0.0050600022077560425
1771073081611047400,7.84704736328125,0.719452440738678,0.337422251701355,0.08761793375015259
1771073081620988000,7.85698779296875,0.7556713819503784,0.2564622163772583,0.17283903062343597
1771073081630928400,7.866928466796875,0.7631282210350037,0.17976324260234833,0.228232741355896
1771073081640868900,7.876868896484375,0.7450187802314758,0.1243695318698883,0.24314641952514648
1771073081650809300,7.886809326171875,0.7151913642883301,0.09241162240505219,0.20799273252487183
1771073081660749800,7.896749755859375,0.6800376772880554,0.0913463607430458,0.12383689731359482
1771073081670690600,7.906690673828125,0.6470144987106323,0.11691268533468246,0.017310533672571182
1771073081680631000,7.916631103515625,0.6107955574989319,0.148870587348938,-0.0913463607430458
1771073081690571500,7.926571533203125,0.5575323700904846,0.20319904386997223,-0.18722008168697357
1771073081700512000,7.936511962890625,0.49894285202026367,0.2745717167854309,-0.2660495936870575
1771073081710452500,7.946452392578125,0.4318312406539917,0.34381383657455444,-0.3214432895183563
1771073081720393000,7.95639306640625,0.3657849133014679,0.391750693321228,-0.3651190996170044
1771073081730333400,7.96633349609375,0.3135869801044464,0.42264336347579956,-0.38962018489837646
1771073081740274200,7.976274169921875,0.2763027548789978,0.4407528340816498,-0.38962018489837646
1771073081750214700,7.986214599609375,0.25499749183654785,0.439687579870224,-0.37151068449020386
1771073081760155100,7.996155029296875,0.2571280002593994,0.43223071098327637,-0.337422251701355
1771073081770095600,8.006095703125,0.28908592462539673,0.4119907021522522,-0.29268118739128113
1771073081780036000,8.0160361328125,0.342349112033844,0.37577176094055176,-0.24367906153202057
1771073081789976600,8.0259765625,0.40200385451316833,0.32676962018013,-0.18828535079956055
1771073081799917300,8.035917236328125,0.45846283435821533,0.2894853949546814,-0.12863057851791382
1771073081809857800,8.04585791015625,0.5213133692741394,0.25965800881385803,-0.056192658841609955
1771073081819798300,8.05579833984375,0.5884249806404114,0.2372874766588211,0.027963170781731606
1771073081829738800,8.06573876953125,0.6491450071334839,0.23409168422222137,0.11851058155298233
1771073081839679200,8.07567919921875,0.698147177696228,0.23515695333480835,0.1856221854686737
1771073081849619700,8.08561962890625,0.7311703562736511,0.2181127369403839,0.21971063315868378
1771073081859560400,8.095560546875,0.7524756193161011,0.21278640627861023,0.2239716798067093
1771073081869501000,8.1055009765625,0.773780882358551,0.27244117856025696,0.21651484072208405
1771073081879441400,8.11544140625,0.7918903827667236,0.4066644012928009,0.1994706094264984
1771073081889382000,8.1253818359375,0.8046735525131226,0.5472791790962219,0.15366427600383759
1771073081899322400,8.135322265625,0.8089345693588257,0.626108705997467,0.056725289672613144
1771073081909262800,8.145262939453126,0.7961513996124268,0.5824328660964966,-0.10306425392627716
1771073081919203300,8.155203369140626,0.7322356104850769,0.41518649458885193,-0.3043990731239319
1771073081929143800,8.165143798828124,0.6203829050064087,0.21278640627861023,-0.4929507374763489
1771073081939084300,8.175084228515624,0.4936165511608124,0.08921582996845245,-0.6143907904624939
1771073081949024800,8.185024658203124,0.38815543055534363,0.04554001986980438,-0.6538055539131165
1771073081958965200,8.19496533203125,0.3231743574142456,0.023169483989477158,-0.6090644598007202
1771073081968905700,8.20490576171875,0.31252172589302063,0.03808317333459854,-0.47484126687049866
1771073081978846200,8.21484619140625,0.3604585826396942,0.10519478470087051,-0.2788327634334564
1771073081988786700,8.22478662109375,0.45313653349876404,0.22130851447582245,-0.05512739345431328
1771073081998727200,8.23472705078125,0.5948165655136108,0.34381383657455444,0.17283903062343597
1771073082008667600,8.244667724609375,0.7759113907814026,0.4162517786026001,0.36245596408843994
1771073082018607900,8.25460791015625,0.9442230463027954,0.4109254479408264,0.4860265254974365
1771073082028548400,8.26454833984375,1.062467336654663,0.35659700632095337,0.538224458694458
1771073082038488800,8.27448876953125,1.117861032485962,0.24367906153202057,0.5062665343284607
1771073082048429300,8.28442919921875,1.1061431169509888,0.05193160101771355,0.37630438804626465
1771073082058369800,8.294369873046875,1.0049431324005127,-0.20373167097568512,0.1771000772714615
1771073082068310300,8.304310302734375,0.8206524848937988,-0.4082622826099396,-0.029561065137386322
1771073082078250800,8.314250732421876,0.5916208028793335,-0.4775044322013855,-0.1765674501657486
1771073082088191200,8.324191162109376,0.36152383685112,-0.4114580750465393,-0.251135915517807
1771073082098131700,8.334131591796876,0.16018901765346527,-0.27190855145454407,-0.26818013191223145
1771073082108072200,8.344072265625,0.009986846707761288,-0.09400951862335205,-0.24900537729263306
1771073082118012700,8.3540126953125,-0.06990792602300644,0.09880319982767105,-0.2138516753911972
1771073082127953200,8.363953125,-0.06990792602300644,0.25007063150405884,-0.18295903503894806
1771073082137893600,8.3738935546875,0.0025300011038780212,0.3043990731239319,-0.17550218105316162
1771073082147834000,8.383834228515624,0.11544794589281082,0.2798980176448822,-0.1861548274755478
1771073082157774600,8.393774658203125,0.25606274604797363,0.2234390527009964,-0.19254639744758606
1771073082167715000,8.403715087890625,0.4030691385269165,0.17337165772914886,-0.17763271927833557
1771073082177655600,8.413655517578125,0.5255744457244873,0.13715268671512604,-0.15100112557411194
1771073082187596000,8.423595947265625,0.6107955574989319,0.08175898343324661,-0.12543480098247528
1771073082197536500,8.43353662109375,0.6619281768798828,0.028495801612734795,-0.09560741484165192
1771073082207477000,8.44347705078125,0.6832334399223328,0.010386320762336254,-0.04767054691910744
1771073082217417500,8.45341748046875,0.6651239991188049,0.015712639316916466,0.005592633970081806
1771073082227358000,8.46335791015625,0.6182523965835571,0.013582111336290836,0.04500738903880119
1771073082237298200,8.473298095703125,0.560728132724762,-0.005592633970081806,0.0684431865811348
1771073082247238700,8.48323876953125,0.5021386742591858,-0.02583264373242855,0.07376950979232788
1771073082257179100,8.49317919921875,0.4510059952735901,-0.03861580789089203,0.06631266325712204
1771073082267119600,8.50311962890625,0.4030691385269165,-0.04500738903880119,0.04713791608810425
1771073082277060000,8.51306005859375,0.3604585826396942,-0.06205160543322563,0.019441060721874237
1771073082287000600,8.52300048828125,0.32104381918907166,-0.09827057272195816,-0.02210422046482563
1771073082296941000,8.532941162109376,0.2901511788368225,-0.13022847473621368,-0.07856319099664688
1771073082306881500,8.542881591796874,0.26991117000579834,-0.13129374384880066,-0.12543480098247528
1771073082316822000,8.552822021484374,0.2581932842731476,-0.08548741042613983,-0.14034847915172577
1771073082326762500,8.562762451171874,0.24967116117477417,-0.024767380207777023,-0.11691268533468246
1771073082336703000,8.572702880859374,0.24114905297756195,0.021038956940174103,-0.06578002870082855
1771073082346643500,8.5826435546875,0.2336922138929367,0.035952646285295486,-0.010386320762336254
1771073082356584000,8.592583984375,0.22197431325912476,0.016777902841567993,0.024767380207777023
1771073082366524400,8.6025244140625,0.2059953510761261,-0.020506324246525764,0.04287686198949814
1771073082376465000,8.61246484375,0.18362481892108917,-0.06950845569372177,0.04500738903880119
1771073082386405400,8.6224052734375,0.15166690945625305,-0.12064110487699509,0.040746334940195084
1771073082396345900,8.632345947265625,0.10799109935760498,-0.17070849239826202,0.03861580789089203
1771073082406286300,8.642286376953125,0.049401599913835526,-0.21544957160949707,0.029028434306383133
1771073082416226800,8.652226806640625,0.001464737462811172,-0.23995064198970795,0.015180006623268127
1771073082426167300,8.662167236328125,-0.0294279083609581,-0.2516685426235199,0.007723161485046148
1771073082436107800,8.672107666015625,-0.04434159770607948,-0.2569948434829712,0.010918952524662018
1771073082446048300,8.68204833984375,-0.05819002538919449,-0.25912538170814514,0.023702116683125496
1771073082455988700,8.69198876953125,-0.07843003422021866,-0.29214856028556824,0.03861580789089203
1771073082465929000,8.701928955078126,-0.10825742036104202,-0.37630438804626465,0.048203181475400925
1771073082475869400,8.711869384765626,-0.1519332230091095,-0.49454864859580994,0.04500738903880119
1771073082485810000,8.721809814453126,-0.21158799529075623,-0.6266413331031799,0.020506324246525764
1771073082495750400,8.73175048828125,-0.27763432264328003,-0.7747129797935486,-0.009321057237684727
1771073082505691000,8.74169091796875,-0.33302804827690125,-0.8769782781600952,-0.007190529722720385
1771073082515631400,8.75163134765625,-0.3639206886291504,-0.8620645999908447,0.056725289672613144
1771073082525571800,8.76157177734375,-0.3543333113193512,-0.7427550554275513,0.17070849239826202
1771073082535512300,8.77151220703125,-0.3159838318824768,-0.6042708158493042,0.28256118297576904
1771073082545452800,8.781452880859375,-0.2978743314743042,-0.5190497040748596,0.30599698424339294
1771073082555393300,8.791393310546875,-0.32876700162887573,-0.5328981280326843,0.17496955394744873
1771073082565333800,8.801333740234375,-0.3969438672065735,-0.6159886717796326,-0.08069372177124023
1771073082575274200,8.811274169921875,-0.4906870722770691,-0.7001445293426514,-0.38535910844802856
1771073082585214700,8.821214599609375,-0.600409209728241,-0.6884266138076782,-0.6431529521942139
1771073082595155200,8.8311552734375,-0.7090660929679871,-0.5755086541175842,-0.7976161241531372
1771073082605095700,8.841095703125,-0.7942872047424316,-0.3837612271308899,-0.8093340396881104
1771073082615036200,8.8510361328125,-0.8422240614891052,-0.13129374384880066,-0.6687192320823669
1771073082624976600,8.8609765625,-0.8379629850387573,0.1435442715883255,-0.4013380706310272
1771073082634917000,8.870917236328125,-0.7729819416999817,0.4162517786026001,-0.07962846010923386
1771073082644857600,8.880857666015626,-0.6600639820098877,0.5877591967582703,0.2143843024969101
1771073082654798000,8.890798095703126,-0.5290365815162659,0.6303697824478149,0.4306328296661377
1771073082664738600,8.900738525390626,-0.3969438672065735,0.5781718492507935,0.5659213066101074
1771073082674679000,8.910678955078126,-0.2733732759952545,0.46205809712409973,0.6149234175682068
1771073082684619500,8.92061962890625,-0.16684691607952118,0.2798980176448822,0.5819002389907837
1771073082694559700,8.930559814453124,-0.09440898895263672,0.04554001986980438,0.4785696864128113
1771073082704500200,8.940500244140624,-0.06671213358640671,-0.2090579867362976,0.3400854170322418
1771073082714440700,8.950440673828124,-0.09227846562862396,-0.425306499004364,0.20266640186309814
1771073082724381200,8.960381103515624,-0.1561942845582962,-0.5499423742294312,0.10785794258117676
1771073082734321700,8.97032177734375,-0.24248063564300537,-0.5712476372718811,0.060986343771219254
1771073082744262100,8.98026220703125,-0.34261542558670044,-0.49348339438438416,0.0492684431374073
1771073082754202600,8.99020263671875,-0.4619249403476715,-0.3262369930744171,0.06418213248252869
1771073082764143000,9.00014306640625,-0.5801692008972168,-0.06524740159511566,0.08974846452474594
1771073082774083600,9.01008349609375,-0.6739124059677124,0.23941799998283386,0.09827057272195816
1771073082784024000,9.020024169921875,-0.7261103391647339,0.513190746307373,0.06205160543322563
1771073082793964500,9.029964599609375,-0.7367629408836365,0.7113298177719116,-0.02636527456343174
1771073082803905000,9.039905029296875,-0.7048050761222839,0.8530098795890808,-0.1339569091796875
1771073082813845500,9.049845458984375,-0.646215558052063,0.9467530846595764,-0.23196116089820862
1771073082823786000,9.059785888671875,-0.5780386924743652,0.9765804409980774,-0.3118559420108795
1771073082833726500,9.0697265625,-0.5077312588691711,0.9307740926742554,-0.36618438363075256
1771073082843667000,9.0796669921875,-0.4331628382205963,0.8157256245613098,-0.3779022693634033
1771073082853607400,9.089607421875,-0.3585943877696991,0.6793718934059143,-0.3352917432785034
1771073082863548000,9.0995478515625,-0.2925480306148529,0.5227781534194946,-0.24048326909542084
1771073082873488400,9.10948828125,-0.24887222051620483,0.3544664680957794,-0.10945583879947662
1771073082883428900,9.119428955078124,-0.22543641924858093,0.20852535963058472,0.04287686198949814
1771073082893369300,9.129369384765624,-0.21371851861476898,0.09454214572906494,0.19307903945446014
1771073082903309800,9.139309814453124,-0.21371851861476898,0.030626330524683,0.3166496157646179
1771073082913250800,9.149250732421875,-0.2222406268119812,0.009321057237684727,0.38056543469429016
1771073082923191000,9.15919091796875,-0.2318280041217804,0.009321057237684727,0.37204334139823914
1771073082933131300,9.16913134765625,-0.22969746589660645,0.03701791167259216,0.3070622384548187
1771073082943071500,9.179071533203125,-0.2179795652627945,0.07962846010923386,0.21331904828548431
1771073082953011700,9.18901171875,-0.203065887093544,0.10732531547546387,0.10679268091917038
1771073082962952000,9.198951904296875,-0.18176060914993286,0.09986846894025803,0.0141147430986166
1771073082972892200,9.20889208984375,-0.16258586943149567,0.060453712940216064,-0.04767054691910744
1771073082982832600,9.21883251953125,-0.146606907248497,0.007190529722720385,-0.07856319099664688
1771073082992772900,9.22877294921875,-0.14021532237529755,-0.0588558167219162,-0.08282424509525299
1771073083002713300,9.23871337890625,-0.14447638392448425,-0.12596742808818817,-0.0732368752360344
1771073083012653800,9.24865380859375,-0.17110797762870789,-0.18029586970806122,-0.06684529036283493
1771073083022594300,9.25859423828125,-0.2169143110513687,-0.1898832470178604,-0.07217161357402802
1771073083032534800,9.26853466796875,-0.2733732759952545,-0.13555480539798737,-0.08602003753185272
1771073083042475500,9.2784755859375,-0.33302804827690125,-0.019441060721874237,-0.10199899226427078
1771073083052416000,9.288416015625,-0.3958786129951477,0.13289164006710052,-0.1243695318698883
1771073083062356700,9.298356689453126,-0.45020705461502075,0.29268118739128113,-0.14460954070091248
1771073083072297500,9.30829736328125,-0.4757733643054962,0.44181808829307556,-0.1573926955461502
1771073083082238000,9.318238037109374,-0.457663893699646,0.5238434076309204,-0.17550218105316162
1771073083092178700,9.3281787109375,-0.40759649872779846,0.5036033987998962,-0.20639483630657196
1771073083102119200,9.338119140625,-0.3394196331501007,0.41412124037742615,-0.22983063757419586
1771073083112060000,9.348059814453125,-0.269112229347229,0.30120328068733215,-0.21598219871520996
1771073083122000400,9.35800048828125,-0.20945745706558228,0.18935060501098633,-0.1712411344051361
1771073083131941000,9.367941162109375,-0.15832480788230896,0.08282424509525299,-0.10199899226427078
1771073083141881600,9.377881591796875,-0.10719215124845505,0.007190529722720385,-0.009321057237684727
1771073083151821800,9.38782177734375,-0.04540686309337616,0.023169483989477158,0.105727419257164
1771073083161762300,9.39776220703125,0.024900536984205246,0.12117373943328857,0.21971063315868378
1771073083171702800,9.407702880859375,0.09201214462518692,0.20213377475738525,0.2761695981025696
1771073083181643300,9.417643310546875,0.12290479242801666,0.16165375709533691,0.2186453640460968
1771073083191583700,9.427583740234375,0.11970899999141693,-0.006657897960394621,0.03968106955289841
1771073083201524200,9.437524169921875,0.07816372066736221,-0.22610220313072205,-0.20852535963058472
1771073083211464700,9.447464599609376,0.0003994738799519837,-0.3645864725112915,-0.4343612492084503
1771073083221405200,9.4574052734375,-0.08375635743141174,-0.3922833502292633,-0.5589970946311951
1771073083231345700,9.467345703125,-0.17323850095272064,-0.3464770019054413,-0.5653886795043945
1771073083241286100,9.4772861328125,-0.24461115896701813,-0.25912538170814514,-0.45140546560287476
1771073083251226600,9.4872265625,-0.2680469751358032,-0.09400951862335205,-0.23622220754623413
1771073083261167000,9.4971669921875,-0.21478378772735596,0.10412952303886414,0.03328948840498924
1771073083271107600,9.507107666015624,-0.10612688958644867,0.26818013191223145,0.28682222962379456
1771073083281048000,9.517048095703124,0.0270310640335083,0.36192330718040466,0.47324338555336
1771073083290988500,9.526988525390625,0.15592797100543976,0.4013380706310272,0.5808349847793579
1771073083300929000,9.536928955078125,0.26884591579437256,0.3789675533771515,0.6106624007225037
1771073083310869500,9.546869384765625,0.3657849133014679,0.280963271856308,0.5627255439758301
1771073083320810000,9.55681005859375,0.43822282552719116,0.11478215456008911,0.4540686309337616
1771073083330750500,9.56675048828125,0.4605933725833893,-0.09400951862335205,0.3091927766799927
1771073083340691000,9.57669091796875,0.43396177887916565,-0.28149592876434326,0.17070849239826202
1771073083350631400,9.58663134765625,0.3806985914707184,-0.40400123596191406,0.07376950979232788
1771073083360572000,9.596572021484375,0.3231743574142456,-0.47111284732818604,0.0141147430986166
1771073083370512400,9.606512451171875,0.27310696244239807,-0.5073317885398865,-0.019973693415522575
1771073083380452600,9.61645263671875,0.22836589813232422,-0.49987494945526123,-0.04127896577119827
1771073083390393000,9.62639306640625,0.17936377227306366,-0.45193809270858765,-0.03808317333459854
1771073083400333600,9.63633349609375,0.1356879621744156,-0.3454117476940155,0.0002663159102667123
1771073083410274000,9.646274169921876,0.11331742256879807,-0.18775272369384766,0.08548741042613983
1771073083420214500,9.656214599609376,0.11118689179420471,-0.029028434306383133,0.17923060059547424
1771073083430155000,9.666155029296876,0.11864373832941055,0.04660528525710106,0.23888537287712097
1771073083440095500,9.676095458984374,0.13355742394924164,0.04767054691910744,0.25060325860977173
1771073083450036000,9.686035888671874,0.1452753245830536,0.027430538088083267,0.21225377917289734
1771073083459976400,9.6959765625,0.13781848549842834,-0.005592633970081806,0.12703268229961395
1771073083469917000,9.7059169921875,0.10799109935760498,-0.05033370852470398,-0.0007989477599039674
1771073083479857400,9.715857421875,0.08029424399137497,-0.11424952745437622,-0.14247901737689972
1771073083489798000,9.7257978515625,0.06644582003355026,-0.1760348230600357,-0.2649843394756317
1771073083499738400,9.73573828125,0.07496792823076248,-0.20266640186309814,-0.3320959508419037
1771073083509678800,9.745678955078125,0.10266478359699249,-0.17070849239826202,-0.32890015840530396
1771073083519619300,9.755619384765625,0.1303616315126419,-0.10146636515855789,-0.26391905546188354
1771073083529559800,9.765559814453125,0.14847111701965332,-0.017310533672571182,-0.17017586529254913
1771073083539500300,9.775500244140625,0.14847111701965332,0.03914843872189522,-0.08495477586984634
1771073083549440800,9.785440673828125,0.14207953214645386,0.0679105594754219,-0.03382211923599243
1771073083559381200,9.79538134765625,0.1399490088224411,0.0679105594754219,-0.009321057237684727
1771073083569321700,9.80532177734375,0.12823110818862915,0.03382211923599243,-0.007190529722720385
1771073083579262200,9.81526220703125,0.11012163013219833,-0.017310533672571182,-0.02636527456343174
1771073083589202700,9.82520263671875,0.08135951310396194,-0.08335687965154648,-0.04980107396841049
1771073083599143200,9.83514306640625,0.04301001876592636,-0.14940322935581207,-0.07430213689804077
1771073083609083400,9.84508349609375,-0.003861580742523074,-0.1760348230600357,-0.0966726765036583
1771073083619024000,9.85502392578125,-0.047537390142679214,-0.16112112998962402,-0.11158636957406998
1771073083628964400,9.86496435546875,-0.09014793485403061,-0.14727269113063812,-0.13502216339111328
1771073083638904800,9.87490478515625,-0.12423637509346008,-0.1525990217924118,-0.16378428041934967
1771073083648845300,9.88484521484375,-0.14021532237529755,-0.17816534638404846,-0.1904158741235733
1771073083658785800,9.894785888671874,-0.14767217636108398,-0.21758009493350983,-0.19680745899677277
1771073083668726300,9.904726318359375,-0.15406376123428345,-0.24314641952514648,-0.1712411344051361
1771073083678666800,9.914666748046875,-0.16684691607952118,-0.24314641952514648,-0.1201084777712822
1771073083688607200,9.924607177734375,-0.18708692491054535,-0.2420811653137207,-0.0679105594754219
1771073083698547700,9.934547607421875,-0.21371851861476898,-0.26338642835617065,-0.03701791167259216
1771073083708488200,9.94448828125,-0.23821958899497986,-0.3081275224685669,-0.03488738462328911
1771073083718428700,9.9544287109375,-0.26165539026260376,-0.36245596408843994,-0.05086633935570717
1771073083728369200,9.964369140625,-0.2925480306148529,-0.40080544352531433,-0.07643266767263412
1771073083738309600,9.9743095703125,-0.325571209192276,-0.41465386748313904,-0.10945583879947662
1771073083748250000,9.98425,-0.3532680571079254,-0.41465386748313904,-0.14141374826431274
1771073083758190600,9.994190673828125,-0.37137752771377563,-0.4071970283985138,-0.15952323377132416
1771073083768131000,10.004131103515626,-0.3820301592350006,-0.3518033027648926,-0.15419691801071167
1771073083778071600,10.014071533203126,-0.3767038583755493,-0.25912538170814514,-0.1009337306022644
1771073083788012000,10.024011962890626,-0.35113751888275146,-0.08122635632753372,0.0034621069207787514
1771073083797952500,10.033952392578126,-0.3159838318824768,0.110521100461483,0.12170637398958206
1771073083807893000,10.04389306640625,-0.27230802178382874,0.21598219871520996,0.20160114765167236
1771073083817833500,10.05383349609375,-0.22117535769939423,0.21704746782779694,0.19627483189105988
1771073083827774000,10.06377392578125,-0.19773955643177032,0.11797794699668884,0.09400951862335205
1771073083837714200,10.073714111328124,-0.2179795652627945,0.002929474925622344,-0.06897582113742828
1771073083847654700,10.083654541015624,-0.2882869839668274,-0.10359688848257065,-0.24154852330684662
1771073083857595100,10.09359521484375,-0.40759649872779846,-0.15899059176445007,-0.3842938542366028
1771073083867535600,10.10353564453125,-0.54181969165802,-0.15899059176445007,-0.47484126687049866
1771073083877476000,10.11347607421875,-0.6504766345024109,-0.15686006844043732,-0.5163865685462952
1771073083887416600,10.12341650390625,-0.721849262714386,-0.18349166214466095,-0.525973916053772
1771073083897357000,10.133357177734375,-0.7570029497146606,-0.171773761510849,-0.4812328517436981
1771073083907297500,10.143297607421875,-0.7431545257568359,-0.08122635632753372,-0.3363569974899292
1771073083917238000,10.153238037109375,-0.6771082282066345,0.1009337306022644,-0.11265163123607635
1771073083927178500,10.163178466796875,-0.5727123618125916,0.3214432895183563,0.14407691359519958
1771073083937119000,10.173118896484375,-0.45553335547447205,0.448209673166275,0.3699128031730652
1771073083947059500,10.1830595703125,-0.34794172644615173,0.4492749273777008,0.5265065431594849
1771073083957000000,10.193,-0.24780695140361786,0.35659700632095337,0.6127929091453552
1771073083966940400,10.2029404296875,-0.16045533120632172,0.19361166656017303,0.6074665784835815
1771073083976881000,10.212880859375,-0.10399636626243591,-0.019441060721874237,0.48922231793403625
1771073083986821400,10.2228212890625,-0.08801741153001785,-0.24527695775032043,0.29214856028556824
1771073083996761900,10.232761962890624,-0.118910051882267,-0.39547911286354065,0.0727042406797409
1771073084006702300,10.242702392578124,-0.1934785097837448,-0.40506649017333984,-0.10412952303886414
1771073084016642800,10.252642822265624,-0.30000486969947815,-0.2942790687084198,-0.2181127369403839
1771073084026583300,10.262583251953124,-0.4193144142627716,-0.13022847473621368,-0.2713759243488312
1771073084036523800,10.272523681640624,-0.5237102508544922,0.03701791167259216,-0.27244117856025696
1771073084046464300,10.28246435546875,-0.5865607857704163,0.18722008168697357,-0.22663484513759613
1771073084056404500,10.292404541015625,-0.6025397181510925,0.3171822428703308,-0.15845796465873718
1771073084066345000,10.302344970703125,-0.5663207769393921,0.40986019372940063,-0.08815056830644608
1771073084076285400,10.312285400390625,-0.4821649491786957,0.4641886353492737,-0.024234747514128685
1771073084086226000,10.322225830078125,-0.37989965081214905,0.47058022022247314,0.015180006623268127
1771073084096166400,10.33216650390625,-0.28615644574165344,0.4205128252506256,0.03009369783103466
1771073084106107000,10.34210693359375,-0.20732693374156952,0.33316120505332947,0.032224226742982864
1771073084116047400,10.35204736328125,-0.146606907248497,0.2522011697292328,0.031158961355686188
1771073084125987800,10.36198779296875,-0.10825742036104202,0.2000032514333725,0.04181159660220146
1771073084135928300,10.37192822265625,-0.08801741153001785,0.19148114323616028,0.06950845569372177
1771073084145868800,10.381868896484375,-0.07843003422021866,0.20532956719398499,0.11318425834178925
1771073084155809300,10.391809326171876,-0.08162582665681839,0.20639483630657196,0.14514216780662537
1771073084165749800,10.401749755859376,-0.09014793485403061,0.16911059617996216,0.14727269113063812
1771073084175690200,10.411690185546876,-0.09760478138923645,0.0913463607430458,0.12170637398958206
1771073084185630700,10.421630615234376,-0.10719215124845505,-0.004527370445430279,0.07696529477834702
1771073084195571200,10.4315712890625,-0.12104058265686035,-0.07696529477834702,0.029028434306383133
1771073084205511700,10.44151171875,-0.1380847990512848,-0.1153147891163826,-0.010386320762336254
1771073084215452200,10.4514521484375,-0.16365112364292145,-0.13022847473621368,-0.040213704109191895
1771073084225392600,10.461392578125,-0.1988048255443573,-0.14514216780662537,-0.06897582113742828
1771073084235333000,10.4713330078125,-0.24035011231899261,-0.1675127148628235,-0.09986846894025803
1771073084245273600,10.481273681640625,-0.28615644574165344,-0.1856221854686737,-0.13182637095451355
1771073084255214000,10.491214111328125,-0.33196279406547546,-0.1994706094264984,-0.1627190262079239
1771073084265154600,10.501154541015625,-0.3777691125869751,-0.2090579867362976,-0.19254639744758606
1771073084275095000,10.511094970703125,-0.41718387603759766,-0.2005358785390854,-0.2138516753911972
1771073084285035300,10.52103515625,-0.447011262178421,-0.15366427600383759,-0.2191779911518097
1771073084294975700,10.530975830078125,-0.46938177943229675,-0.0727042406797409,-0.20852535963058472
1771073084304916200,10.540916259765625,-0.4821649491786957,0.03914843872189522,-0.17869797348976135
1771073084314856700,10.550856689453125,-0.47896915674209595,0.17443692684173584,-0.13502216339111328
1771073084324797200,10.560797119140625,-0.45553335547447205,0.3086601495742798,-0.0966726765036583
1771073084334737700,10.570737548828125,-0.4150533378124237,0.38962018489837646,-0.07536740601062775
1771073084344678100,10.58067822265625,-0.3628554344177246,0.41944757103919983,-0.07962846010923386
1771073084354618600,10.59061865234375,-0.2968090772628784,0.4109254479408264,-0.09347688406705856
1771073084364559000,10.60055908203125,-0.22011010348796844,0.35766226053237915,-0.09560741484165192
1771073084374499600,10.61049951171875,-0.15086796879768372,0.26818013191223145,-0.07962846010923386
1771073084384440000,10.620440185546874,-0.09867004305124283,0.19893798232078552,-0.029561065137386322
1771073084394380500,10.630380615234374,-0.059255290776491165,0.19254639744758606,0.056725289672613144
1771073084404321000,10.640321044921874,-0.008122635073959827,0.2671148478984833,0.16538217663764954
1771073084414261500,10.650261474609374,0.06751108169555664,0.39068543910980225,0.2665822207927704
1771073084424202000,10.660201904296875,0.1537974327802658,0.5089297294616699,0.32836753129959106
1771073084434142500,10.670142578125,0.21877852082252502,0.5600623488426208,0.2878875136375427
1771073084444083000,10.6800830078125,0.24008379876613617,0.4641886353492737,0.08016108721494675
1771073084454023400,10.6900234375,0.21132168173789978,0.22024326026439667,-0.30013802647590637
1771073084463964000,10.6999638671875,0.14314480125904083,-0.06737792491912842,-0.7411571741104126
1771073084473904400,10.709904296875,0.04727107286453247,-0.2761695981025696,-1.091628909111023
1771073084483844900,10.719844970703125,-0.06990792602300644,-0.3741738498210907,-1.2769848108291626
1771073084493785300,10.729785400390625,-0.19987009465694427,-0.4082622826099396,-1.284441590309143
1771073084503725800,10.739725830078125,-0.30533120036125183,-0.3784348964691162,-1.1129342317581177
1771073084513666000,10.749666015625,-0.3543333113193512,-0.2761695981025696,-0.7954856157302856
1771073084523606500,10.7596064453125,-0.34155014157295227,-0.10785794258117676,-0.38962018489837646
1771073084533547000,10.769547119140626,-0.2541985511779785,0.09560741484165192,0.026897907257080078
1771073084543487500,10.779487548828126,-0.09014793485403061,0.23941799998283386,0.3837612271308899
1771073084553428000,10.789427978515626,0.10479531437158585,0.2575274705886841,0.629837155342102
1771073084563368400,10.799368408203126,0.2624543309211731,0.18295903503894806,0.7491466403007507
1771073084573309000,10.809308837890624,0.3561975359916687,0.06897582113742828,0.7491466403007507
1771073084583249400,10.81924951171875,0.3902859687805176,-0.05992107838392258,0.6522076725959778
1771073084593190000,10.82918994140625,0.35832804441452026,-0.2005358785390854,0.4764391779899597
1771073084603130400,10.83913037109375,0.24221432209014893,-0.3123885691165924,0.2665822207927704
1771073084613070800,10.84907080078125,0.07070687413215637,-0.35393384099006653,0.07057371735572815
1771073084623011300,10.85901123046875,-0.09440898895263672,-0.31878015398979187,-0.07430213689804077
1771073084632951800,10.868951904296875,-0.19241324067115784,-0.24527695775032043,-0.14460954070091248
1771073084642892300,10.878892333984375,-0.22117535769939423,-0.17496955394744873,-0.15845796465873718
1771073084652832800,10.888832763671875,-0.22117535769939423,-0.12596742808818817,-0.148870587348938
1771073084662773200,10.898773193359375,-0.20945745706558228,-0.08974846452474594,-0.1339569091796875
1771073084672713700,10.908713623046875,-0.17430377006530762,-0.0684431865811348,-0.11158636957406998
1771073084682654200,10.918654296875,-0.11677952855825424,-0.060986343771219254,-0.08175898343324661
1771073084692594700,10.9285947265625,-0.04860265180468559,-0.05992107838392258,-0.04234423115849495
1771073084702535200,10.93853515625,0.025965800508856773,-0.06418213248252869,-0.0007989477599039674
1771073084712475600,10.9484755859375,0.09414267539978027,-0.08122635632753372,0.040746334940195084
1771073084722416000,10.958416015625,0.15060164034366608,-0.10998847335577011,0.07590003311634064
1771073084732356600,10.968356689453126,0.18895113468170166,-0.1675127148628235,0.10253162682056427
1771073084742296800,10.978296875,0.20706062018871307,-0.22610220313072205,0.11424952745437622
1771073084752237300,10.9882373046875,0.2006690353155136,-0.27830013632774353,0.10466215014457703
1771073084762177800,10.998177734375,0.17403744161128998,-0.3273022472858429,0.0727042406797409
1771073084772118300,11.0081181640625,0.14314480125904083,-0.3741738498210907,0.020506324246525764
1771073084782058800,11.018058837890624,0.12503531575202942,-0.3976096510887146,-0.029561065137386322
1771073084791999200,11.027999267578124,0.11970899999141693,-0.3848264813423157,-0.06258423626422882
1771073084801939700,11.037939697265625,0.12183953076601028,-0.349672794342041,-0.07430213689804077
1771073084811880200,11.047880126953125,0.12183953076601028,-0.28682222962379456,-0.06897582113742828
1771073084821820700,11.057820556640625,0.11118689179420471,-0.21331904828548431,-0.05299686640501022
1771073084831761200,11.06776123046875,0.09201214462518692,-0.1579253375530243,-0.03169159218668938
1771073084841701600,11.07770166015625,0.06538055837154388,-0.12383689731359482,-0.015712639316916466
1771073084851642000,11.08764208984375,0.03448791056871414,-0.11211899667978287,-0.003994738683104515
1771073084861582600,11.09758251953125,0.007856319658458233,-0.1249021589756012,0.010918952524662018
1771073084871523000,11.107523193359375,-0.0070573715493083,-0.16857796907424927,0.032224226742982864
1771073084881463600,11.117463623046875,-0.012383690103888512,-0.23995064198970795,0.06524740159511566
1771073084891404000,11.127404052734375,-0.011318426579236984,-0.29534435272216797,0.1153147891163826
1771073084901344500,11.137344482421875,-0.0070573715493083,-0.32091066241264343,0.17070849239826202
1771073084911285000,11.147284912109376,-0.009187898598611355,-0.3273022472858429,0.21651484072208405
1771073084921225500,11.1572255859375,-0.026232117787003517,-0.3230412006378174,0.23568958044052124
1771073084931166000,11.167166015625,-0.050733182579278946,-0.30067065358161926,0.21971063315868378
1771073084941106400,11.1771064453125,-0.07310371845960617,-0.27403905987739563,0.18349166214466095
1771073084951047000,11.187046875,-0.09014793485403061,-0.26764747500419617,0.1430116444826126
1771073084960987100,11.196987060546874,-0.10719215124845505,-0.29108327627182007,0.10998847335577011
1771073084970927600,11.206927734375,-0.12956269085407257,-0.3219759464263916,0.08761793375015259
1771073084980868000,11.2168681640625,-0.16258586943149567,-0.34860754013061523,0.06950845569372177
1771073084990808600,11.22680859375,-0.21478378772735596,-0.35393384099006653,0.04500738903880119
1771073085000749000,11.2367490234375,-0.2744385600090027,-0.32943278551101685,-0.003994738683104515
1771073085010689500,11.246689453125,-0.3394196331501007,-0.2804306447505951,-0.08282424509525299
1771073085020630000,11.256630126953125,-0.39374807476997375,-0.22077588737010956,-0.18508955836296082
1771073085030570500,11.266570556640625,-0.4289017617702484,-0.1771000772714615,-0.2756369709968567
1771073085040511000,11.276510986328125,-0.45020705461502075,-0.14727269113063812,-0.3171822428703308
1771073085050451500,11.286451416015625,-0.4725775718688965,-0.11211899667978287,-0.29694223403930664
1771073085060392000,11.296391845703125,-0.48749127984046936,-0.03328948840498924,-0.2191779911518097
1771073085070332400,11.30633251953125,-0.46938177943229675,0.110521100461483,-0.0732368752360344
1771073085080273000,11.31627294921875,-0.4107922911643982,0.2575274705886841,0.11957584321498871
1771073085090213400,11.32621337890625,-0.3404848873615265,0.35340121388435364,0.28256118297576904
1771073085100153900,11.33615380859375,-0.2893522381782532,0.3225085735321045,0.3507380485534668
1771073085110094300,11.34609423828125,-0.3032006621360779,0.19467693567276,0.284691721200943
1771073085120034800,11.356034912109376,-0.4054659605026245,-0.010918952524662018,0.06418213248252869
1771073085129975300,11.365975341796876,-0.579103946685791,-0.2836264371871948,-0.28309381008148193
1771073085139915800,11.375915771484374,-0.8038745522499084,-0.5414202213287354,-0.6719150543212891
1771073085149856300,11.385856201171874,-1.0020135641098022,-0.6799045205116272,-0.9904288649559021
1771073085159796700,11.395796630859374,-1.1554116010665894,-0.7416898012161255,-1.1906983852386475
1771073085169737200,11.4057373046875,-1.2779169082641602,-0.7395592927932739,-1.2194606065750122
1771073085179677700,11.415677734375,-1.3098747730255127,-0.5723128914833069,-1.0255825519561768
1771073085189618000,11.425617919921875,-1.2385021448135376,-0.23036326467990875,-0.6378266215324402
1771073085199558400,11.435558349609375,-1.0861694812774658,0.21172115206718445,-0.15526217222213745
1771073085209499000,11.445498779296875,-0.8582029938697815,0.6069339513778687,0.3177148699760437
1771073085219439400,11.455439453125,-0.5908218622207642,0.8135951161384583,0.6884266138076782
1771073085229379800,11.4653798828125,-0.34261542558670044,0.8072035312652588,0.915327787399292
1771073085239320300,11.4753203125,-0.13169321417808533,0.6442182064056396,0.9984183311462402
1771073085249260800,11.4852607421875,0.03874896466732025,0.37577176094055176,0.9483509659767151
1771073085259201300,11.495201171875,0.1356879621744156,0.05512739345431328,0.7789740562438965
1771073085269141800,11.505141845703125,0.13675321638584137,-0.23036326467990875,0.5392897129058838
1771073085279082200,11.515082275390625,0.03874896466732025,-0.40932756662368774,0.2793653905391693
1771073085289022700,11.525022705078126,-0.13169321417808533,-0.4295675754547119,0.05352949723601341
1771073085298963200,11.534963134765626,-0.3404848873615265,-0.28682222962379456,-0.10306425392627716
1771073085308903700,11.544903564453126,-0.5695165991783142,-0.03861580789089203,-0.19361166656017303
1771073085318844200,11.55484423828125,-0.8123967051506042,0.204264298081398,-0.25326642394065857
1771073085328784600,11.56478466796875,-1.0265146493911743,0.35766226053237915,-0.3075948655605316
1771073085338725000,11.57472509765625,-1.1586073637008667,0.4205128252506256,-0.3555317521095276
1771073085348665600,11.58466552734375,-1.2140010595321655,0.41412124037742615,-0.38535910844802856
1771073085358606000,11.594606201171874,-1.206544280052185,0.37151068449020386,-0.38003280758857727
1771073085368546600,11.604546630859375,-1.152215838432312,0.32890015840530396,-0.3363569974899292
1771073085378487000,11.614487060546875,-1.0542114973068237,0.2671148478984833,-0.26285380125045776
1771073085388427500,11.624427490234375,-0.9231840968132019,0.19893798232078552,-0.15952323377132416
1771073085398368000,11.634367919921875,-0.7846998572349548,0.15206637978553772,-0.04767054691910744
1771073085408308500,11.64430859375,-0.6536723971366882,0.1478053331375122,0.05352949723601341
1771073085418248700,11.654248779296875,-0.54181969165802,0.17976324260234833,0.1525990217924118
1771073085428189200,11.664189208984375,-0.46512073278427124,0.21598219871520996,0.24101589620113373
1771073085438129700,11.674129638671875,-0.4299670457839966,0.251135915517807,0.3134538233280182
1771073085448070100,11.684070068359375,-0.42251017689704895,0.2745717167854309,0.35393384099006653
1771073085458010600,11.6940107421875,-0.42144492268562317,0.27776750922203064,0.36671701073646545
1771073085467951000,11.703951171875,-0.4193144142627716,0.2649843394756317,0.3656517565250397
1771073085477891600,11.7138916015625,-0.42251017689704895,0.2287653684616089,0.34328120946884155
1771073085487832000,11.72383203125,-0.4374238848686218,0.15632744133472443,0.2878875136375427
1771073085497772500,11.7337724609375,-0.45553335547447205,0.0540621280670166,0.20799273252487183
1771073085507713000,11.743713134765626,-0.46512073278427124,-0.05779055133461952,0.13235901296138763
1771073085517653500,11.753653564453124,-0.466185986995697,-0.15686006844043732,0.08761793375015259
1771073085527594000,11.763593994140624,-0.46405547857284546,-0.22503694891929626,0.08442214131355286
1771073085537534500,11.773534423828124,-0.4704470634460449,-0.25806012749671936,0.11424952745437622
1771073085547475000,11.783474853515624,-0.4853607416152954,-0.25379905104637146,0.1579253375530243
1771073085557415400,11.79341552734375,-0.5056007504463196,-0.21544957160949707,0.1952095627784729
1771073085567356000,11.80335595703125,-0.5375586748123169,-0.1664474457502365,0.18668745458126068
1771073085577296400,11.81329638671875,-0.5716471076011658,-0.12064110487699509,0.11851058155298233
1771073085587236900,11.82323681640625,-0.5929523706436157,-0.07803056389093399,0.0034621069207787514
1771073085597177300,11.83317724609375,-0.5982787013053894,-0.03009369783103466,-0.1339569091796875
1771073085607117800,11.843117919921875,-0.587626039981842,0.019973693415522575,-0.27670222520828247
1771073085617058300,11.853058349609375,-0.5631250143051147,0.04127896577119827,-0.3981422781944275
1771073085626998800,11.862998779296875,-0.5269060134887695,0.023169483989477158,-0.4769718050956726
1771073085636939300,11.872939208984375,-0.48749127984046936,-0.015180006623268127,-0.49827706813812256
1771073085646879500,11.88287939453125,-0.4395544230937958,-0.07163897901773453,-0.4727107286453247
1771073085656820000,11.892820068359375,-0.3873564898967743,-0.16005586087703705,-0.4162517786026001
1771073085666760400,11.902760498046876,-0.3394196331501007,-0.27403905987739563,-0.3448790907859802
1771073085676701000,11.912700927734376,-0.2925480306148529,-0.38163068890571594,-0.261788547039032
1771073085686641400,11.922641357421876,-0.24035011231899261,-0.4593949317932129,-0.1669800728559494
1771073085696582000,11.932581787109376,-0.18389113247394562,-0.49987494945526123,-0.04980107396841049
1771073085706522400,11.9425224609375,-0.11784479022026062,-0.4764391779899597,0.08335687965154648
1771073085716462800,11.952462890625,-0.023036325350403786,-0.34328120946884155,0.21651484072208405
1771073085726403300,11.9624033203125,0.10266478359699249,-0.10679268091917038,0.3326285779476166
1771073085736343800,11.97234375,0.2006690353155136,0.08388951420783997,0.37630438804626465
1771073085746284300,11.9822841796875,0.21238693594932556,0.10412952303886414,0.3166496157646179
1771073085756224800,11.992224853515625,0.14634059369564056,0.015712639316916466,0.16964323818683624
1771073085766165200,12.002165283203125,0.03129211813211441,-0.13342426717281342,-0.029561065137386322
1771073085776105700,12.012105712890625,-0.10719215124845505,-0.26764747500419617,-0.21278640627861023
1771073085786046200,12.022046142578125,-0.2275669425725937,-0.35393384099006653,-0.33422645926475525
1771073085795986700,12.031986572265625,-0.3117227852344513,-0.40080544352531433,-0.3779022693634033
1771073085815867600,12.05186767578125,-0.3585943877696991,-0.36778226494789124,-0.23196116089820862
1771073085825808100,12.06180810546875,-0.3074617087841034,-0.23568958044052124,-0.05299686640501022
1771073085835748600,12.07174853515625,-0.2041311413049698,-0.04713791608810425,0.16325165331363678
1771073085845689000,12.081689208984375,-0.059255290776491165,0.14993585646152496,0.3795001804828644
1771073085855629600,12.091629638671876,0.0834900364279747,0.2852243483066559,0.5478118062019348
1771073085865569800,12.10156982421875,0.19853851199150085,0.33955278992652893,0.6436855792999268
1771073085875510300,12.11151025390625,0.28269433975219727,0.3320959508419037,0.6639255881309509
1771073085885450800,12.12145068359375,0.3519364893436432,0.23515695333480835,0.60533607006073
1771073085895391200,12.13139111328125,0.3934817612171173,0.04554001986980438,0.48496127128601074
1771073085905331700,12.141331787109374,0.38282912969589233,-0.15472954511642456,0.33795487880706787
1771073085915272200,12.151272216796874,0.32530489563941956,-0.2996053993701935,0.19627483189105988
1771073085925212700,12.161212646484374,0.2347574681043625,-0.35819488763809204,0.0918789878487587
1771073085935153200,12.171153076171874,0.13142690062522888,-0.34860754013061523,0.019441060721874237
1771073085945093600,12.18109375,0.03981423005461693,-0.31558436155319214,-0.027430538088083267
1771073085955034000,12.1910341796875,-0.035819489508867264,-0.2836264371871948,-0.0636495053768158
1771073085964974600,12.200974609375,-0.09760478138923645,-0.2559295892715454,-0.09773793816566467
1771073085974915000,12.2109150390625,-0.1380847990512848,-0.228232741355896,-0.12543480098247528
1771073085984855600,12.22085546875,-0.15406376123428345,-0.19307903945446014,-0.14247901737689972
1771073085994796000,12.230796142578125,-0.15086796879768372,-0.14727269113063812,-0.14567480981349945
1771073086004736500,12.240736572265625,-0.1327584832906723,-0.08868319541215897,-0.1339569091796875
1771073086014677000,12.250677001953125,-0.09867004305124283,-0.010918952524662018,-0.09986846894025803
1771073086024617500,12.260617431640625,-0.052863709628582,0.07643266767263412,-0.04554001986980438
1771073086034558000,12.270557861328125,0.0003994738799519837,0.14247901737689972,0.019441060721874237
1771073086044498400,12.28049853515625,0.06325002759695053,0.17869797348976135,0.08761793375015259
1771073086054439000,12.29043896484375,0.13355742394924164,0.18295903503894806,0.15153375267982483
1771073086064379400,12.30037939453125,0.1964079886674881,0.16804534196853638,0.18775272369384766
1771073086074320000,12.31031982421875,0.2518016993999481,0.14567480981349945,0.19414429366588593
1771073086084260400,12.32026025390625,0.3093259334564209,0.12756532430648804,0.1771000772714615
1771073086094200600,12.33020068359375,0.37217649817466736,0.10945583879947662,0.15472954511642456
1771073086104141000,12.34014111328125,0.43289652466773987,0.09241162240505219,0.15899059176445007
1771073086114081500,12.35008154296875,0.4648544192314148,0.09347688406705856,0.19627483189105988
1771073086124022000,12.36002197265625,0.47657233476638794,0.10626004636287689,0.2527337968349457
1771073086133962500,12.36996240234375,0.463789165019989,0.11691268533468246,0.31132328510284424
1771073086143903000,12.379903076171875,0.43502703309059143,0.10626004636287689,0.3549990952014923
1771073086153843500,12.389843505859375,0.39241650700569153,0.06897582113742828,0.3731085956096649
1771073086163784000,12.399783935546875,0.3370227813720703,0.015712639316916466,0.35712963342666626
1771073086173724400,12.409724365234375,0.2677806615829468,-0.048203181475400925,0.31558436155319214
