time,seconds_elapsed,z,y,x
1771073176094343400,0.098343505859375,0,0,0
1771073176104279800,0.10827978515625,-0.32932090759277344,-0.12026572227478027,-0.1509310007095337
1771073176114216400,0.118216552734375,-0.589381217956543,-0.07635855674743652,-0.3429184556007385
1771073176124153600,0.128153564453125,-0.13765335083007812,0.20344257354736328,-0.33055615425109863
1771073176144029400,0.148029541015625,0.7156410217285156,0.4739704132080078,0.20716160535812378
1771073176153968400,0.157968505859375,0.44030284881591797,0.4887421131134033,0.5844991207122803
1771073176163907800,0.167907958984375,0.06320858001708984,0.4632432460784912,0.673619270324707
1771073176173848300,0.177848388671875,-0.37475013732910156,0.3804647922515869,0.4821738004684448
1771073176183789300,0.187789306640625,-0.9715032577514648,0.16194677352905273,-0.002300441265106201
1771073176193731000,0.19773095703125,-0.9793071746826172,-0.05643963813781738,-0.5818592309951782
1771073176203673300,0.20767333984375,-0.7529878616333008,-0.15231943130493164,-0.7530545592308044
1771073176213615900,0.217615966796875,-0.34219932556152344,-0.1342618465423584,-0.6026453375816345
1771073176223559000,0.227558837890625,0.005222320556640625,-0.14690423011779785,-0.3900349736213684
1771073176233502200,0.237502197265625,0.08357524871826172,-0.10928535461425781,-0.16805905103683472
1771073176243445800,0.24744580078125,0.4650096893310547,0.04417920112609863,0.036045849323272705
1771073176253388800,0.257388916015625,0.7638931274414062,0.14069676399230957,0.1418609619140625
1771073176263329000,0.2673291015625,0.722752571105957,0.2007579803466797,0.22846347093582153
1771073176273269200,0.277269287109375,0.4766559600830078,0.13985466957092285,0.2006261944770813
1771073176283209700,0.287209716796875,0.3225593566894531,0.03199505805969238,0.1356678009033203
1771073176293150000,0.29714990234375,0.4240427017211914,-0.006171703338623047,0.09351015090942383
1771073176303090400,0.30709033203125,0.6541824340820312,-0.007925987243652344,0.06713676452636719
1771073176313030700,0.31703076171875,0.6930742263793945,-0.05261397361755371,-0.008683741092681885
1771073176322971000,0.326970947265625,0.5926504135131836,-0.07744574546813965,-0.06980699300765991
1771073176332911400,0.336911376953125,0.3302583694458008,-0.1002187728881836,-0.13360249996185303
1771073176342851600,0.3468515625,-0.07116222381591797,-0.14989352226257324,-0.2008417248725891
1771073176352791800,0.356791748046875,-0.4108419418334961,-0.17892765998840332,-0.23581427335739136
1771073176362732300,0.366732177734375,-0.4667673110961914,-0.20055556297302246,-0.21839189529418945
1771073176372672500,0.376672607421875,-0.4917774200439453,-0.2211146354675293,-0.17657595872879028
1771073176382612700,0.38661279296875,-0.6467437744140625,-0.19883513450622559,-0.13445663452148438
1771073176392553200,0.39655322265625,-0.7310857772827148,-0.09056377410888672,-0.037363648414611816
1771073176402493400,0.406493408203125,-0.7103462219238281,0.10251879692077637,0.14819711446762085
1771073176412433700,0.41643359375,-0.5785236358642578,0.281571626663208,0.36029052734375
1771073176422374100,0.4263740234375,-0.5221481323242188,0.41724514961242676,0.5716885328292847
1771073176432314400,0.436314453125,-0.5020160675048828,0.4745354652404785,0.6680530309677124
1771073176442254600,0.446254638671875,-0.5547771453857422,0.6055078506469727,0.7440364360809326
1771073176452195000,0.456195068359375,-0.6882658004760742,0.6807959079742432,0.6405499577522278
1771073176462135300,0.46613525390625,-0.8071689605712891,0.6125962734222412,0.41285425424575806
1771073176472075500,0.476075439453125,-0.7993831634521484,0.4280858039855957,0.19467905163764954
1771073176482016000,0.48601611328125,-0.9034061431884766,0.17789626121520996,-0.021525979042053223
1771073176491956200,0.495956298828125,-0.836517333984375,-0.017123937606811523,-0.24935382604599
1771073176501896400,0.505896484375,-0.6937398910522461,-0.044493675231933594,-0.35087019205093384
1771073176511837000,0.5158369140625,-0.6142253875732422,0.020039796829223633,-0.37458229064941406
1771073176521777200,0.525777099609375,-0.38046741485595703,0.12969756126403809,-0.32529985904693604
1771073176531717400,0.53571728515625,-0.11917877197265625,0.26320791244506836,-0.281859815120697
1771073176541657900,0.545657958984375,0.2775449752807617,0.36969661712646484,-0.22653591632843018
1771073176551598000,0.55559814453125,0.8387079238891602,0.3489241600036621,-0.09543102979660034
1771073176561538600,0.56553857421875,1.273818016052246,0.06861257553100586,-0.010743916034698486
1771073176571478800,0.575478759765625,1.745530128479004,-0.34639453887939453,0.07871279120445251
1771073176581419000,0.5854189453125,1.9667787551879883,-0.6339032649993896,0.0775730311870575
1771073176591359500,0.595359375,1.967921257019043,-0.6659135818481445,-0.18520587682724
1771073176601299700,0.6052998046875,1.6986608505249023,-0.4322826862335205,-0.41446399688720703
1771073176611240000,0.615239990234375,1.215139389038086,-0.07095956802368164,-0.5415574908256531
1771073176621180400,0.625180419921875,0.11185646057128906,0.6515066623687744,-0.14469438791275024
1771073176631120600,0.63512060546875,0.5538053512573242,0.6456015110015869,0.1188555359840393
1771073176641060900,0.645060791015625,0.23019790649414062,0.6728436946868896,0.2064242959022522
1771073176651001300,0.65500146484375,-0.35628795623779297,0.7986583709716797,0.411592036485672
1771073176660941600,0.664941650390625,-0.4268770217895508,0.7293503284454346,0.4596205949783325
1771073176670881800,0.6748818359375,-0.6179838180541992,0.7338578701019287,0.5527090430259705
1771073176680822300,0.684822265625,-0.7556915283203125,0.7113780975341797,0.6543870568275452
1771073176690762500,0.694762451171875,-0.8997297286987305,0.7186205387115479,0.7627056837081909
1771073176700702700,0.70470263671875,-1.1727638244628906,0.6940114498138428,0.7654753923416138
1771073176710643200,0.714643310546875,-1.2642502784729004,0.649785041809082,0.6474850177764893
1771073176720583400,0.72458349609375,-1.4550604820251465,0.5182974338531494,0.6016290187835693
1771073176730523600,0.734523681640625,-1.581343650817871,0.3022491931915283,0.41222506761550903
1771073176740464000,0.744464111328125,-1.821216106414795,0.12075376510620117,0.19914883375167847
1771073176750404400,0.754404296875,-2.174208641052246,0.031475067138671875,-0.04970216751098633
1771073176760344600,0.764344482421875,-2.33803129196167,0.01641702651977539,-0.14621752500534058
1771073176770285000,0.77428515625,-2.335106372833252,0.0058057308197021484,0.042088449001312256
1771073176780225300,0.784225341796875,-1.9747514724731445,0.05641651153564453,0.3528482913970947
1771073176790165500,0.79416552734375,-1.1244659423828125,-0.03420901298522949,0.5440733432769775
1771073176800106000,0.80410595703125,-0.6776561737060547,-0.3658263683319092,0.601643443107605
1771073176810046200,0.814046142578125,-0.210693359375,-0.9013409614562988,0.35090622305870056
1771073176829927000,0.833927001953125,0.38218116760253906,-1.4186279773712158,-0.07615095376968384
1771073176839867100,0.8438671875,0.054833412170410156,-1.2974278926849365,-0.1738768219947815
1771073176849807600,0.8538076171875,-0.2116680145263672,-0.8714206218719482,-0.21440201997756958
1771073176859747800,0.863747802734375,-0.35058021545410156,-0.20266127586364746,-0.05919063091278076
1771073176869688000,0.87368798828125,0.11075496673583984,0.6149263381958008,0.6014872193336487
1771073176879628500,0.883628662109375,1.1614360809326172,1.319643259048462,1.5068415403366089
1771073176889568800,0.89356884765625,2.122572898864746,1.4900000095367432,2.0821518898010254
1771073176899509000,0.903509033203125,3.462956428527832,1.2257897853851318,2.3400051593780518
1771073176909449500,0.913449462890625,5.074981689453125,0.752232551574707,2.3435170650482178
1771073176919389700,0.9233896484375,6.286691665649414,0.14605927467346191,2.066920757293701
1771073176929330700,0.93333056640625,6.872589111328125,-0.5412030220031738,1.5486233234405518
1771073176939271400,0.943271484375,7.046250343322754,-1.2210708856582642,0.8077924251556396
1771073176949212000,0.9532119140625,6.696189880371094,-1.6690502166748047,0.16834962368011475
1771073176959152000,0.963152099609375,5.798556327819824,-1.8234994411468506,-0.11761969327926636
1771073176969092600,0.973092529296875,4.593842506408691,-1.769922137260437,-0.20255887508392334
1771073176979032800,0.98303271484375,3.3054819107055664,-1.6049555540084839,-0.09044033288955688
1771073176988973000,0.99297314453125,2.1284713745117188,-1.2623019218444824,0.2660392224788666
1771073176998913500,1.00291357421875,1.2728080749511719,-0.7424135208129883,0.6721442937850952
1771073177008853800,1.012853759765625,0.6249217987060547,-0.2582283020019531,0.9522666931152344
1771073177018794000,1.0227939453125,0.09867095947265625,0.12441706657409668,1.1266976594924927
1771073177028734500,1.032734375,-0.2963380813598633,0.40990281105041504,1.1930999755859375
1771073177038674700,1.0426748046875,-0.5839748382568359,0.5823962688446045,1.1698228120803833
1771073177048615000,1.052614990234375,-0.8517560958862305,0.687739372253418,1.1181764602661133
1771073177058555400,1.062555419921875,-1.1290349960327148,0.7157745361328125,1.0876612663269043
1771073177068495600,1.07249560546875,-1.356675148010254,0.716888427734375,1.0743167400360107
1771073177078435800,1.082435791015625,-0.688075065612793,0.8105261325836182,1.0376712083816528
1771073177088376300,1.092376220703125,0.7797727584838867,0.8360745906829834,0.9327787160873413
1771073177098316500,1.102316650390625,1.5811758041381836,0.5748794078826904,0.7221410870552063
1771073177108256800,1.1122568359375,1.482956886291504,0.1773366928100586,0.5588403940200806
1771073177118197200,1.122197265625,0.8899726867675781,-0.09505319595336914,0.27919232845306396
1771073177128137500,1.132137451171875,-0.0208282470703125,-0.20898032188415527,-0.17678195238113403
1771073177138077700,1.14207763671875,-0.9964199066162109,-0.2949950695037842,-0.6794877648353577
1771073177148018200,1.15201806640625,-1.8855838775634766,-0.2975807189941406,-0.9323758482933044
1771073177157958400,1.16195849609375,-2.4175024032592773,-0.16358590126037598,-0.8260185718536377
1771073177167898600,1.171898681640625,-2.63870906829834,0.015357732772827148,-0.6413787007331848
1771073177177839000,1.181839111328125,-2.6895642280578613,0.10575675964355469,-0.5736156105995178
1771073177187779300,1.191779296875,-2.73264217376709,0.11892294883728027,-0.47248560190200806
1771073177197719800,1.2017197265625,-2.8203368186950684,0.11754989624023438,-0.32987627387046814
1771073177207660000,1.211659912109375,-2.867159366607666,0.06494402885437012,-0.23351380228996277
1771073177217600300,1.221600341796875,-2.9589967727661133,-0.12838125228881836,-0.2431822568178177
1771073177227540700,1.231540771484375,-2.834048271179199,-0.3892258405685425,-0.1947302520275116
1771073177237481000,1.24148095703125,-2.631199359893799,-0.551643967628479,-0.15320390462875366
1771073177247421200,1.251421142578125,-2.599745273590088,-0.7219024896621704,-0.185481458902359
1771073177257361700,1.261361572265625,-2.7829437255859375,-0.9119767546653748,-0.24380917847156525
1771073177267302000,1.271302001953125,-3.0695133209228516,-1.1497604846954346,-0.20505836606025696
1771073177277242000,1.2812421875,-3.294731616973877,-1.3644707202911377,0.08513064682483673
1771073177287182600,1.2911826171875,-3.2029666900634766,-1.3865216970443726,0.554108202457428
1771073177297122800,1.301122802734375,-2.6119041442871094,-1.2488254308700562,0.9398133754730225
1771073177307063000,1.31106298828125,-1.7536301612854004,-1.1937183141708374,0.8781214356422424
1771073177317003500,1.32100341796875,-0.9982204437255859,-1.3536410331726074,0.37827250361442566
1771073177326943700,1.33094384765625,-0.31134605407714844,-1.6090914011001587,-0.07067170739173889
1771073177336884000,1.340884033203125,0.4788064956665039,-1.9772757291793823,-0.5358575582504272
1771073177346824400,1.350824462890625,1.2743721008300781,-2.4758284091949463,-1.0241131782531738
1771073177356764700,1.3607646484375,2.0642547607421875,-2.855250835418701,-1.4312950372695923
1771073177366705000,1.370704833984375,2.1296310424804688,-2.8236656188964844,-1.64666748046875
1771073177376645400,1.380645263671875,1.8042020797729492,-2.304696559906006,-1.8232148885726929
1771073177386585600,1.390585693359375,1.2633657455444336,-1.4284319877624512,-2.023146152496338
1771073177396525800,1.40052587890625,0.39969921112060547,-0.20105242729187012,-2.2222325801849365
1771073177406466300,1.41046630859375,-0.22008037567138672,1.0538222789764404,-2.235849142074585
1771073177416406500,1.420406494140625,0.45589351654052734,1.9310567378997803,-1.9290189743041992
1771073177426346800,1.4303466796875,2.322500228881836,2.0704264640808105,-1.4601913690567017
1771073177436287200,1.440287353515625,4.4644622802734375,1.4436635971069336,-0.8723995089530945
1771073177446227500,1.4502275390625,5.308108329772949,0.5202665328979492,-0.3937924802303314
1771073177456168000,1.46016796875,5.018501281738281,-0.09607195854187012,-0.06910371780395508
1771073177466108200,1.470108154296875,4.14460563659668,-0.1680927276611328,-0.4454158544540405
1771073177476048400,1.48004833984375,3.0779037475585938,-0.03773188591003418,-1.4420301914215088
1771073177485988900,1.48998876953125,2.6020240783691406,0.11120176315307617,-2.063323974609375
1771073177495929000,1.49992919921875,2.638795852661133,0.02406167984008789,-2.1360292434692383
1771073177505869300,1.509869384765625,2.9867334365844727,-0.25211405754089355,-1.8472840785980225
1771073177515809800,1.519809814453125,2.925766944885254,-0.4665088653564453,-1.2749860286712646
1771073177525750000,1.52975,2.3310632705688477,-0.6017502546310425,-0.7799550890922546
1771073177535690200,1.539690185546875,1.7121267318725586,-0.6527906656265259,-0.5378701686859131
1771073177545630700,1.549630615234375,1.2466554641723633,-0.7394211292266846,-0.514563262462616
1771073177555571000,1.559571044921875,0.8478002548217773,-1.0376921892166138,-0.5871411561965942
1771073177565511200,1.56951123046875,0.44336795806884766,-1.487067699432373,-0.6526185274124146
1771073177575451600,1.57945166015625,0.2401895523071289,-1.8122997283935547,-0.6326606273651123
1771073177585391900,1.589391845703125,0.04226112365722656,-1.9174754619598389,-0.6114225387573242
1771073177595332000,1.59933203125,-0.2618236541748047,-1.8695790767669678,-0.5468604564666748
1771073177605272600,1.6092724609375,-0.690180778503418,-1.6350070238113403,-0.4860442280769348
1771073177615212800,1.619212890625,-1.125136375427246,-1.3527382612228394,-0.36377018690109253
1771073177625153000,1.629153076171875,-1.5212993621826172,-1.1958796977996826,-0.2108047604560852
1771073177635093500,1.639093505859375,-1.97627592086792,-1.1438267230987549,-0.01672312617301941
1771073177645033700,1.64903369140625,-2.40883731842041,-1.1112139225006104,0.16853971779346466
1771073177654974000,1.658973876953125,-2.716702461242676,-1.085301160812378,0.32425105571746826
1771073177664914400,1.66891455078125,-2.9979071617126465,-1.1109567880630493,0.4030478298664093
1771073177674854700,1.678854736328125,-3.211954116821289,-1.1795010566711426,0.4888646900653839
1771073177684795000,1.688794921875,-3.337582588195801,-1.2180622816085815,0.6369167566299438
1771073177694735400,1.6987353515625,-3.3940935134887695,-1.2966663837432861,0.8108624219894409
1771073177704675600,1.708675537109375,-3.429380416870117,-1.3696906566619873,1.019168734550476
1771073177714615800,1.71861572265625,-3.457897186279297,-1.4243190288543701,1.1865731477737427
1771073177724556300,1.728556396484375,-3.6108713150024414,-1.461316466331482,1.3615376949310303
1771073177734496500,1.73849658203125,-3.7641563415527344,-1.5625958442687988,1.4748862981796265
1771073177744437000,1.74843701171875,-3.93922758102417,-1.7396292686462402,1.4762983322143555
1771073177754377200,1.758377197265625,-4.247974395751953,-1.9460936784744263,1.364253044128418
1771073177764317400,1.7683173828125,-4.456813335418701,-2.089386463165283,1.318861484527588
1771073177774258000,1.7782578125,-4.490668296813965,-2.096266508102417,1.3594423532485962
1771073177784198100,1.7881982421875,-4.370102882385254,-2.0915801525115967,1.4663783311843872
1771073177794138400,1.798138427734375,-3.9988884925842285,-2.0235402584075928,1.832127571105957
1771073177804078800,1.808078857421875,-3.1647582054138184,-1.873436450958252,2.3608851432800293
1771073177814019000,1.81801904296875,-1.6870512962341309,-1.836114764213562,2.743129253387451
1771073177823959600,1.82795947265625,0.7005891799926758,-1.8256736993789673,2.7012503147125244
1771073177833899800,1.837899658203125,4.026505470275879,-1.5185494422912598,1.442314863204956
1771073177843840300,1.84784033203125,6.6674299240112305,-1.1746448278427124,-0.22849524021148682
1771073177853780500,1.857780517578125,7.494384765625,-1.2454406023025513,-0.745934009552002
1771073177863721000,1.867720947265625,5.613187789916992,-1.064008355140686,0.8550218343734741
1771073177873661200,1.8776611328125,2.8436927795410156,-0.18301677703857422,3.1649701595306396
1771073177883601700,1.8876015625,0.6490259170532227,1.3508050441741943,4.40132474899292
1771073177893542000,1.8975419921875,-0.4073152542114258,2.627153158187866,4.061856269836426
1771073177903482400,1.907482421875,-0.7069072723388672,2.6518380641937256,2.9511003494262695
1771073177913422600,1.917422607421875,0.03244495391845703,1.2744977474212646,1.931343913078308
1771073177923363000,1.927363037109375,1.7479753494262695,-0.6835700273513794,1.584962248802185
1771073177933303600,1.937303466796875,3.4384021759033203,-2.194267511367798,1.3092883825302124
1771073177943243800,1.947243896484375,4.995077133178711,-2.9266223907470703,0.632597029209137
1771073177953184300,1.957184326171875,6.52070426940918,-2.9386141300201416,-0.1193113848567009
1771073177963124500,1.96712451171875,7.279932022094727,-2.632293224334717,-0.5957403182983398
1771073177973065000,1.97706494140625,6.750859260559082,-2.2843165397644043,-0.6881219744682312
1771073177983005200,1.987005126953125,5.074040412902832,-1.9126394987106323,-0.6191608309745789
1771073177992945700,1.996945556640625,2.835606575012207,-1.2977445125579834,-0.612211287021637
1771073178002886000,2.006885986328125,0.7827672958374023,-0.5408971309661865,-0.8183601498603821
1771073178012826400,2.016826416015625,-0.6761684417724609,0.12729310989379883,-0.9732427597045898
1771073178022766600,2.0267666015625,-1.469289779663086,0.7373988628387451,-0.5490334033966064
1771073178032707000,2.03670703125,-1.4521846771240234,1.2568762302398682,0.30221420526504517
1771073178042647600,2.0466474609375,-0.8566884994506836,1.6566994190216064,1.1147522926330566
1771073178052587800,2.056587890625,-0.12984466552734375,1.8214635848999023,1.367218017578125
1771073178062528300,2.0665283203125,0.4071788787841797,1.6119738817214966,1.1273589134216309
1771073178072468500,2.076468505859375,0.5013389587402344,1.1495490074157715,0.6772489547729492
1771073178082409000,2.086408935546875,0.11005210876464844,0.5958149433135986,0.10451304912567139
1771073178092349200,2.09634912109375,-0.6424665451049805,0.17348253726959229,-0.49445733428001404
1771073178102289700,2.10628955078125,-1.5137548446655273,0.008654475212097168,-0.9514931440353394
1771073178112230000,2.11622998046875,-2.462827682495117,0.029979348182678223,-1.2533116340637207
1771073178122170400,2.12617041015625,-3.3562211990356445,0.04838824272155762,-1.494645595550537
1771073178132110800,2.13611083984375,-4.139739036560059,-0.014806270599365234,-1.6534243822097778
1771073178142051000,2.146051025390625,-4.690199375152588,0.032420992851257324,-1.4858828783035278
1771073178151991300,2.1559912109375,-5.013721942901611,0.12610650062561035,-1.0561492443084717
1771073178161931800,2.165931884765625,-5.125726699829102,0.16596972942352295,-0.6382231116294861
1771073178171872000,2.1758720703125,-5.017324447631836,0.18353641033172607,-0.3964787721633911
1771073178181812200,2.185812255859375,-4.89638614654541,0.1740494966506958,-0.3210754692554474
1771073178191752700,2.195752685546875,-4.836415767669678,0.20248782634735107,-0.12664631009101868
1771073178201693000,2.20569287109375,-4.958534240722656,0.15627789497375488,0.5929579138755798
1771073178211633200,2.215633056640625,-5.085987567901611,0.21610772609710693,1.5800495147705078
1771073178221573600,2.22557373046875,-4.991015911102295,0.5852565765380859,2.2401607036590576
1771073178231513900,2.235513916015625,-4.778481483459473,0.9874440431594849,2.1529133319854736
1771073178241454000,2.2454541015625,-3.639632225036621,1.161845088005066,1.517791748046875
1771073178251394600,2.25539453125,-1.9070916175842285,0.8202427625656128,0.2511981725692749
1771073178261334800,2.265334716796875,0.6425018310546875,-0.12252938747406006,-1.7636531591415405
1771073178271275000,2.27527490234375,3.65875244140625,-1.2773849964141846,-3.9150218963623047
1771073178281215500,2.285215576171875,6.251743316650391,-2.5529961585998535,-5.3501434326171875
1771073178291155700,2.29515576171875,7.686124801635742,-3.283214569091797,-5.654294967651367
1771073178301096000,2.305095947265625,7.31795597076416,-2.9468414783477783,-5.310286521911621
1771073178311036400,2.315036376953125,5.249556541442871,-1.6643931865692139,-4.41652774810791
1771073178320976600,2.3249765625,3.336030960083008,-0.03972315788269043,-3.502265453338623
1771073178330916900,2.334916748046875,2.6767349243164062,1.2954955101013184,-2.572960138320923
1771073178340857300,2.344857421875,3.2154617309570312,1.9606151580810547,-1.9028205871582031
1771073178350797600,2.354797607421875,3.8426618576049805,1.825819969177246,-1.2702997922897339
1771073178360737800,2.36473779296875,3.8015546798706055,1.4761183261871338,-0.37479352951049805
1771073178370678300,2.37467822265625,3.1923131942749023,1.5425083637237549,0.534366250038147
1771073178380618500,2.384618408203125,2.3648815155029297,1.8175625801086426,1.0494873523712158
1771073178390559000,2.39455908203125,1.7166433334350586,1.8260831832885742,0.9697884321212769
1771073178400499200,2.404499267578125,1.7762184143066406,1.448779582977295,0.5485453605651855
1771073178410439400,2.414439453125,2.21933650970459,0.7486982345581055,-0.11860787868499756
1771073178420380000,2.4243798828125,2.464855194091797,-0.027209997177124023,-0.9207205772399902
1771073178430320000,2.434320068359375,2.4758787155151367,-0.6412725448608398,-1.911207914352417
1771073178440260400,2.44426025390625,2.193741798400879,-1.1575849056243896,-2.7944159507751465
1771073178450200800,2.454200927734375,1.7788715362548828,-1.583782434463501,-3.3653831481933594
1771073178460141000,2.46414111328125,1.1758804321289062,-1.9286689758300781,-3.630953311920166
1771073178470081300,2.474081298828125,0.3526420593261719,-2.174725294113159,-3.6265811920166016
1771073178480021800,2.484021728515625,-0.4299812316894531,-2.2318549156188965,-3.3481955528259277
1771073178489962000,2.4939619140625,-1.1052894592285156,-2.116044759750366,-2.899346113204956
1771073178499902200,2.503902099609375,-1.5852842330932617,-1.9088250398635864,-2.342501163482666
1771073178509842700,2.5138427734375,-1.913435935974121,-1.6110931634902954,-1.7512186765670776
1771073178519783000,2.523782958984375,-2.195014476776123,-1.2909603118896484,-1.1620962619781494
1771073178529723100,2.53372314453125,-2.3848133087158203,-0.9960697889328003,-0.5830841064453125
1771073178539663600,2.54366357421875,-2.2730913162231445,-0.6620593070983887,0.15921007096767426
1771073178549603800,2.553603759765625,-2.263965606689453,-0.4018375873565674,1.0131456851959229
1771073178559544000,2.5635439453125,-2.4812965393066406,-0.27065110206604004,1.8514199256896973
1771073178569484500,2.573484619140625,-2.7271833419799805,-0.2503082752227783,2.421942710876465
1771073178579424800,2.5834248046875,-2.745009422302246,-0.4127756357192993,2.5655357837677
1771073178589365000,2.593364990234375,-2.5314083099365234,-0.7688161134719849,2.3136510848999023
1771073178599305500,2.603305419921875,-2.1683006286621094,-1.2231736183166504,1.888974905014038
1771073178609245700,2.61324560546875,-1.7727675437927246,-1.773808479309082,1.4764772653579712
1771073178619186000,2.62318603515625,-1.272994041442871,-2.371589183807373,1.0697144269943237
1771073178629126400,2.63312646484375,-1.1004819869995117,-2.94685697555542,0.8339265584945679
1771073178639066600,2.643066650390625,-1.3252954483032227,-3.4055442810058594,0.8182966113090515
1771073178649007000,2.653007080078125,-1.8076329231262207,-3.488518238067627,0.8872021436691284
1771073178658947300,2.662947265625,-2.3344950675964355,-3.255570411682129,0.9451482892036438
1771073178668887600,2.672887451171875,-2.732076644897461,-2.958826780319214,1.0918861627578735
1771073178678828000,2.682828125,-2.538609027862549,-2.593541383743286,1.2065621614456177
1771073178688768300,2.692768310546875,-1.6420273780822754,-2.15498423576355,0.9048388004302979
1771073178698708500,2.70270849609375,-0.5118284225463867,-1.6469590663909912,0.6838808059692383
1771073178708649000,2.71264892578125,0.353363037109375,-0.9827346801757812,1.222927212715149
1771073178718589200,2.722589111328125,0.8398923873901367,-0.13117694854736328,2.355783224105835
1771073178728529400,2.732529296875,1.232229232788086,0.7391469478607178,3.311084747314453
1771073178738470000,2.742469970703125,1.7514533996582031,1.7003216743469238,3.833333730697632
1771073178748410000,2.75241015625,2.423903465270996,2.3831586837768555,3.7889885902404785
1771073178758350300,2.762350341796875,3.1349668502807617,1.9112939834594727,2.9001059532165527
1771073178768290800,2.772290771484375,3.710179328918457,0.6299622058868408,2.0269906520843506
1771073178778231000,2.78223095703125,4.387304306030273,-0.6327226161956787,1.5824425220489502
1771073178788171300,2.792171142578125,4.709690093994141,-1.5427577495574951,1.0797330141067505
1771073178798111700,2.80211181640625,4.636944770812988,-1.884637475013733,0.6799724102020264
1771073178808052000,2.812052001953125,4.225460052490234,-1.6607117652893066,0.497771292924881
1771073178817992200,2.8219921875,3.92185115814209,-1.1586498022079468,0.4518408477306366
1771073178827932700,2.8319326171875,3.6916894912719727,-0.7295560836791992,0.5696372985839844
1771073178837873000,2.841872802734375,3.6869277954101562,-0.34204399585723877,0.7859271168708801
1771073178847813000,2.851813232421875,3.63248348236084,-0.0978248119354248,0.6281443238258362
1771073178857753600,2.861753662109375,3.2496299743652344,-0.0007383823394775391,0.06910053640604019
1771073178867693800,2.87169384765625,2.7929067611694336,0.24219584465026855,-0.48988741636276245
1771073178877634000,2.881634033203125,2.150848388671875,0.7130674123764038,-0.7170118093490601
1771073178887574500,2.891574462890625,1.3555231094360352,1.0803143978118896,-0.567825436592102
1771073178897514800,2.9015146484375,0.6465377807617188,0.8981631994247437,-0.5656777620315552
1771073178907455000,2.911455078125,0.18206024169921875,0.5563675165176392,-1.0353615283966064
1771073178917395500,2.9213955078125,-0.025423049926757812,0.405176043510437,-1.4112728834152222
1771073178927335700,2.931335693359375,-0.7322835922241211,0.30344462394714355,-1.4518885612487793
1771073178937276200,2.941276123046875,-1.7390937805175781,0.049939751625061035,-1.3639203310012817
1771073178947216400,2.95121630859375,-2.5634474754333496,0.018346309661865234,-1.0448968410491943
1771073178957156600,2.961156494140625,-2.9007468223571777,0.053034424781799316,-0.7447487115859985
1771073178967097000,2.97109716796875,-3.4729714393615723,0.07022392749786377,-0.4293658137321472
1771073178977037300,2.981037353515625,-4.355820655822754,0.02138388156890869,-0.031474947929382324
1771073178986977500,2.9909775390625,-5.369782447814941,-0.04924595355987549,0.39725416898727417
1771073178996918000,3.00091796875,-6.462601661682129,-0.16322696208953857,0.7482321858406067
1771073179006858200,3.010858154296875,-7.329809188842773,-0.16297709941864014,1.0078294277191162
1771073179016798500,3.020798583984375,-7.620748043060303,-0.06298434734344482,1.3271102905273438
1771073179026739000,3.030739013671875,-6.525094985961914,0.26156294345855713,1.4777705669403076
1771073179036679200,3.04067919921875,-4.304165840148926,0.5440675020217896,1.366215705871582
1771073179046619400,3.050619384765625,-2.4936652183532715,0.44758784770965576,1.1365444660186768
1771073179056559900,3.060559814453125,-1.9197802543640137,-0.17418479919433594,0.33972641825675964
1771073179066500000,3.0705,-0.7068643569946289,-0.6514725685119629,-0.3872160315513611
1771073179076440300,3.0804404296875,1.2752933502197266,-1.1890087127685547,-0.9681721329689026
1771073179086380800,3.090380859375,1.8754711151123047,-2.0043601989746094,-1.6345608234405518
1771073179106261200,3.11026123046875,1.1963005065917969,-3.108548641204834,-3.4703264236450195
1771073179116201700,3.12020166015625,0.5228261947631836,-2.6250557899475098,-4.234992027282715
1771073179126142000,3.130141845703125,-0.07889556884765625,-1.7740716934204102,-4.443313121795654
1771073179136082200,3.140082275390625,-0.2963142395019531,-0.6137317419052124,-4.21633768081665
1771073179146022700,3.150022705078125,-0.4341392517089844,0.8649294376373291,-3.623929500579834
1771073179155963000,3.159962890625,0.09805870056152344,2.420095920562744,-2.460055351257324
1771073179165903000,3.169903076171875,2.1627235412597656,3.198157548904419,-1.3027435541152954
1771073179175843600,3.179843505859375,4.348028182983398,2.9143154621124268,-0.1565079689025879
1771073179185783800,3.18978369140625,4.590757369995117,1.9442155361175537,0.4075024724006653
1771073179195724300,3.199724365234375,4.003661155700684,1.014427900314331,0.6343643665313721
1771073179205664500,3.20966455078125,3.389179229736328,0.5328691005706787,0.6444597244262695
1771073179215604700,3.219604736328125,2.654900550842285,0.3775210380554199,0.4450603425502777
1771073179225545200,3.229545166015625,2.0372419357299805,0.40242505073547363,0.038172781467437744
1771073179235485400,3.2394853515625,2.2981443405151367,0.5322213172912598,-0.5933523774147034
1771073179245425700,3.24942578125,2.6413612365722656,0.5689451694488525,-1.2404911518096924
1771073179255366100,3.2593662109375,3.077572822570801,0.5543985366821289,-1.5018140077590942
1771073179265306400,3.269306396484375,3.7826099395751953,0.4511144161224365,-1.5531930923461914
1771073179275246600,3.27924658203125,4.332977294921875,0.15517520904541016,-1.584818959236145
1771073179285187000,3.28918701171875,4.527931213378906,-0.26724791526794434,-1.6816215515136719
1771073179295127300,3.299127197265625,4.365036964416504,-0.7926141023635864,-1.9339463710784912
1771073179305067500,3.309067626953125,3.853440284729004,-1.2755597829818726,-2.2667932510375977
1771073179315008000,3.319008056640625,2.8846349716186523,-1.5740644931793213,-2.395540952682495
1771073179324948200,3.3289482421875,1.5884990692138672,-1.642199993133545,-2.193956136703491
1771073179334888700,3.338888671875,0.2898988723754883,-1.5770248174667358,-1.83072829246521
1771073179344829000,3.348828857421875,-0.8852634429931641,-1.4933221340179443,-1.4068708419799805
1771073179354769400,3.358769287109375,-2.0381155014038086,-1.309596300125122,-0.8243231177330017
1771073179364709600,3.368709716796875,-3.090644359588623,-1.0465056896209717,-0.17001277208328247
1771073179374650000,3.378650146484375,-4.019801139831543,-0.8010749816894531,0.4758169949054718
1771073179384590600,3.388590576171875,-4.7524542808532715,-0.7206592559814453,1.0279203653335571
1771073179394530800,3.39853076171875,-5.373072147369385,-0.8654338121414185,1.5241246223449707
1771073179404471300,3.40847119140625,-5.858643531799316,-1.128714919090271,2.0544426441192627
1771073179414411500,3.41841162109375,-6.155365943908691,-1.2794115543365479,2.481355905532837
1771073179424352000,3.42835205078125,-6.0518999099731445,-1.3087131977081299,2.7201247215270996
1771073179434292200,3.438292236328125,-5.558913707733154,-1.393144130706787,2.7321276664733887
1771073179444232700,3.448232666015625,-4.9131340980529785,-1.6435377597808838,2.5278401374816895
1771073179454173000,3.4581728515625,-4.126090049743652,-2.0258266925811768,2.212373733520508
1771073179464113400,3.468113525390625,-3.350325107574463,-2.341479778289795,1.8593732118606567
1771073179474053600,3.4780537109375,-2.65946102142334,-2.5253422260284424,1.593395471572876
1771073179483994000,3.487994140625,-2.009922981262207,-2.700637102127075,1.4730639457702637
1771073179493934600,3.4979345703125,-1.6094188690185547,-2.856377124786377,1.5700205564498901
1771073179503874800,3.507874755859375,-1.0093345642089844,-2.8167221546173096,1.8649845123291016
1771073179513815300,3.517815185546875,-0.012701988220214844,-2.3556535243988037,1.9005913734436035
1771073179523755500,3.527755615234375,0.9996376037597656,-1.3699156045913696,1.1917914152145386
1771073179533696000,3.537696044921875,1.7814579010009766,-0.2957472801208496,0.8316810727119446
1771073179543636200,3.54763623046875,2.344724655151367,0.7253727912902832,1.7964369058609009
1771073179553576700,3.55757666015625,3.171481132507324,1.744159460067749,3.701728343963623
1771073179563517000,3.567516845703125,4.706751823425293,2.6112146377563477,5.36241340637207
1771073179573457400,3.57745751953125,6.585745811462402,2.917656898498535,5.776177406311035
1771073179583397600,3.587397705078125,7.700757026672363,2.058624505996704,5.330806255340576
1771073179593338000,3.597338134765625,8.124743461608887,0.22453618049621582,4.3017730712890625
1771073179603278600,3.607278564453125,8.11797046661377,-1.6717073917388916,2.866332530975342
1771073179613218800,3.61721875,7.400693893432617,-3.052802562713623,1.1329454183578491
1771073179623159000,3.627158935546875,5.654029846191406,-3.6030468940734863,-0.4967353343963623
1771073179633099500,3.637099609375,3.722431182861328,-3.2740554809570312,-1.4559895992279053
1771073179643039700,3.647039794921875,1.7782363891601562,-2.348015069961548,-1.8300426006317139
1771073179652980200,3.656980224609375,-0.4731922149658203,-1.1417783498764038,-1.8839603662490845
1771073179662920400,3.66692041015625,-2.6844005584716797,0.1519920825958252,-1.5727753639221191
1771073179672860700,3.676860595703125,-4.344015598297119,1.1778318881988525,-1.1044600009918213
1771073179682801200,3.68680126953125,-5.207922458648682,1.754131555557251,-0.6709693670272827
1771073179692741400,3.696741455078125,-5.059118747711182,1.8031299114227295,-0.5374628305435181
1771073179702681600,3.706681640625,-3.7325549125671387,1.3053414821624756,-0.6878445148468018
1771073179712622000,3.7166220703125,-2.374877452850342,0.7579187154769897,-0.6546905040740967
1771073179722562300,3.726562255859375,-0.8051862716674805,0.4351389408111572,-0.7039056420326233
1771073179732502500,3.73650244140625,0.3803558349609375,0.3257814645767212,-0.7040402293205261
1771073179742443000,3.746443115234375,0.7476558685302734,0.23560094833374023,-0.4439576268196106
1771073179752383200,3.75638330078125,0.6019096374511719,0.2882488965988159,0.005081623792648315
1771073179762323500,3.766323486328125,0.11297130584716797,0.3290597200393677,0.36021438241004944
1771073179772264000,3.776263916015625,-1.0515642166137695,0.24460744857788086,0.4170703887939453
1771073179782204200,3.7862041015625,-2.6965274810791016,0.19950604438781738,0.2661207318305969
1771073179792144400,3.796144287109375,-3.9587526321411133,0.20599853992462158,0.07978247106075287
1771073179802084900,3.8060849609375,-4.374818325042725,0.08145594596862793,-0.09893149137496948
1771073179812025000,3.816025146484375,-3.8627991676330566,-0.13107013702392578,-0.17066478729248047
1771073179821965300,3.82596533203125,-3.156491756439209,-0.43010175228118896,-0.10842040181159973
1771073179831905800,3.83590576171875,-2.7346887588500977,-0.8253331780433655,-0.14089012145996094
1771073179841846000,3.845845947265625,-2.504897117614746,-1.2656949758529663,-0.40366217494010925
1771073179851786200,3.8557861328125,-2.3514652252197266,-1.6335545778274536,-0.7416393756866455
1771073179861726700,3.865726806640625,-2.3051881790161133,-1.9163967370986938,-1.178929328918457
1771073179871667000,3.8756669921875,-2.3519248962402344,-2.13836669921875,-1.8460711240768433
1771073179881607200,3.885607177734375,-2.121652126312256,-2.2561564445495605,-2.6520605087280273
1771073179891547600,3.895547607421875,-1.671818733215332,-2.2819571495056152,-3.346194267272949
1771073179901487900,3.90548779296875,-1.5706405639648438,-2.047024726867676,-3.86739182472229
1771073179911428400,3.915428466796875,-1.6191291809082031,-1.5683436393737793,-4.3861188888549805
1771073179921368600,3.92536865234375,-1.8247652053833008,-0.8266016244888306,-5.078348159790039
1771073179931308800,3.935308837890625,-2.3798065185546875,0.18370461463928223,-5.768538475036621
1771073179941249300,3.945249267578125,-3.0667219161987305,1.3912192583084106,-6.205670356750488
1771073179951189500,3.955189453125,-3.566551685333252,2.300316572189331,-5.762599945068359
1771073179961129700,3.965129638671875,-2.515738010406494,2.315730571746826,-4.479137420654297
1771073179971070200,3.9750703125,-0.18845367431640625,1.8451664447784424,-2.3730204105377197
1771073179981010400,3.985010498046875,3.247772216796875,1.6073176860809326,0.3326435685157776
1771073179990950700,3.99495068359375,7.126041412353516,1.6080591678619385,2.923783779144287
1771073180000891100,4.00489111328125,10.21858024597168,1.4468178749084473,4.690301418304443
1771073180010831400,4.014831298828125,12.190023422241211,0.9948499202728271,5.2057037353515625
1771073180020771600,4.024771484375,11.692145347595215,0.18905854225158691,4.496012210845947
1771073180030712000,4.034712158203125,9.164374351501465,-0.862665057182312,2.8269405364990234
1771073180040652300,4.04465234375,5.873879432678223,-1.6693261861801147,0.5034376978874207
1771073180050592500,4.054592529296875,3.1793012619018555,-2.0634164810180664,-1.6405744552612305
1771073180060533000,4.064532958984375,1.2853307723999023,-2.009486436843872,-3.0632572174072266
1771073180070473200,4.07447314453125,0.10445880889892578,-1.7119696140289307,-3.758225917816162
1771073180080413400,4.084413330078125,-0.3237123489379883,-1.4308137893676758,-3.9831430912017822
1771073180090354000,4.09435400390625,0.17490386962890625,-1.1901707649230957,-3.878302574157715
1771073180100294100,4.104294189453125,1.2324552536010742,-1.0679035186767578,-3.7606089115142822
1771073180110234400,4.114234375,2.115011215209961,-1.1633058786392212,-3.7583096027374268
1771073180120174800,4.1241748046875,2.454695701599121,-1.476136565208435,-3.8690807819366455
1771073180130115000,4.134114990234375,2.28765869140625,-1.875400185585022,-4.036623954772949
1771073180140055300,4.14405517578125,1.6570243835449219,-2.1213650703430176,-4.047219276428223
1771073180149995800,4.153995849609375,0.5485572814941406,-2.0743279457092285,-3.7544021606445312
1771073180159936000,4.16393603515625,-0.7774248123168945,-1.8737281560897827,-3.196460008621216
1771073180169876500,4.17387646484375,-1.8127002716064453,-1.6469123363494873,-2.686713218688965
1771073180179816700,4.183816650390625,-2.5727176666259766,-1.4254354238510132,-2.1844656467437744
1771073180189757000,4.1937568359375,-3.227902412414551,-1.2584489583969116,-1.5316530466079712
1771073180199697400,4.203697509765625,-3.7166013717651367,-1.1796382665634155,-0.8815767168998718
1771073180209637600,4.2136376953125,-3.9531335830688477,-1.142285943031311,-0.28925085067749023
1771073180219577900,4.223577880859375,-4.057074069976807,-1.144773006439209,0.27071666717529297
1771073180229518300,4.233518310546875,-4.267077445983887,-1.2285031080245972,0.7847864627838135
1771073180239458600,4.24345849609375,-4.412929534912109,-1.3890469074249268,1.2341479063034058
1771073180249398800,4.253398681640625,-4.377344608306885,-1.635669469833374,1.4915896654129028
1771073180259339300,4.26333935546875,-4.351113796234131,-2.028773546218872,1.5032594203948975
1771073180269279500,4.273279541015625,-4.710944652557373,-2.466639280319214,1.392636775970459
1771073180279219700,4.2832197265625,-5.401295185089111,-2.737328052520752,1.3149007558822632
1771073180289160200,4.29316015625,-6.014542579650879,-2.721651077270508,1.3362302780151367
1771073180299100400,4.303100341796875,-6.216506481170654,-2.384401559829712,1.449149250984192
1771073180309040600,4.31304052734375,-5.95114803314209,-1.7496246099472046,1.730278491973877
1771073180318981000,4.322981201171875,-4.851644039154053,-1.031935214996338,1.5351004600524902
1771073180328921300,4.33292138671875,-2.379605293273926,-0.39753830432891846,0.21860677003860474
1771073180338861600,4.342861572265625,0.4912586212158203,0.23525846004486084,-0.7619796395301819
1771073180348802000,4.352802001953125,2.622957229614258,0.8913021087646484,-0.2695050537586212
1771073180358742300,4.3627421875,2.9429473876953125,1.4676618576049805,1.695734977722168
1771073180368682500,4.3726826171875,2.7696352005004883,2.5077948570251465,4.123770236968994
1771073180378623000,4.382623046875,3.5542125701904297,3.95516300201416,6.098271369934082
1771073180388563200,4.392563232421875,5.015068054199219,4.55360221862793,6.8456292152404785
1771073180398503400,4.40250341796875,5.781383514404297,3.496964931488037,6.604796409606934
1771073180408444000,4.41244384765625,5.262951850891113,1.3770148754119873,5.706132888793945
1771073180418384100,4.422384033203125,4.563176155090332,-0.8909292221069336,3.876154899597168
1771073180428324400,4.432324462890625,3.99761962890625,-2.6562509536743164,1.361788034439087
1771073180438264800,4.442264892578125,3.3322324752807617,-3.3790087699890137,-0.9244470596313477
1771073180448205000,4.452205078125,2.7533159255981445,-3.3094162940979004,-2.3755643367767334
1771073180458145500,4.4621455078125,2.6255273818969727,-2.7916531562805176,-3.420381784439087
1771073180468085800,4.472085693359375,2.973435401916504,-2.208819627761841,-4.3366546630859375
1771073180478026000,4.48202587890625,2.930267333984375,-1.757004976272583,-4.76338005065918
1771073180487966500,4.491966552734375,2.17502498626709,-1.5653016567230225,-4.722867965698242
1771073180497906700,4.50190673828125,1.4352493286132812,-1.4886000156402588,-4.39473295211792
1771073180507847000,4.511846923828125,1.482065200805664,-1.2765141725540161,-3.826998710632324
1771073180527727600,4.5317275390625,3.193108558654785,-0.7385915517807007,-2.32541823387146
1771073180537667800,4.541667724609375,3.7750377655029297,-0.419344425201416,-1.6163723468780518
1771073180547608300,4.5516083984375,3.8556222915649414,0.011298537254333496,-0.7925997972488403
1771073180557548500,4.561548583984375,3.1512346267700195,0.4120004177093506,-0.004780799150466919
1771073180567488800,4.57148876953125,1.6078224182128906,0.6779528856277466,0.49864810705184937
1771073180577429200,4.58142919921875,-0.49158477783203125,0.9399818181991577,0.7573097348213196
1771073180587369500,4.591369384765625,-2.905299186706543,1.1277422904968262,0.7482080459594727
1771073180597309700,4.601309814453125,-5.165541648864746,1.4214816093444824,0.6943050622940063
1771073180607250200,4.611250244140625,-6.73687219619751,1.7438929080963135,0.6391544342041016
1771073180617190400,4.6211904296875,-7.333200454711914,1.8851178884506226,0.5753404498100281
1771073180627130600,4.631130615234375,-7.169583797454834,1.80953848361969,0.5103417634963989
1771073180637071000,4.641071044921875,-6.579002380371094,1.521817922592163,0.4147568941116333
1771073180647011300,4.65101123046875,-5.558640956878662,0.9989663362503052,0.05487729236483574
1771073180656951600,4.66095166015625,-4.454115867614746,0.3656444549560547,-0.37455886602401733
1771073180666892000,4.67089208984375,-3.6869449615478516,-0.31513190269470215,-0.8993102312088013
1771073180676832300,4.680832275390625,-3.143277168273926,-1.0373539924621582,-1.6809414625167847
1771073180686772500,4.6907724609375,-2.970367431640625,-1.7114449739456177,-2.508641481399536
1771073180696713000,4.700712890625,-3.019352436065674,-2.2809066772460938,-3.192103147506714
1771073180706653200,4.710653076171875,-2.948132038116455,-2.75565767288208,-3.594754219055176
1771073180716593700,4.72059375,-2.632190704345703,-3.252732753753662,-3.602288007736206
1771073180726534000,4.730533935546875,-2.649303436279297,-3.6597213745117188,-3.360100030899048
1771073180736474000,4.74047412109375,-2.822144031524658,-3.4248390197753906,-3.2388622760772705
1771073180746414600,4.75041455078125,-3.142353057861328,-2.125105857849121,-2.964038610458374
1771073180756354800,4.760354736328125,-2.5968565940856934,-0.16564655303955078,-2.958475351333618
1771073180766295000,4.770294921875,-1.586287021636963,1.9064751863479614,-3.0047831535339355
1771073180776235500,4.780235595703125,-0.6439723968505859,3.45857310295105,-2.244910955429077
1771073180786175700,4.79017578125,0.9168996810913086,4.389519214630127,-0.5125676393508911
1771073180796116000,4.800115966796875,3.6332664489746094,4.732553482055664,1.0752387046813965
1771073180806056400,4.810056396484375,6.644552230834961,4.531595706939697,1.9162640571594238
1771073180815996700,4.81999658203125,9.014922142028809,3.655296802520752,2.2764902114868164
1771073180825937000,4.82993701171875,9.330876350402832,2.363797664642334,2.0727574825286865
1771073180835877400,4.83987744140625,7.949692726135254,1.0662012100219727,1.2783477306365967
1771073180845817600,4.849817626953125,5.435988426208496,-0.034293413162231445,-0.40554893016815186
1771073180855757800,4.8597578125,3.2607908248901367,-0.8803693056106567,-2.566187620162964
1771073180865698300,4.8696982421875,2.0774707794189453,-1.3959074020385742,-4.614390850067139
1771073180875638500,4.879638427734375,1.8604345321655273,-1.78779935836792,-6.451416492462158
1771073180885578800,4.889578857421875,2.34158992767334,-2.129488229751587,-7.603020668029785
1771073180895519200,4.899519287109375,2.957517623901367,-2.385699987411499,-7.761929512023926
1771073180905459500,4.90945947265625,3.314912796020508,-2.5314836502075195,-7.249603271484375
1771073180915399700,4.919399658203125,3.233247756958008,-2.4405007362365723,-6.520471572875977
1771073180925340200,4.929340087890625,2.849853515625,-2.075284242630005,-5.776533126831055
1771073180935280400,4.9392802734375,2.1824989318847656,-1.5560531616210938,-4.981054782867432
1771073180945220600,4.949220703125,1.2896356582641602,-1.1678394079208374,-4.309356689453125
1771073180955161000,4.9591611328125,0.24855804443359375,-0.872065544128418,-3.499824285507202
1771073180965101300,4.969101318359375,-0.6800374984741211,-0.5384470224380493,-2.6872246265411377
1771073180975041800,4.979041748046875,-1.6255979537963867,-0.22242683172225952,-1.898858666419983
1771073180984982000,4.98898193359375,-3.0110526084899902,-0.04770660400390625,-1.0129450559616089
1771073180994922200,4.998922119140625,-4.719241619110107,0.1930384635925293,0.017907189205288887
1771073181004862700,5.00886279296875,-5.51854944229126,0.7191044092178345,0.8850301504135132
1771073181014803000,5.018802978515625,-4.8985819816589355,1.2790987491607666,1.3289939165115356
1771073181024743200,5.0287431640625,-3.048539161682129,1.2821425199508667,1.2296075820922852
1771073181034683600,5.03868359375,-1.4487857818603516,0.6682049036026001,0.9110062122344971
1771073181044624000,5.048623779296875,-0.4159507751464844,-0.1939961314201355,0.7879127264022827
1771073181054564000,5.058564208984375,0.43111133575439453,-1.0887420177459717,0.40661710500717163
1771073181064504600,5.068504638671875,0.8661327362060547,-1.901921272277832,-0.027544111013412476
1771073181074444800,5.07844482421875,0.19549179077148438,-2.6166086196899414,-0.1227295994758606
1771073181084385000,5.088385009765625,-1.0883617401123047,-2.981471538543701,-0.01101142168045044
1771073181094325500,5.098325439453125,-1.940605640411377,-2.829043388366699,0.15098148584365845
1771073181104265700,5.108265625,-2.121488094329834,-2.4144606590270996,0.3686836361885071
1771073181114206000,5.1182060546875,-1.697000503540039,-1.9861323833465576,0.8528726100921631
1771073181124146400,5.128146484375,-1.1053762435913086,-1.6292431354522705,1.4429116249084473
1771073181134086700,5.138086669921875,-0.060280799865722656,-1.366855502128601,1.664006233215332
1771073181144027000,5.14802685546875,1.2656593322753906,-1.1517746448516846,1.337816596031189
1771073181153967400,5.15796728515625,2.3783016204833984,-1.0541083812713623,0.9493017792701721
1771073181163907600,5.167907470703125,2.524351119995117,-0.921825110912323,1.3224196434020996
1771073181173847800,5.177847900390625,1.5769281387329102,-0.4641604423522949,2.4991347789764404
1771073181183788300,5.187788330078125,0.750126838684082,0.38844168186187744,3.8089873790740967
1771073181193728500,5.197728515625,0.7575521469116211,1.3687999248504639,4.649386405944824
1771073181203668700,5.207668701171875,1.9558000564575195,1.7944315671920776,4.65886926651001
1771073181213609200,5.217609130859375,3.6351966857910156,1.2096710205078125,3.982138156890869
1771073181223549400,5.227549560546875,4.8531389236450195,-0.09628260135650635,3.0454981327056885
1771073181233489700,5.23748974609375,5.249843597412109,-1.4298306703567505,1.8103824853897095
1771073181243430100,5.24743017578125,4.652177810668945,-2.203547716140747,0.5071324110031128
1771073181253370400,5.257370361328125,2.986478805541992,-2.0080056190490723,-0.47600057721138
1771073181263310800,5.267310791015625,1.1973648071289062,-1.0830941200256348,-0.6810656189918518
1771073181273251000,5.2772509765625,-0.3950490951538086,-0.15461325645446777,-0.3556862473487854
1771073181283191300,5.28719140625,-1.0988187789916992,0.5457830429077148,0.07802855968475342
1771073181293131800,5.2971318359375,-0.999150276184082,1.041888952255249,0.6475567817687988
1771073181303072000,5.307072021484375,-0.3088397979736328,1.2460591793060303,1.2348856925964355
1771073181313012200,5.31701220703125,0.39298343658447266,1.2835769653320312,1.6071116924285889
1771073181322952700,5.32695263671875,0.7794408798217773,1.262263298034668,1.6298880577087402
1771073181332893000,5.336892822265625,1.3392152786254883,1.14577054977417,1.0333999395370483
1771073181342833400,5.34683349609375,1.8562393188476562,0.888913631439209,0.093159019947052
1771073181352773600,5.356773681640625,2.0008630752563477,0.44769906997680664,-0.8867383003234863
1771073181362714000,5.366714111328125,1.5684585571289062,-0.09380602836608887,-1.7105333805084229
1771073181372654600,5.376654541015625,0.602869987487793,-0.5557254552841187,-2.3224711418151855
1771073181382594800,5.3865947265625,-0.6599159240722656,-0.8274610042572021,-2.815408706665039
1771073181392535300,5.396535400390625,-2.192890167236328,-0.8184778690338135,-3.147580623626709
1771073181402475500,5.4064755859375,-3.781116485595703,-0.56554114818573,-3.3588080406188965
1771073181412416000,5.416416015625,-5.143933296203613,-0.23695337772369385,-3.4849720001220703
1771073181422356200,5.426356201171875,-6.144766330718994,0.03271782398223877,-3.398927927017212
1771073181432296700,5.436296630859375,-6.140710830688477,0.1883310079574585,-3.041045665740967
1771073181442237000,5.44623681640625,-4.919635772705078,0.23575043678283691,-2.272764205932617
1771073181452177400,5.456177490234375,-3.2077412605285645,0.08692848682403564,-1.4585156440734863
1771073181462117600,5.46611767578125,-2.2042226791381836,-0.08899927139282227,-0.7392665147781372
1771073181472058000,5.47605810546875,-1.9097042083740234,-0.3336942195892334,-0.2628903090953827
1771073181481998600,5.48599853515625,-1.8976435661315918,-0.6579468250274658,-0.2114710807800293
1771073181491938800,5.495938720703125,-2.024242401123047,-0.9847774505615234,-0.41584262251853943
1771073181501879300,5.50587939453125,-1.8210797309875488,-1.2775616645812988,-0.8565800189971924
1771073181511819500,5.515819580078125,-0.9087057113647461,-1.4613933563232422,-1.3951983451843262
1771073181531700200,5.5357001953125,1.5857305526733398,-1.6368918418884277,-1.8713493347167969
1771073181541640700,5.545640625,2.004378318786621,-1.675781488418579,-1.8767588138580322
1771073181551581000,5.555580810546875,1.4948968887329102,-1.4951962232589722,-1.8477383852005005
1771073181561521400,5.565521484375,-0.06312274932861328,-1.0027737617492676,-2.014829397201538
1771073181571462000,5.5754619140625,-1.6465649604797363,-0.27123498916625977,-2.3829522132873535
1771073181581402000,5.585402099609375,-2.082235336303711,0.6641747951507568,-2.9274351596832275
1771073181591342600,5.595342529296875,-1.6416521072387695,1.7584607601165771,-3.0299623012542725
1771073181601282800,5.60528271484375,-0.9227504730224609,2.7070741653442383,-2.5277860164642334
1771073181611223000,5.61522314453125,0.5266246795654297,3.2587778568267822,-1.742211937904358
1771073181621163500,5.62516357421875,2.5309982299804688,2.9966979026794434,-1.0689297914505005
1771073181631103700,5.635103759765625,3.8655529022216797,2.045365571975708,-0.6634334921836853
1771073181641044000,5.6450439453125,4.0510711669921875,0.7353252172470093,-0.5224495530128479
1771073181650984400,5.654984375,3.1379899978637695,-0.4084705114364624,-0.24987384676933289
1771073181660924700,5.664924560546875,2.299923896789551,-0.8641639947891235,0.02578505501151085
1771073181670865000,5.674864990234375,2.0678482055664062,-0.8435895442962646,0.11497130990028381
1771073181680805400,5.684805419921875,2.1603469848632812,-0.822701096534729,0.13977402448654175
1771073181690745600,5.69474560546875,2.45711612701416,-0.8409167528152466,0.4140707552433014
1771073181700685800,5.704685791015625,3.130099296569824,-0.875941812992096,0.7030907869338989
1771073181710626300,5.714626220703125,3.883319854736328,-1.021785020828247,0.81592857837677
1771073181720566500,5.72456640625,4.070448875427246,-1.3349370956420898,0.7330911159515381
1771073181730506800,5.7345068359375,3.5836591720581055,-1.692367434501648,0.37902724742889404
1771073181740447200,5.744447265625,2.6757421493530273,-1.961617350578308,-0.16774839162826538
1771073181750387500,5.754387451171875,1.7516546249389648,-2.0501694679260254,-0.73130202293396
1771073181760328000,5.764327880859375,0.9694690704345703,-2.1442711353302,-1.0798746347427368
1771073181770268200,5.77426806640625,0.25988006591796875,-2.1985292434692383,-1.074972152709961
1771073181780208400,5.78420849609375,-0.47755908966064453,-2.075892686843872,-0.8213900327682495
1771073181790148900,5.79414892578125,-1.011439323425293,-1.8284794092178345,-0.4150938391685486
1771073181800089000,5.804089111328125,-1.366495132446289,-1.5601273775100708,0.06380484998226166
1771073181810029300,5.814029296875,-1.4764299392700195,-1.2965947389602661,0.5266610383987427
1771073181819969800,5.8239697265625,-1.4515533447265625,-1.1059385538101196,0.7608670592308044
1771073181829910000,5.833909912109375,-1.571232795715332,-1.0552611351013184,0.8498093485832214
1771073181839850200,5.843850341796875,-1.985201358795166,-1.1416547298431396,0.9285058975219727
1771073181849790700,5.853790771484375,-2.589840888977051,-1.2312031984329224,1.1669590473175049
1771073181859731000,5.86373095703125,-3.3177733421325684,-1.2959892749786377,1.5181221961975098
1771073181869671200,5.873671142578125,-4.035007476806641,-1.3581469058990479,1.8608450889587402
1771073181879611600,5.883611572265625,-4.636744976043701,-1.3847635984420776,2.129469871520996
1771073181889552000,5.8935517578125,-5.0234904289245605,-1.3660637140274048,2.2494382858276367
1771073181899492000,5.9034921875,-5.096149921417236,-1.2876335382461548,2.1803789138793945
1771073181909432600,5.9134326171875,-4.822454452514648,-1.1198546886444092,2.0338387489318848
1771073181919372800,5.923372802734375,-4.2605743408203125,-1.0784978866577148,2.0024471282958984
1771073181929314000,5.93331396484375,-3.568371295928955,-1.2787364721298218,2.0666356086730957
1771073181939253800,5.943253662109375,-3.0705971717834473,-1.5182260274887085,2.285130739212036
1771073181949193200,5.953193115234375,-2.59976863861084,-1.6847323179244995,2.827547550201416
1771073181959132700,5.963132568359375,-1.9798622131347656,-1.5719659328460693,3.6641006469726562
1771073181969072400,5.973072265625,-0.7203292846679688,-1.190068244934082,4.203697681427002
1771073181979012000,5.98301220703125,1.6696052551269531,-0.5368877053260803,3.323275566101074
1771073181988952000,5.9929521484375,4.258551597595215,0.20410454273223877,2.204183578491211
1771073181998892000,6.00289208984375,5.35833740234375,0.45498478412628174,1.9480836391448975
1771073182008832000,6.01283203125,4.586590766906738,0.45673251152038574,2.8362152576446533
1771073182018772200,6.022772216796875,3.0366458892822266,0.6884377002716064,4.154292106628418
1771073182028712700,6.032712646484375,2.2661123275756836,1.3742161989212036,5.2172956466674805
1771073182038653200,6.042653076171875,2.002871513366699,2.145353317260742,5.873457908630371
1771073182048594000,6.052593994140625,1.6733989715576172,2.117645502090454,6.0305352210998535
1771073182058534700,6.06253466796875,1.2979488372802734,0.9602138996124268,5.698751449584961
1771073182068475400,6.072475341796875,1.6230716705322266,-0.5026179552078247,4.966047286987305
1771073182078416100,6.082416015625,2.8656082153320312,-1.5229079723358154,4.11768913269043
1771073182088357000,6.092357177734375,4.277249336242676,-2.1838419437408447,2.77059006690979
1771073182098297900,6.1022978515625,5.0062103271484375,-2.6444153785705566,1.5637226104736328
1771073182108238800,6.11223876953125,4.826046943664551,-2.807874917984009,0.8471108078956604
1771073182118179300,6.122179443359375,4.215625762939453,-2.4798920154571533,0.5947767496109009
1771073182128119800,6.132119873046875,3.3940696716308594,-1.8078570365905762,0.37353816628456116
1771073182138060000,6.14206005859375,2.551450729370117,-1.1352941989898682,-0.041225314140319824
1771073182148000300,6.152000244140625,1.7177820205688477,-0.580164909362793,-0.62164705991745
1771073182157940700,6.161940673828125,1.2486276626586914,-0.27645742893218994,-1.310626745223999
1771073182167881000,6.171880859375,1.0150985717773438,-0.1649707555770874,-1.7909656763076782
1771073182177821200,6.1818212890625,0.8339853286743164,-0.12088298797607422,-1.958050012588501
1771073182187761700,6.19176171875,0.6491012573242188,-0.08298051357269287,-1.9513733386993408
1771073182197702000,6.201701904296875,0.4091053009033203,-0.026046395301818848,-1.8214192390441895
1771073182207642000,6.21164208984375,-0.04012775421142578,0.05934643745422363,-1.5014572143554688
1771073182217582600,6.22158251953125,-0.991633415222168,0.13932406902313232,-1.0249545574188232
1771073182227522800,6.231522705078125,-2.1274962425231934,0.24867641925811768,-0.526515543460846
1771073182237463000,6.241463134765625,-2.9707112312316895,0.37719178199768066,-0.2797032594680786
1771073182247403500,6.251403564453125,-3.536769390106201,0.5501583814620972,-0.12690728902816772
1771073182257343700,6.26134375,-4.139208793640137,0.6803821325302124,0.07958179712295532
1771073182267284000,6.271283935546875,-4.94287109375,0.7503335475921631,0.31525588035583496
1771073182277224400,6.281224365234375,-5.756816864013672,0.7673742771148682,0.47881650924682617
1771073182287164700,6.29116455078125,-6.247095108032227,0.7066706418991089,0.5139976739883423
1771073182297105000,6.30110498046875,-6.502876281738281,0.5537722110748291,0.5145255923271179
1771073182307045400,6.31104541015625,-6.74217414855957,0.3036620616912842,0.5747517347335815
1771073182316985600,6.320985595703125,-6.810914993286133,0.07809114456176758,0.8183499574661255
1771073182326925800,6.33092578125,-6.121303558349609,-0.030277609825134277,0.9875488877296448
1771073182336866300,6.3408662109375,-4.508115291595459,-0.14185142517089844,0.6840293407440186
1771073182346806500,6.350806640625,-2.7245383262634277,-0.29741644859313965,0.3581412732601166
1771073182356746800,6.360746826171875,-0.16714763641357422,-0.5741970539093018,-0.29198330640792847
1771073182366687200,6.370687255859375,3.027271270751953,-1.1140064001083374,-0.9519749879837036
1771073182376627500,6.38062744140625,5.293851852416992,-1.8664630651474,-1.3768357038497925
1771073182386568000,6.39056787109375,6.447884559631348,-2.5277910232543945,-1.4514150619506836
1771073182396508200,6.400508056640625,6.4353179931640625,-2.237461566925049,-1.1224093437194824
1771073182406448400,6.410448486328125,5.585275650024414,-1.1289842128753662,-0.978003978729248
1771073182416388900,6.420388916015625,4.481618881225586,-0.1464090347290039,-1.1512268781661987
1771073182426329000,6.4303291015625,2.318638801574707,0.8493905067443848,-1.3601373434066772
1771073182436269300,6.440269287109375,0.4864463806152344,1.7635507583618164,-1.6749117374420166
1771073182446209800,6.450209716796875,0.25380802154541016,2.261962413787842,-1.9162877798080444
1771073182456150000,6.46014990234375,1.962693214416504,1.8727940320968628,-1.6909079551696777
1771073182466090200,6.47009033203125,3.2340545654296875,0.7330858707427979,-0.6358811855316162
1771073182476030700,6.48003076171875,3.890592575073242,-0.002624034881591797,0.7718381881713867
1771073182485971000,6.489970947265625,4.065402984619141,-0.20926225185394287,1.9060156345367432
1771073182495911200,6.4999111328125,3.7766828536987305,-0.05762290954589844,2.6731886863708496
1771073182505851600,6.5098515625,3.6667985916137695,0.3993169069290161,3.173879623413086
1771073182515792000,6.5197919921875,3.846756935119629,0.7902685403823853,3.28940486907959
1771073182525732000,6.529732177734375,4.120092391967773,0.8831586837768555,3.2481980323791504
1771073182535672600,6.539672607421875,4.155264854431152,0.6339664459228516,3.0364670753479004
1771073182545612800,6.54961279296875,3.8438148498535156,0.1583932638168335,2.5299489498138428
1771073182555553000,6.559552978515625,3.175222396850586,-0.3922196626663208,1.592756986618042
1771073182565493500,6.569493408203125,2.3393993377685547,-0.9161604642868042,0.5461742877960205
1771073182575433700,6.579433837890625,1.413100242614746,-1.3407148122787476,-0.26107484102249146
1771073182585374000,6.5893740234375,0.5158166885375977,-1.6999232769012451,-0.723168134689331
1771073182595314400,6.599314453125,-0.39807796478271484,-1.98887038230896,-0.9671618938446045
1771073182605254700,6.609254638671875,-1.2643966674804688,-2.1597392559051514,-0.986026406288147
1771073182615195000,6.61919482421875,-1.832951545715332,-2.1332554817199707,-0.7848319411277771
1771073182625135400,6.62913525390625,-2.0711636543273926,-1.9336762428283691,-0.4825151562690735
1771073182635075600,6.63907568359375,-2.1418919563293457,-1.6841204166412354,-0.05979478359222412
1771073182645016000,6.64901611328125,-2.2649192810058594,-1.5287914276123047,0.3212396800518036
1771073182654956300,6.658956298828125,-2.3849563598632812,-1.4682472944259644,0.542762279510498
1771073182664896500,6.668896484375,-2.475388526916504,-1.4839825630187988,0.689960777759552
1771073182674837000,6.6788369140625,-2.681671142578125,-1.5817242860794067,0.8251703977584839
1771073182684777200,6.688777099609375,-2.98655366897583,-1.7175567150115967,1.0826386213302612
1771073182694717400,6.698717529296875,-3.2846808433532715,-1.8088573217391968,1.5610039234161377
1771073182704658000,6.708657958984375,-3.430629253387451,-1.714907169342041,2.2084884643554688
1771073182714598100,6.71859814453125,-3.42756986618042,-1.5586373805999756,2.56658935546875
1771073182724538400,6.728538330078125,-3.137241840362549,-1.4498826265335083,2.5333738327026367
1771073182734478800,6.738478759765625,-2.755476951599121,-1.3718743324279785,2.201563835144043
1771073182744419000,6.748419189453125,-2.513442039489746,-1.432753324508667,1.8237903118133545
1771073182754359300,6.758359375,-2.484138011932373,-1.7290141582489014,1.4506754875183105
1771073182764299800,6.7682998046875,-2.836101531982422,-2.0911061763763428,1.2754851579666138
1771073182774240000,6.778239990234375,-3.3538026809692383,-2.2279670238494873,1.5459873676300049
1771073182784180200,6.78818017578125,-3.691718101501465,-1.9830766916275024,2.070178985595703
1771073182794120700,6.79812060546875,-3.584150791168213,-1.5747456550598145,2.6416800022125244
1771073182804061000,6.80806103515625,-2.985628604888916,-1.0454490184783936,2.7455692291259766
1771073182814001200,6.818001220703125,-1.8192129135131836,-0.3094015121459961,2.0004982948303223
1771073182823941600,6.827941650390625,-0.34352588653564453,0.4761519432067871,1.4705235958099365
1771073182833881900,6.8378818359375,0.5990791320800781,1.020021915435791,1.8352007865905762
1771073182843822000,6.847822021484375,0.9047946929931641,1.4777295589447021,3.1904571056365967
1771073182853762600,6.857762451171875,0.8860158920288086,2.241656541824341,5.097908020019531
1771073182863702800,6.867702880859375,1.6130561828613281,3.260950803756714,6.829403877258301
1771073182873643000,6.87764306640625,3.493842124938965,3.7805564403533936,7.68923807144165
1771073182883583500,6.88758349609375,5.68226432800293,3.0765726566314697,7.355579376220703
1771073182893523700,6.897523681640625,6.551477432250977,1.2408428192138672,6.292182922363281
1771073182903464000,6.9074638671875,6.5286865234375,-0.8600058555603027,5.117966175079346
1771073182913404400,6.917404296875,6.030248641967773,-2.511859178543091,3.4737424850463867
1771073182923344600,6.9273447265625,4.858851432800293,-3.232652187347412,1.720240831375122
1771073182933285000,6.93728515625,3.6892929077148438,-2.925717353820801,0.4684337377548218
1771073182943225300,6.947225341796875,3.027419090270996,-1.9813133478164673,0.09235107898712158
1771073182953165600,6.95716552734375,2.9590988159179688,-1.0517131090164185,0.29246047139167786
1771073182963106000,6.96710595703125,3.366792678833008,-0.4847460985183716,0.5817229747772217
1771073182973046300,6.97704638671875,3.754558563232422,-0.09548115730285645,0.6983835101127625
1771073182982986500,6.986986572265625,3.945302963256836,0.15732192993164062,0.45842957496643066
1771073182992927000,6.996927001953125,3.8504066467285156,0.3879355192184448,-0.011589974164962769
1771073183002867200,7.0068671875,3.395366668701172,0.5678943395614624,-0.4588163197040558
1771073183012807400,7.016807373046875,2.378610610961914,0.66176438331604,-0.8086332082748413
1771073183022748000,7.026747802734375,1.0781335830688477,0.70094895362854,-1.1357741355895996
1771073183032688000,7.036688232421875,-0.24347209930419922,0.7604963779449463,-1.4030886888504028
1771073183042628400,7.04662841796875,-1.4173412322998047,0.8160755634307861,-1.5619666576385498
1771073183052568800,7.05656884765625,-2.3654823303222656,0.835448145866394,-1.5964436531066895
1771073183062509000,7.066509033203125,-3.270382881164551,0.8291729688644409,-1.465471863746643
1771073183072449300,7.07644921875,-3.9008755683898926,0.8621048927307129,-1.2562708854675293
1771073183082389800,7.0863896484375,-4.253324508666992,0.9078677892684937,-1.0470181703567505
1771073183092330000,7.096330078125,-4.491286754608154,0.9676942825317383,-0.8453384637832642
1771073183102270200,7.106270263671875,-4.777907848358154,0.9634056091308594,-0.4902767539024353
1771073183112210700,7.116210693359375,-5.2044219970703125,0.9018172025680542,-0.20652493834495544
1771073183122151000,7.12615087890625,-5.4965410232543945,0.8224015235900879,-0.03894960880279541
1771073183132091100,7.136091064453125,-5.411266803741455,0.7129693031311035,0.0052439868450164795
1771073183142031600,7.146031494140625,-4.979864597320557,0.5520564317703247,0.029608651995658875
1771073183151971800,7.155971923828125,-4.512236595153809,0.34824609756469727,0.10710402578115463
1771073183161912000,7.165912109375,-3.9615135192871094,0.032248735427856445,0.11399238556623459
1771073183171852500,7.1758525390625,-3.5606789588928223,-0.35243141651153564,0.12760567665100098
1771073183181792800,7.185792724609375,-3.182527542114258,-0.7603930830955505,0.14341047406196594
1771073183191733200,7.195733154296875,-2.4787535667419434,-1.0331170558929443,0.06406755745410919
1771073183201673500,7.205673583984375,-1.0393695831298828,-1.1848556995391846,-0.33186256885528564
1771073183211613700,7.21561376953125,1.008530616760254,-1.4162659645080566,-0.8220512270927429
1771073183221554200,7.22555419921875,2.763028144836426,-1.8898484706878662,-1.135744571685791
1771073183231494400,7.235494384765625,3.7519960403442383,-2.56904935836792,-0.966205894947052
1771073183241434600,7.2454345703125,3.6686697006225586,-2.79441499710083,-0.37031012773513794
1771073183251375000,7.255375,3.129988670349121,-2.1951518058776855,-0.17867213487625122
1771073183261315300,7.2653154296875,2.5976266860961914,-1.2884559631347656,-0.5919097661972046
1771073183271255600,7.275255615234375,0.5357837677001953,0.06919312477111816,-1.2203404903411865
1771073183281196000,7.285196044921875,-2.2421326637268066,1.5718083381652832,-2.077113151550293
1771073183291136300,7.29513623046875,-3.778745174407959,2.699096441268921,-2.9549975395202637
1771073183301076500,7.305076416015625,-3.2621102333068848,3.0566513538360596,-3.175489664077759
1771073183311017000,7.315016845703125,-1.3562140464782715,2.2450690269470215,-1.9592530727386475
1771073183320957200,7.324957275390625,0.11707878112792969,0.9883887767791748,-0.10726886987686157
1771073183330897400,7.3348974609375,1.5923452377319336,0.5106723308563232,1.6514525413513184
1771073183340838000,7.344837890625,3.056621551513672,0.707421064376831,2.8727684020996094
1771073183350778000,7.354778076171875,4.436722755432129,1.0692739486694336,3.1953299045562744
1771073183360718300,7.36471826171875,5.625186920166016,1.338930606842041,3.0195846557617188
1771073183370658800,7.374658935546875,6.3395843505859375,1.2789583206176758,2.699144124984741
1771073183380599000,7.38459912109375,6.506900787353516,0.9985489845275879,2.2894716262817383
1771073183390539300,7.394539306640625,6.505017280578613,0.4845271110534668,1.682091236114502
1771073183400479700,7.404479736328125,6.4629926681518555,-0.25203752517700195,0.8354207277297974
1771073183410420000,7.414419921875,6.159163475036621,-1.0433446168899536,0.005850393325090408
1771073183420360200,7.424360107421875,5.611186981201172,-1.6575170755386353,-0.5720439553260803
1771073183430300700,7.43430078125,4.953729629516602,-1.9347360134124756,-0.9368308186531067
1771073183440241000,7.444240966796875,4.163383483886719,-1.9485300779342651,-1.0930858850479126
1771073183450181400,7.454181396484375,2.930154800415039,-1.7426167726516724,-0.9817363023757935
1771073183460121600,7.46412158203125,1.716146469116211,-1.293392539024353,-0.7741950750350952
1771073183470061800,7.474061767578125,0.6506509780883789,-0.9275113940238953,-0.6144976615905762
1771073183480002300,7.484002197265625,-0.6320838928222656,-0.6546097993850708,-0.2701110243797302
1771073183489942500,7.493942626953125,-1.7760701179504395,-0.47907984256744385,0.07016298174858093
1771073183499882800,7.5038828125,-2.7081027030944824,-0.41462063789367676,0.3826005458831787
1771073183509823200,7.5138232421875,-3.369413375854492,-0.3818765878677368,0.6795468926429749
1771073183519763500,7.523763427734375,-3.8108749389648438,-0.39403510093688965,0.8722967505455017
1771073183529703700,7.53370361328125,-4.149847030639648,-0.459814190864563,0.9606239199638367
1771073183539644200,7.54364404296875,-4.515111446380615,-0.6001193523406982,1.038712501525879
1771073183549584400,7.55358447265625,-5.0115556716918945,-0.7989661693572998,1.1331400871276855
1771073183559524600,7.563524658203125,-5.474148273468018,-1.0305246114730835,1.3682005405426025
1771073183569465000,7.573465087890625,-6.008508682250977,-1.2578186988830566,1.7161412239074707
1771073183579405300,7.5834052734375,-6.689712047576904,-1.5190550088882446,1.8303110599517822
1771073183589345500,7.593345458984375,-6.962531089782715,-1.6985503435134888,1.7281274795532227
1771073183599286000,7.6032861328125,-6.683152675628662,-1.7703887224197388,1.6284143924713135
1771073183609226200,7.613226318359375,-5.878918647766113,-1.7614953517913818,1.599013328552246
1771073183619166500,7.62316650390625,-4.571649074554443,-1.6466096639633179,1.9823424816131592
1771073183629107000,7.63310693359375,-3.0619568824768066,-1.5059571266174316,2.528721809387207
1771073183639047200,7.643047119140625,-1.83168363571167,-1.4224494695663452,3.0601351261138916
1771073183648987400,7.6529873046875,-0.6841354370117188,-1.2328577041625977,3.6783151626586914
1771073183658927900,7.662927978515625,0.43521690368652344,-0.8803696632385254,4.089736461639404
1771073183668868000,7.6728681640625,2.13497257232666,-0.7761510610580444,3.968621253967285
1771073183678808300,7.682808349609375,4.262083053588867,-0.8747113943099976,2.7475650310516357
1771073183688748800,7.692748779296875,6.092741966247559,-0.9080393314361572,1.2845828533172607
1771073183698689000,7.70268896484375,6.171840667724609,-0.8148099184036255,0.6916351914405823
1771073183708629200,7.712629150390625,3.9021120071411133,-0.3540971279144287,1.7735819816589355
1771073183718569700,7.72256982421875,1.0684137344360352,0.6331067085266113,3.474118947982788
1771073183728510000,7.732510009765625,-1.1446914672851562,2.1989381313323975,4.9852399826049805
1771073183738450400,7.742450439453125,-1.506605625152588,3.5115878582000732,5.688708305358887
1771073183748390700,7.752390625,0.0744028091430664,3.5640807151794434,5.624027729034424
1771073183758331000,7.762330810546875,1.7941064834594727,2.090205192565918,5.230010032653809
1771073183768271400,7.772271240234375,2.9446210861206055,0.3707551956176758,4.81248664855957
1771073183778211600,7.782211669921875,4.441302299499512,-0.9178569316864014,3.571929454803467
1771073183788151800,7.79215185546875,5.530214309692383,-1.7364038228988647,2.055048942565918
1771073183798092300,7.80209228515625,5.748887062072754,-2.3076565265655518,0.7148482799530029
1771073183808032500,7.812032470703125,5.2783966064453125,-2.5588719844818115,-0.3630359470844269
1771073183817972700,7.82197265625,4.688169479370117,-2.3627545833587646,-1.2124301195144653
1771073183827913200,7.831913330078125,3.989871025085449,-1.7967782020568848,-1.7424546480178833
1771073183837853400,7.841853515625,2.963290214538574,-1.0133321285247803,-1.8431143760681152
1771073183847793700,7.851793701171875,1.7656373977661133,-0.09333252906799316,-1.4715296030044556
1771073183857734100,7.861734130859375,0.758636474609375,0.7579293251037598,-0.8636717796325684
1771073183867674400,7.87167431640625,0.18868541717529297,1.3537588119506836,-0.40591007471084595
1771073183877614600,7.881614501953125,0.10184001922607422,1.599522590637207,-0.13791432976722717
1771073183887555000,7.89155517578125,0.23237895965576172,1.4768433570861816,-0.024811290204524994
1771073183897495300,7.901495361328125,0.41182804107666016,1.206360101699829,-0.10231149196624756
1771073183907435500,7.911435546875,0.34540462493896484,0.9295012950897217,-0.3163031339645386
1771073183917376000,7.9213759765625,-0.17806625366210938,0.6710140705108643,-0.6061813235282898
1771073183927316200,7.931316162109375,-0.9138612747192383,0.5048224925994873,-0.9627665281295776
1771073183937256400,7.94125634765625,-1.6491689682006836,0.39372825622558594,-1.3610130548477173
1771073183947197000,7.951197021484375,-2.3743691444396973,0.256209135055542,-1.7693006992340088
1771073183957137200,7.96113720703125,-3.2037315368652344,0.06223797798156738,-1.9995923042297363
1771073183967077400,7.971077392578125,-4.189385414123535,-0.12135148048400879,-2.0882985591888428
1771073183977017900,7.981017822265625,-5.264319896697998,-0.20495641231536865,-2.017740249633789
1771073183986958000,7.9909580078125,-6.254827499389648,-0.0732426643371582,-1.7488481998443604
1771073183996898600,8.000898681640624,-6.7349443435668945,0.1494309902191162,-1.3918052911758423
1771073184006838800,8.0108388671875,-6.541787624359131,0.21716928482055664,-1.038285732269287
1771073184016779000,8.020779052734374,-6.20259952545166,0.07186079025268555,-0.6100028157234192
1771073184026719500,8.030719482421874,-5.582188606262207,-0.16569864749908447,-0.2980334162712097
1771073184036659700,8.04065966796875,-4.5025410652160645,-0.31839632987976074,-0.08705540001392365
1771073184046600000,8.050599853515624,-2.5913896560668945,-0.5018515586853027,-0.14484354853630066
1771073184056540400,8.06054052734375,-0.051125526428222656,-0.7503840923309326,-0.5576661825180054
1771073184066480600,8.070480712890625,1.7607460021972656,-1.2326788902282715,-1.144608974456787
1771073184076420900,8.0804208984375,2.655057907104492,-1.963402509689331,-1.673484444618225
1771073184086361300,8.090361328125,3.092069625854492,-2.662904977798462,-2.1854066848754883
1771073184096301600,8.100301513671875,3.244105339050293,-2.690450668334961,-2.4936275482177734
1771073184106241800,8.11024169921875,2.6711387634277344,-1.7283930778503418,-2.6258063316345215
1771073184116182300,8.120182373046875,2.076390266418457,-0.4514284133911133,-2.625054359436035
1771073184126122500,8.13012255859375,0.6231088638305664,1.256922721862793,-1.3778657913208008
1771073184136062700,8.140062744140625,-0.995600700378418,3.1904473304748535,0.6070020198822021
1771073184146003200,8.150003173828125,-1.1923999786376953,4.551782131195068,2.661963939666748
1771073184155943400,8.159943359375,-0.15235137939453125,4.759525299072266,4.487614631652832
1771073184165883600,8.169883544921875,1.415644645690918,4.125930309295654,5.527166366577148
1771073184175824100,8.17982421875,3.5854578018188477,3.1755895614624023,5.936495780944824
1771073184195704600,8.19970458984375,6.272483825683594,1.54461669921875,5.3950605392456055
1771073184205645000,8.20964501953125,6.243949890136719,0.6294786930084229,4.523111820220947
1771073184215585300,8.219585205078126,5.105374336242676,-0.4625730514526367,2.8717689514160156
1771073184225525500,8.229525390625,3.573967933654785,-1.473533034324646,0.8187543153762817
1771073184235466000,8.239466064453126,2.309986114501953,-2.2800562381744385,-1.0242611169815063
1771073184245406200,8.24940625,1.3039836883544922,-2.732741117477417,-2.490516185760498
1771073184255346700,8.2593466796875,0.6237478256225586,-2.967179298400879,-3.3137621879577637
1771073184265287000,8.269286865234376,0.4612770080566406,-3.0130064487457275,-3.341553211212158
1771073184275227100,8.27922705078125,0.8985261917114258,-2.872210741043091,-2.549588203430176
1771073184285167600,8.289167724609374,1.6615924835205078,-2.492948532104492,-1.0628340244293213
1771073184295107800,8.29910791015625,2.4029464721679688,-2.1137876510620117,0.03325307369232178
1771073184305048000,8.309048095703124,2.890294075012207,-1.917508840560913,0.3803865313529968
1771073184314988500,8.318988525390624,2.8634862899780273,-1.8734760284423828,0.2736983895301819
1771073184324928800,8.3289287109375,2.545229911804199,-2.0665624141693115,-0.3291876018047333
1771073184334869000,8.338868896484374,1.6632051467895508,-2.3750600814819336,-0.9563255906105042
1771073184344809500,8.3488095703125,0.3156270980834961,-2.6516106128692627,-1.3341269493103027
1771073184354749700,8.358749755859375,-1.113851547241211,-2.7643723487854004,-1.3489528894424438
1771073184364690000,8.36868994140625,-2.501119613647461,-2.684422254562378,-1.1472207307815552
1771073184374630400,8.37863037109375,-3.7327589988708496,-2.494612455368042,-0.8575631380081177
1771073184384570600,8.388570556640625,-4.841761112213135,-2.2862014770507812,-0.5101975202560425
1771073184394510800,8.3985107421875,-5.638845920562744,-2.1681149005889893,-0.19325779378414154
1771073184404451300,8.408451416015625,-6.123386859893799,-2.1161227226257324,0.23285183310508728
1771073184414391600,8.4183916015625,-6.208330154418945,-2.0450103282928467,0.7605324983596802
1771073184424331800,8.428331787109375,-5.978705406188965,-2.001349925994873,1.2057538032531738
1771073184434272300,8.438272216796875,-5.492562294006348,-1.9077730178833008,1.5346565246582031
1771073184444212500,8.44821240234375,-4.915600776672363,-1.7437944412231445,1.9671528339385986
1771073184454152700,8.458152587890625,-4.561748027801514,-1.5929796695709229,2.432929515838623
1771073184464093200,8.46809326171875,-4.4965291023254395,-1.359562873840332,2.8295843601226807
1771073184474033400,8.478033447265625,-4.487524509429932,-1.0957672595977783,3.075695276260376
1771073184483973600,8.4879736328125,-4.161942958831787,-0.9918476343154907,3.071486711502075
1771073184493914000,8.4979140625,-2.9070167541503906,-1.0937671661376953,2.908369541168213
1771073184503854300,8.507854248046876,-1.0024604797363281,-1.361144781112671,2.638286590576172
1771073184513794600,8.517794677734376,0.9583005905151367,-1.6438114643096924,2.6202034950256348
1771073184523735000,8.527735107421876,2.8748130798339844,-1.901678204536438,2.562224864959717
1771073184533675300,8.53767529296875,4.725024223327637,-1.988806962966919,1.5086357593536377
1771073184543615700,8.54761572265625,5.506093978881836,-1.4621387720108032,0.45368486642837524
1771073184553556000,8.557555908203126,4.585762023925781,-0.7201635837554932,0.272892564535141
1771073184563496200,8.56749609375,2.3962764739990234,-0.07527613639831543,0.8843450546264648
1771073184573436700,8.577436767578124,-0.038817405700683594,1.040130376815796,2.219958782196045
1771073184583377000,8.587376953125,-1.3635520935058594,2.720707654953003,3.873914957046509
1771073184593317000,8.597317138671874,-0.584834098815918,4.00694465637207,5.36968994140625
1771073184603257600,8.607257568359374,1.3509407043457031,3.864556074142456,6.587656021118164
1771073184613197800,8.61719775390625,2.8254899978637695,2.4376444816589355,6.949980735778809
1771073184623138000,8.627137939453124,4.162805557250977,0.7163906097412109,6.563624858856201
1771073184633078500,8.63707861328125,5.587418556213379,-0.7558512687683105,4.983150959014893
1771073184643018800,8.647018798828125,6.402192115783691,-1.9680432081222534,2.697377920150757
1771073184652959000,8.656958984375,6.471870422363281,-2.80544376373291,0.43678903579711914
1771073184662899500,8.6668994140625,6.333017349243164,-3.084202289581299,-1.3173853158950806
1771073184672839700,8.676839599609375,5.977490425109863,-2.7955996990203857,-2.2587790489196777
1771073184682780000,8.68677978515625,5.054863929748535,-2.106571912765503,-2.512324810028076
1771073184692720400,8.696720458984375,3.252854347229004,-1.2129814624786377,-2.3036386966705322
1771073184702660600,8.70666064453125,1.1091814041137695,-0.5013172626495361,-1.8506430387496948
1771073184712600800,8.716600830078125,-0.7087717056274414,-0.09639286994934082,-1.3071867227554321
1771073184722541300,8.726541259765625,-2.144186019897461,0.12554168701171875,-0.5757312774658203
1771073184732481500,8.7364814453125,-2.827129364013672,0.26867175102233887,0.46757596731185913
1771073184742421800,8.746421875,-2.449643611907959,0.5653572082519531,1.667790174484253
1771073184752362200,8.7563623046875,-1.5473589897155762,1.03092622756958,2.8462672233581543
1771073184762302500,8.766302490234375,-0.5874414443969727,1.3551630973815918,3.724637031555176
1771073184772242700,8.77624267578125,0.1574382781982422,1.4643595218658447,4.0900959968566895
1771073184782183200,8.78618310546875,0.09700584411621094,1.463740348815918,4.036068916320801
1771073184792123400,8.796123291015626,-0.9628314971923828,1.389174461364746,3.683584213256836
1771073184802064000,8.80606396484375,-2.577749252319336,1.2382574081420898,3.1370582580566406
1771073184812004000,8.816004150390626,-4.495617389678955,1.0412287712097168,2.6372299194335938
1771073184821944300,8.8259443359375,-6.389936447143555,0.7534453868865967,2.2909390926361084
1771073184831884800,8.835884765625,-7.906371593475342,0.4792442321777344,2.063960075378418
1771073184841825000,8.845824951171876,-8.706514358520508,0.277923583984375,1.7977490425109863
1771073184851765200,8.85576513671875,-8.510112762451172,0.1303088665008545,1.4569623470306396
1771073184861705700,8.865705810546874,-7.4908928871154785,-0.06302285194396973,0.9316912889480591
1771073184871646000,8.87564599609375,-5.8260498046875,-0.321416974067688,0.31820422410964966
1771073184881586200,8.885586181640624,-4.280105113983154,-0.5330836772918701,-0.028864502906799316
1771073184891526700,8.895526611328124,-3.0319018363952637,-0.811641275882721,0.0300443172454834
1771073184901467000,8.905466796875,-1.7467288970947266,-1.1077637672424316,0.013653278350830078
1771073184911407000,8.915406982421874,-0.6566839218139648,-1.5115604400634766,-0.40548819303512573
1771073184921347600,8.92534765625,0.6972255706787109,-2.1262590885162354,-1.323305368423462
1771073184931287800,8.935287841796875,2.200209617614746,-2.8427443504333496,-2.3765480518341064
1771073184941228000,8.94522802734375,3.4824533462524414,-3.410942554473877,-3.223266363143921
1771073184951168500,8.95516845703125,4.2682342529296875,-3.7971811294555664,-3.577695369720459
1771073184961108700,8.965108642578125,4.690647125244141,-3.866157054901123,-3.6986846923828125
1771073184971049000,8.975049072265625,4.571454048156738,-3.183011054992676,-3.831023931503296
1771073184980989400,8.984989501953125,4.1223344802856445,-2.112060308456421,-3.828030586242676
1771073184990929700,8.9949296875,3.318675994873047,-1.2936985492706299,-3.9944417476654053
1771073185000870100,9.0048701171875,1.881948471069336,-0.2979621887207031,-3.6966753005981445
1771073185010810600,9.014810546875,0.2619781494140625,0.935135006904602,-2.697789192199707
1771073185020750800,9.024750732421875,-0.055581092834472656,2.1584458351135254,-1.1679866313934326
1771073185030691300,9.03469140625,1.3750810623168945,2.937993288040161,0.764353334903717
1771073185040631600,9.044631591796875,3.6682310104370117,2.8695666790008545,2.425276756286621
1771073185050572000,9.054572021484375,5.072160720825195,2.12597393989563,3.2945027351379395
1771073185060512300,9.06451220703125,5.086243629455566,1.3066368103027344,3.525808334350586
1771073185070452700,9.07445263671875,4.677823066711426,0.6129541397094727,3.0164575576782227
1771073185080393000,9.08439306640625,4.0780439376831055,-0.0002913475036621094,1.8910033702850342
1771073185090333400,9.09433349609375,3.5336380004882812,-0.4066038131713867,0.8188496232032776
1771073185100274000,9.10427392578125,3.374420166015625,-0.48003649711608887,0.4941958487033844
1771073185110214100,9.114214111328126,3.62973690032959,-0.47894763946533203,0.6707779169082642
1771073185120154600,9.124154541015624,4.124719619750977,-0.6316325664520264,0.8976112604141235
1771073185130094800,9.1340947265625,4.621232986450195,-0.9584716558456421,0.8234051465988159
1771073185140035300,9.144035400390624,5.109376907348633,-1.4375920295715332,0.309426873922348
1771073185149975600,9.1539755859375,5.489118576049805,-1.9999061822891235,-0.5088185667991638
1771073185159916000,9.163916015625,5.410028457641602,-2.48687744140625,-1.3559784889221191
1771073185169856300,9.173856201171875,4.581360816955566,-2.6962413787841797,-1.9110711812973022
1771073185179796700,9.183796630859375,3.134627342224121,-2.588390588760376,-2.023806095123291
1771073185189737000,9.193737060546875,1.6277341842651367,-2.2281315326690674,-1.7860702276229858
1771073185199677400,9.203677490234375,0.28250789642333984,-1.8167109489440918,-1.5601170063018799
1771073185209618000,9.213617919921875,-1.2509212493896484,-1.4102580547332764,-1.1062607765197754
1771073185219558100,9.22355810546875,-2.5628151893615723,-1.0807383060455322,-0.6828125715255737
1771073185229498600,9.23349853515625,-3.686439037322998,-0.8287245035171509,-0.3161853551864624
1771073185239438800,9.24343896484375,-4.554784297943115,-0.6141749620437622,0.024033725261688232
1771073185249379000,9.253379150390625,-5.019571781158447,-0.37365734577178955,0.4020416736602783
1771073185259319600,9.263319580078125,-5.120596408843994,-0.14577889442443848,0.8897503614425659
1771073185269259800,9.273259765625,-5.068714141845703,-0.029567956924438477,1.4344016313552856
1771073185279200000,9.283199951171875,-4.988041877746582,-0.08152318000793457,1.8587578535079956
1771073185289140500,9.293140380859375,-4.811263084411621,-0.2904801368713379,2.211329460144043
1771073185299080700,9.303080810546875,-4.573853969573975,-0.5336829423904419,2.5632596015930176
1771073185309021000,9.31302099609375,-4.26094388961792,-0.7935320138931274,2.8795084953308105
1771073185318961400,9.32296142578125,-3.743032932281494,-1.088292121887207,3.0537502765655518
1771073185328901600,9.332901611328126,-3.4279942512512207,-1.4108402729034424,3.0521531105041504
1771073185338841900,9.342841796875,-3.348158836364746,-1.699859619140625,2.8953840732574463
1771073185348782300,9.3527822265625,-3.4864954948425293,-1.9132490158081055,2.629584312438965
1771073185358722600,9.36272265625,-3.411284923553467,-2.1224851608276367,2.2024197578430176
1771073185368663000,9.3726630859375,-3.009157657623291,-2.388979196548462,1.7661900520324707
1771073185378603300,9.382603271484374,-2.053586959838867,-2.791839599609375,1.4903950691223145
1771073185388543500,9.39254345703125,-1.031743049621582,-3.1782352924346924,1.260591745376587
1771073185398484000,9.40248388671875,-0.10506248474121094,-3.375525712966919,1.0645668506622314
1771073185408424200,9.412424072265624,0.8975801467895508,-3.1727499961853027,0.6679312586784363
1771073185418364400,9.422364501953124,1.729445457458496,-2.567296266555786,-0.03656160831451416
1771073185428305000,9.432304931640624,1.7154054641723633,-1.7426927089691162,-0.15164482593536377
1771073185438245000,9.4422451171875,1.1962003707885742,-0.9210852384567261,0.5498948693275452
1771073185448185300,9.452185302734375,0.7087736129760742,0.07410669326782227,2.00935959815979
1771073185458125800,9.462125732421875,0.8494491577148438,1.3733668327331543,3.930696964263916
1771073185468066000,9.472066162109375,1.371687889099121,2.6578423976898193,5.616838455200195
1771073185478006300,9.48200634765625,2.3598175048828125,3.226931095123291,6.7895612716674805
1771073185487946800,9.49194677734375,3.321272850036621,2.804781675338745,7.185059070587158
1771073185497887000,9.501886962890625,3.8074684143066406,1.576033592224121,6.898829936981201
1771073185507827200,9.5118271484375,3.96468448638916,0.2634706497192383,6.083731651306152
1771073185517767700,9.521767578125,3.902693748474121,-0.8026747703552246,4.8258209228515625
1771073185527708000,9.5317080078125,3.9179868698120117,-1.6145799160003662,3.073237895965576
1771073185537648000,9.541648193359375,4.054184913635254,-2.1537461280822754,1.423548936843872
1771073185547588600,9.551588623046875,4.540172576904297,-2.371877670288086,0.19099140167236328
1771073185557528800,9.56152880859375,5.140210151672363,-2.172900676727295,-0.4727722406387329
1771073185567469000,9.571468994140625,5.054640769958496,-1.4959312677383423,-0.6267240047454834
1771073185577409500,9.581409423828125,4.182095527648926,-0.5323953628540039,-0.43414306640625
1771073185587349800,9.591349853515625,3.0253868103027344,0.3749678134918213,-0.13471722602844238
1771073185597290000,9.6012900390625,2.1771650314331055,0.9785668849945068,0.16060584783554077
1771073185607230500,9.61123046875,1.6713171005249023,1.2013113498687744,0.5138587355613708
1771073185617170700,9.621170654296876,1.4976215362548828,1.161013126373291,0.8902685642242432
1771073185627111000,9.63111083984375,1.5945682525634766,1.0319318771362305,1.1843013763427734
1771073185637051400,9.641051513671876,1.8036880493164062,0.8950881958007812,1.3251758813858032
1771073185646991600,9.65099169921875,2.272740364074707,0.7396359443664551,1.3440220355987549
1771073185656932000,9.66093212890625,2.2847719192504883,0.44086670875549316,1.1322518587112427
1771073185666872300,9.670872314453124,1.8185110092163086,0.05964159965515137,0.7752048969268799
1771073185676812500,9.6808125,0.9997596740722656,-0.2720494270324707,0.3399629592895508
1771073185686753000,9.6907529296875,-0.14702892303466797,-0.4365060329437256,0.0010007023811340332
1771073185696693200,9.700693359375,-1.4786677360534668,-0.538536787033081,-0.2589513063430786
1771073185706633500,9.710633544921874,-2.856987953186035,-0.6734793186187744,-0.45128220319747925
1771073185716574000,9.720573974609374,-4.347451686859131,-0.7449698448181152,-0.37192296981811523
1771073185726514200,9.73051416015625,-5.7003889083862305,-0.6920039653778076,-0.01237565279006958
1771073185736454400,9.740454345703125,-6.893937587738037,-0.6554398536682129,0.40478259325027466
1771073185746395000,9.750394775390625,-7.860794544219971,-0.6549928188323975,0.6861379146575928
1771073185756335000,9.760335205078125,-8.550400733947754,-0.627544641494751,0.8946885466575623
1771073185766275300,9.770275390625,-9.161051750183105,-0.5807898044586182,1.0725493431091309
1771073185776215800,9.7802158203125,-9.849238395690918,-0.7455310821533203,1.0926504135131836
1771073185786156000,9.790156005859375,-10.104056358337402,-0.9827578067779541,0.9507704973220825
1771073185796096300,9.80009619140625,-8.99609375,-0.9881162643432617,0.8886682987213135
1771073185806036700,9.81003662109375,-6.643869876861572,-0.7422559261322021,0.9563136696815491
1771073185815977000,9.81997705078125,-3.5916571617126465,-0.5694904327392578,0.9085574746131897
1771073185825917200,9.829917236328125,0.33292388916015625,-0.6350710391998291,0.9876283407211304
1771073185835857700,9.839857666015625,3.406126022338867,-1.0802515745162964,0.8885332942008972
1771073185845798000,9.8497978515625,5.281465530395508,-1.7413041591644287,1.2416106462478638
1771073185855738000,9.859738037109375,6.632943153381348,-2.1266322135925293,1.5630629062652588
1771073185865678600,9.8696787109375,6.78182315826416,-1.9636849164962769,1.4469599723815918
1771073185875618800,9.879618896484375,6.171137809753418,-1.566130518913269,0.4393828213214874
1771073185885559000,9.88955908203125,4.300571441650391,-1.171362280845642,-1.0741901397705078
1771073185895499500,9.89949951171875,1.3742542266845703,-0.470919132232666,-2.2527642250061035
1771073185915380200,9.919380126953126,-2.4660773277282715,1.3666822910308838,-2.536151885986328
1771073185925320400,9.929320556640626,-1.8363690376281738,1.481142520904541,-0.9784601926803589
1771073185935260700,9.9392607421875,-1.1335697174072266,1.2350351810455322,1.4986960887908936
1771073185945201200,9.949201171875,-0.2876091003417969,1.2455804347991943,3.5197019577026367
1771073185955141400,9.959141357421874,1.841731071472168,1.3094713687896729,4.529595375061035
1771073185965081600,9.96908154296875,5.204233169555664,1.132016658782959,4.755606174468994
1771073185975022000,9.97902197265625,8.544046401977539,0.5263845920562744,4.505712985992432
1771073185984962300,9.98896240234375,10.735790252685547,-0.6830482482910156,3.7401366233825684
1771073185994902500,9.998902587890624,11.254572868347168,-2.258024215698242,2.58493709564209
1771073186004843000,10.008843017578124,10.408891677856445,-3.616915225982666,1.159049153327942
1771073186014783200,10.018783203125,8.60458755493164,-4.384223937988281,-0.5215224027633667
1771073186024723500,10.028723388671875,6.43875789642334,-4.550419807434082,-2.1284852027893066
1771073186034664000,10.038663818359375,4.251313209533691,-4.308093547821045,-3.0862369537353516
1771073186044604200,10.048604248046875,2.2237958908081055,-3.7579917907714844,-3.293599843978882
1771073186054544400,10.05854443359375,0.642765998840332,-2.961871862411499,-2.804683208465576
1771073186064484900,10.06848486328125,-0.41779518127441406,-2.1427948474884033,-2.10203218460083
1771073186074425000,10.078425048828125,-1.1288652420043945,-1.4239925146102905,-1.2096514701843262
1771073186084365300,10.088365234375,-1.9259834289550781,-0.783470630645752,-0.21141231060028076
1771073186094305800,10.098305908203125,-2.8620924949645996,-0.2268385887145996,0.6506226062774658
1771073186104246000,10.10824609375,-3.818772792816162,0.23749470710754395,1.2624481916427612
1771073186114186200,10.118186279296875,-4.652131080627441,0.5941646099090576,1.6338789463043213
1771073186124126700,10.128126708984375,-5.103873252868652,0.8564560413360596,1.9164438247680664
1771073186134067000,10.13806689453125,-5.051383018493652,0.988286018371582,2.2126970291137695
1771073186144007200,10.148007080078125,-4.480399131774902,0.9568793773651123,2.5599637031555176
1771073186153947600,10.15794775390625,-3.779163360595703,0.7459325790405273,2.8549695014953613
1771073186163887900,10.167887939453125,-3.2250823974609375,0.4130244255065918,2.944995880126953
1771073186173828400,10.177828369140625,-2.9023890495300293,0.04362225532531738,2.920956611633301
1771073186183768600,10.1877685546875,-2.7598977088928223,-0.25330066680908203,2.9525198936462402
1771073186193708800,10.197708740234376,-2.7087607383728027,-0.4750969409942627,2.96718692779541
1771073186203649300,10.207649169921876,-2.643505096435547,-0.7335257530212402,2.7505733966827393
1771073186213589500,10.217589599609376,-2.7046008110046387,-1.007851481437683,2.4273571968078613
1771073186223529700,10.22752978515625,-2.884629249572754,-1.2342668771743774,2.0748610496520996
1771073186233470200,10.23747021484375,-2.93276309967041,-1.4288413524627686,1.743476152420044
1771073186243410400,10.247410400390624,-2.9803194999694824,-1.6072096824645996,1.563607096672058
1771073186253350700,10.2573505859375,-3.433810234069824,-1.6796761751174927,1.5655136108398438
1771073186263291100,10.267291015625,-4.025174617767334,-1.5202627182006836,1.6983036994934082
1771073186273231400,10.2772314453125,-4.048322677612305,-1.161480188369751,1.990644097328186
1771073186283171600,10.287171630859374,-3.1376819610595703,-0.8015373945236206,2.3592851161956787
1771073186293112000,10.297112060546874,-1.5961613655090332,-0.6701223850250244,2.892752170562744
1771073186303052300,10.30705224609375,-0.02649402618408203,-0.6116710901260376,3.4162449836730957
1771073186312992500,10.316992431640625,1.409158706665039,-0.658495306968689,3.253034830093384
1771073186322933000,10.32693310546875,2.4537534713745117,-0.902596116065979,2.798492908477783
1771073186332873200,10.336873291015625,2.51779842376709,-1.1428594589233398,2.845487594604492
1771073186342813400,10.3468134765625,1.5991106033325195,-0.8785465955734253,3.605924606323242
1771073186352754000,10.35675390625,0.7042942047119141,-0.03886723518371582,4.4045186042785645
1771073186362694100,10.366694091796875,0.397247314453125,1.0630052089691162,5.269824504852295
1771073186372634400,10.37663427734375,1.5442829132080078,1.6231675148010254,5.757071495056152
1771073186382574800,10.386574951171875,3.514815330505371,1.1444103717803955,6.0049519538879395
1771073186392515000,10.39651513671875,5.333489418029785,-0.08154058456420898,6.131877899169922
1771073186402455300,10.406455322265625,6.928053855895996,-1.5807394981384277,5.819721698760986
1771073186412395800,10.416395751953125,7.801647186279297,-3.0851783752441406,4.844972133636475
1771073186422336000,10.4263359375,7.750775337219238,-4.241205215454102,3.401376485824585
1771073186432276500,10.4362763671875,7.138781547546387,-4.76493501663208,1.8914198875427246
1771073186442216700,10.446216796875,6.388978004455566,-4.555272102355957,0.7280219793319702
1771073186452157000,10.456156982421875,5.732787132263184,-3.7495274543762207,0.4141913652420044
1771073186462097400,10.466097412109375,4.755986213684082,-2.5459635257720947,0.8799548149108887
1771073186472037600,10.47603759765625,3.4045467376708984,-1.214723825454712,1.5718528032302856
1771073186481977900,10.485977783203126,1.9813108444213867,-0.03212141990661621,1.8366519212722778
1771073186491918300,10.49591845703125,1.1472530364990234,0.7857704162597656,1.6900124549865723
1771073186501858600,10.505858642578126,1.2420034408569336,1.2861886024475098,1.5609686374664307
1771073186511798800,10.515798828125,1.7686033248901367,1.5706865787506104,1.7182332277297974
1771073186521739300,10.5257392578125,2.3776931762695312,1.7145404815673828,1.9270203113555908
1771073186531679500,10.535679443359374,2.7754030227661133,1.7189722061157227,1.9813729524612427
1771073186541619700,10.54561962890625,2.8062353134155273,1.5659949779510498,1.7821815013885498
1771073186551560200,10.555560302734374,2.4120521545410156,1.2094287872314453,1.3607699871063232
1771073186561500400,10.56550048828125,1.7296972274780273,0.7433147430419922,0.8799953460693359
1771073186571440600,10.575440673828124,1.1195545196533203,0.333651065826416,0.42025133967399597
1771073186581381000,10.585381103515624,0.8270263671875,-0.01831817626953125,-0.06816066801548004
1771073186591321300,10.5953212890625,0.5914249420166016,-0.35754990577697754,-0.5249850153923035
1771073186601261600,10.605261474609375,0.5135564804077148,-0.6561559438705444,-0.6663821935653687
1771073186611202000,10.6152021484375,0.5391044616699219,-0.7686760425567627,-0.44517984986305237
1771073186621142300,10.625142333984375,0.15538692474365234,-0.705288290977478,0.011910900473594666
1771073186631082500,10.63508251953125,-0.5429096221923828,-0.5474761724472046,0.3790140748023987
1771073186641023000,10.64502294921875,-1.2922487258911133,-0.39253759384155273,0.6577682495117188
1771073186650963200,10.654963134765625,-2.33652925491333,-0.325503945350647,0.8373525142669678
1771073186660903400,10.6649033203125,-3.494417667388916,-0.4054044485092163,0.8501194715499878
1771073186670844000,10.674843994140625,-4.710000038146973,-0.5717493295669556,0.8247641324996948
1771073186680784100,10.6847841796875,-5.689370632171631,-0.7579796314239502,0.6890673637390137
1771073186690724400,10.694724365234375,-6.179561614990234,-1.022080659866333,0.41845956444740295
1771073186700664800,10.704664794921875,-6.2449445724487305,-1.4713176488876343,-0.05220261216163635
1771073186710605000,10.71460498046875,-5.678889274597168,-1.982081651687622,-0.4393051266670227
1771073186720545500,10.724545654296875,-4.756185531616211,-2.2711968421936035,-0.4259820580482483
1771073186730485800,10.73448583984375,-3.2005558013916016,-2.403050184249878,-0.36325526237487793
1771073186740426000,10.744426025390625,-1.441777229309082,-2.5608768463134766,-0.22887852787971497
1771073186750366500,10.754366455078125,0.0314788818359375,-2.567258834838867,0.13538213074207306
1771073186760306700,10.764306640625,0.8999443054199219,-2.1748504638671875,1.1104884147644043
1771073186770247000,10.774246826171876,1.0127859115600586,-1.2616420984268188,2.2609786987304688
1771073186780187400,10.7841875,0.8900270462036133,-0.2557806968688965,2.4408798217773438
1771073186790127600,10.794127685546876,0.48700618743896484,0.5833442211151123,1.6165151596069336
1771073186800067800,10.80406787109375,-0.5748472213745117,1.389235496520996,0.08318964391946793
1771073186810008300,10.81400830078125,-1.8709359169006348,1.9690577983856201,-1.6283680200576782
1771073186819948500,10.823948486328124,-2.6626152992248535,2.0248143672943115,-3.011059522628784
1771073186829888800,10.833888671875,-2.763044834136963,1.4438176155090332,-3.5543408393859863
1771073186839829200,10.843829345703124,-2.3307547569274902,0.31171584129333496,-2.900893211364746
1771073186849769500,10.85376953125,-1.6343536376953125,-0.6126012802124023,-1.588835597038269
1771073186859709700,10.863709716796874,-0.3427104949951172,-0.746798038482666,-0.30426526069641113
1771073186869650200,10.873650146484374,1.9847602844238281,-0.16796112060546875,0.6785291433334351
1771073186879590400,10.88359033203125,5.006620407104492,0.6478347778320312,1.6100170612335205
1771073186889530600,10.893530517578125,7.606698989868164,1.2884790897369385,2.5911498069763184
1771073186899471000,10.90347119140625,9.047221183776855,1.3614482879638672,3.275418996810913
1771073186909411300,10.913411376953125,9.040084838867188,0.8537757396697998,3.3453071117401123
1771073186919351600,10.9233515625,7.847505569458008,0.16576766967773438,2.6987497806549072
1771073186929292000,10.9332919921875,5.807408332824707,-0.4028804302215576,1.4986653327941895
1771073186939232300,10.943232177734375,3.702040672302246,-0.7801146507263184,0.15616929531097412
1771073186949172500,10.95317236328125,2.1197280883789062,-0.9518899917602539,-0.6896297335624695
1771073186959113000,10.963113037109375,1.1953229904174805,-1.029820203781128,-0.9214637279510498
1771073186969053200,10.97305322265625,0.8361415863037109,-1.1157804727554321,-0.8219012022018433
1771073186978993700,10.98299365234375,1.0635251998901367,-1.114314317703247,-0.4446219205856323
1771073186988934000,10.992933837890625,1.335031509399414,-1.0585529804229736,-0.11741964519023895
1771073186998874000,11.0028740234375,1.2880573272705078,-1.0262296199798584,-0.002750188112258911
1771073187008814600,11.012814697265625,0.8772878646850586,-0.9717069864273071,-0.003723248839378357
1771073187018754800,11.0227548828125,0.006207466125488281,-0.8883559703826904,0.1358954757452011
1771073187028695000,11.032695068359375,-0.8992023468017578,-0.7378506660461426,0.39218997955322266
1771073187038635500,11.042635498046875,-1.9137840270996094,-0.6156309843063354,0.608833372592926
1771073187048575700,11.05257568359375,-3.076725959777832,-0.5840022563934326,0.6775956749916077
1771073187058516000,11.062515869140626,-4.353667736053467,-0.6002153158187866,0.6611964702606201
1771073187068456400,11.07245654296875,-5.548578262329102,-0.6173998117446899,0.6351335644721985
1771073187078396700,11.082396728515626,-6.377765655517578,-0.5695104598999023,0.6437098979949951
1771073187088337000,11.0923369140625,-6.617092132568359,-0.5420517921447754,0.6484302878379822
1771073187098277400,11.10227734375,-6.191738128662109,-0.6613950729370117,0.6807739734649658
1771073187108217600,11.112217529296874,-5.3500566482543945,-0.9681859016418457,0.7363027334213257
1771073187118157800,11.12215771484375,-4.578047275543213,-1.3925888538360596,0.8030451536178589
1771073187128098300,11.132098388671874,-4.0479326248168945,-1.6717742681503296,1.037024736404419
1771073187138038500,11.14203857421875,-3.5929665565490723,-1.742790937423706,1.5145671367645264
1771073187147978800,11.151978759765624,-3.36494779586792,-1.7030150890350342,1.9830466508865356
1771073187157919200,11.161919189453124,-3.480226516723633,-1.4842321872711182,2.455650806427002
1771073187167859500,11.171859375,-3.795313835144043,-1.1941571235656738,2.8435914516448975
1771073187177799700,11.181799560546875,-4.246521472930908,-0.9185447692871094,2.9411818981170654
1771073187187740200,11.191740234375,-4.649399757385254,-0.6896741390228271,2.7587594985961914
1771073187197680400,11.201680419921875,-4.575987815856934,-0.5558410882949829,2.3755922317504883
1771073187207620600,11.21162060546875,-3.906187057495117,-0.7032549381256104,1.9705787897109985
1771073187217561000,11.22156103515625,-2.760118007659912,-1.025847315788269,2.044175148010254
1771073187227501300,11.231501220703125,-1.6947531700134277,-1.209857702255249,2.461168050765991
1771073187237441800,11.24144189453125,-0.25574493408203125,-1.327845811843872,2.186983108520508
1771073187247382000,11.251382080078125,1.3827457427978516,-1.2766473293304443,1.4851105213165283
1771073187257322200,11.261322265625,2.739543914794922,-1.0742919445037842,0.9552041888237
1771073187267262700,11.2712626953125,3.090190887451172,-0.7899625301361084,1.2618257999420166
1771073187277203000,11.281202880859375,2.674917221069336,-0.36012470722198486,2.290281295776367
1771073187287143200,11.29114306640625,2.6110687255859375,0.3430684804916382,3.3796305656433105
1771073187297083600,11.301083740234375,3.488541603088379,1.2962619066238403,4.303287982940674
1771073187307024000,11.31102392578125,5.32917594909668,2.127849578857422,5.15055513381958
1771073187316964000,11.320964111328125,7.382388114929199,2.311213731765747,5.974282264709473
1771073187326904600,11.330904541015625,8.732573509216309,1.6935874223709106,6.4535231590271
1771073187336844800,11.3408447265625,9.1486177444458,0.5216927528381348,6.144003868103027
1771073187346785000,11.350784912109376,8.556673049926758,-0.5528134107589722,5.116901397705078
1771073187356725500,11.3607255859375,7.190011024475098,-1.2367191314697266,3.5962796211242676
1771073187366665700,11.370665771484376,5.504549026489258,-1.5967953205108643,1.9682506322860718
1771073187376606000,11.38060595703125,4.270035743713379,-1.7756733894348145,0.7929238080978394
1771073187386546400,11.39054638671875,3.7417612075805664,-1.870327353477478,0.044841744005680084
1771073187396486700,11.400486572265624,4.082959175109863,-1.8888270854949951,-0.18891966342926025
1771073187406427000,11.410427001953124,4.6960954666137695,-1.9714059829711914,-0.36103272438049316
1771073187416367400,11.420367431640624,5.092935562133789,-2.0408265590667725,-0.7277260422706604
1771073187426307600,11.4303076171875,5.065692901611328,-1.9013813734054565,-0.9876502752304077
1771073187436247800,11.440247802734374,4.597506523132324,-1.398313045501709,-1.031076192855835
1771073187446188300,11.450188232421874,3.4962005615234375,-0.5748305320739746,-0.9094634056091309
1771073187456128500,11.46012841796875,2.109058380126953,0.17959606647491455,-0.929174542427063
1771073187466068700,11.47006884765625,0.7558355331420898,0.564704179763794,-1.2173610925674438
1771073187476009200,11.48000927734375,-0.6718530654907227,0.5931828022003174,-1.5881139039993286
1771073187485949400,11.489949462890625,-2.062350273132324,0.41621339321136475,-1.9100995063781738
1771073187495889700,11.4998896484375,-3.275644302368164,0.1821824312210083,-2.1714556217193604
1771073187505830100,11.509830078125,-4.245819091796875,0.05644524097442627,-2.2911243438720703
1771073187515770400,11.519770263671875,-5.038357734680176,0.036019325256347656,-2.1146953105926514
1771073187525710800,11.5297109375,-5.582302570343018,0.16985392570495605,-1.738422155380249
1771073187535651000,11.539651123046875,-5.749461650848389,0.3868725299835205,-1.34773588180542
1771073187545591300,11.54959130859375,-5.538365364074707,0.5930094718933105,-1.0162991285324097
1771073187555531800,11.55953173828125,-5.188736438751221,0.6358438730239868,-0.783768892288208
1771073187565472000,11.569471923828125,-4.886993885040283,0.5561442375183105,-0.4779926836490631
1771073187575412200,11.579412109375,-4.6639862060546875,0.4172840118408203,-0.09471279382705688
1771073187585352700,11.589352783203125,-4.340505123138428,0.29571533203125,0.25020933151245117
1771073187595293000,11.59929296875,-3.814202308654785,0.19564282894134521,0.43368983268737793
1771073187605233200,11.609233154296875,-3.3287644386291504,-0.001886129379272461,0.47809600830078125
1771073187615173600,11.619173583984375,-2.8543434143066406,-0.4525907039642334,0.20550471544265747
1771073187625113900,11.62911376953125,-2.4040160179138184,-1.1361359357833862,-0.06351983547210693
1771073187635054000,11.63905419921875,-1.9047117233276367,-1.9099763631820679,-0.4634208083152771
1771073187644994600,11.64899462890625,-1.202418327331543,-2.6479196548461914,-1.0083986520767212
1771073187654934800,11.658934814453126,-0.46592044830322266,-3.170152187347412,-1.3566523790359497
1771073187664875000,11.668875,0.1269092559814453,-3.4371280670166016,-1.37098228931427
1771073187674815500,11.6788154296875,0.5036592483520508,-3.005679130554199,-0.8040081262588501
1771073187684755700,11.688755615234374,1.0522699356079102,-1.8288172483444214,-0.3506636619567871
1771073187694696000,11.698696044921874,1.7472600936889648,-0.5728610754013062,-0.37889206409454346
1771073187704636400,11.708636474609374,1.5355167388916016,1.0723345279693604,-0.30167779326438904
1771073187714576600,11.71857666015625,0.2606840133666992,2.7124900817871094,-0.9140940308570862
1771073187724516900,11.728516845703124,-1.4317216873168945,3.8668723106384277,-2.3423101902008057
1771073187734457300,11.738457275390624,-2.288794994354248,4.475401878356934,-3.7285854816436768
1771073187744397600,11.7483974609375,-1.5657463073730469,4.157066345214844,-4.0318098068237305
1771073187754337800,11.758337890625,0.024595260620117188,2.7491261959075928,-2.9422543048858643
1771073187764278300,11.7682783203125,1.63543701171875,1.4397313594818115,-0.9641825556755066
1771073187774218500,11.778218505859375,3.222081184387207,1.2147252559661865,1.2118337154388428
1771073187784159000,11.788158935546875,5.140420913696289,1.7195861339569092,2.7941603660583496
1771073187794099200,11.79809912109375,7.205440521240234,2.0245912075042725,3.32183575630188
1771073187804039400,11.808039306640625,8.976190567016602,1.717620849609375,2.9522202014923096
1771073187813980000,11.81797998046875,10.037951469421387,0.7898716926574707,1.863405704498291
1771073187823920000,11.827920166015625,10.006926536560059,-0.5731370449066162,0.28639209270477295
1771073187833860400,11.8378603515625,8.75059700012207,-1.9373968839645386,-1.3969001770019531
1771073187843800800,11.84780078125,6.913485527038574,-2.8947343826293945,-2.9301836490631104
1771073187853741000,11.857740966796875,4.826475143432617,-3.291959762573242,-3.8506267070770264
1771073187863681300,11.867681396484375,2.8679723739624023,-3.108344554901123,-3.981501340866089
1771073187873621800,11.877621826171875,1.2744026184082031,-2.552136182785034,-3.5763437747955322
1771073187883562000,11.88756201171875,-0.07678890228271484,-2.020967960357666,-3.0530779361724854
1771073187893502200,11.897502197265625,-1.2194709777832031,-1.6593005657196045,-2.3820531368255615
1771073187903442700,11.907442626953125,-2.2282967567443848,-1.4434971809387207,-1.6807469129562378
1771073187913383000,11.9173828125,-3.16591739654541,-1.3524011373519897,-1.1655993461608887
1771073187923323100,11.9273232421875,-3.839421272277832,-1.350653886795044,-0.8244962692260742
1771073187933263600,11.937263671875,-4.240056037902832,-1.4512189626693726,-0.5657063722610474
1771073187943203800,11.947203857421876,-4.463757514953613,-1.6249959468841553,-0.3050381541252136
1771073187953144000,11.95714404296875,-4.500912189483643,-1.8007328510284424,0.007382988929748535
1771073187963084500,11.96708447265625,-4.429998874664307,-1.8983182907104492,0.3324015140533447
1771073187973024800,11.977024658203124,-4.327025890350342,-1.8653149604797363,0.804641842842102
1771073187982965000,11.986965087890624,-4.3181867599487305,-1.7384579181671143,1.3960652351379395
1771073187992905500,11.996905517578124,-4.546567916870117,-1.6194350719451904,1.931617021560669
1771073188002845700,12.006845703125,-4.871245384216309,-1.5674000978469849,2.3743691444396973
1771073188012786000,12.016785888671874,-5.015726089477539,-1.5428508520126343,2.733412981033325
1771073188022726400,12.026726318359374,-5.057598114013672,-1.5183500051498413,3.028468608856201
1771073188032666600,12.03666650390625,-4.873502254486084,-1.452514886856079,3.3894829750061035
1771073188042607000,12.046607177734375,-4.583361625671387,-1.3762876987457275,3.5381317138671875
1771073188052547300,12.05654736328125,-4.227723598480225,-1.2412265539169312,3.61626935005188
1771073188062487600,12.066487548828125,-3.682074546813965,-1.1502370834350586,3.564464569091797
1771073188072428000,12.076427978515625,-2.903359889984131,-1.0505337715148926,3.4943788051605225
1771073188082368300,12.0863681640625,-2.056835174560547,-0.7847514152526855,3.663668394088745
1771073188092308500,12.09630859375,-1.0086030960083008,-0.5339615345001221,3.885270595550537
1771073188102249000,12.1062490234375,0.29531097412109375,-0.5297095775604248,4.065204620361328
1771073188112189200,12.116189208984375,1.5488080978393555,-0.838698148727417,4.108078956604004
1771073188122129400,12.12612939453125,3.081401824951172,-0.7979298830032349,3.5579164028167725
1771073188132070000,12.13606982421875,4.612584114074707,-0.13247084617614746,2.4306797981262207
1771073188142010000,12.146010009765625,5.392419815063477,0.6108212471008301,1.7814931869506836
1771073188151950300,12.155950439453125,4.621652603149414,1.0826022624969482,1.8533194065093994
1771073188161890800,12.165890869140625,2.482616424560547,1.6351251602172852,2.418452262878418
1771073188171831000,12.1758310546875,-0.07324600219726562,2.567600965499878,2.792987823486328
1771073188181771300,12.185771240234375,-2.0906214714050293,4.1741790771484375,2.792550802230835
1771073188191711700,12.195711669921875,-2.002131462097168,5.575557708740234,3.023833751678467
1771073188201652000,12.20565185546875,0.3450469970703125,5.595426559448242,3.955399990081787
1771073188211592200,12.21559228515625,2.6616134643554688,3.88309907913208,4.760422229766846
1771073188221532700,12.22553271484375,5.054482460021973,1.5904262065887451,4.735319137573242
1771073188231473000,12.235472900390626,7.8615007400512695,-0.6857345104217529,3.533510208129883
1771073188241413000,12.2454130859375,10.084596633911133,-2.8196051120758057,1.4075398445129395
1771073188251353600,12.255353515625,10.953201293945312,-4.675110816955566,-0.8755356073379517
1771073188261293800,12.2652939453125,10.583648681640625,-5.9882493019104,-2.873894214630127
1771073188271234000,12.275234130859374,9.039857864379883,-6.425887107849121,-4.425269603729248
1771073188281174500,12.285174560546874,7.041515350341797,-5.959208011627197,-5.317901611328125
1771073188291114800,12.29511474609375,4.804346084594727,-4.807718753814697,-5.3834638595581055
1771073188301055000,12.305054931640624,2.6603612899780273,-3.326983690261841,-4.912901878356934
1771073188310995500,12.314995361328124,0.6953353881835938,-2.0081887245178223,-4.195733547210693
1771073188320935700,12.324935791015625,-0.8752059936523438,-1.0880070924758911,-3.5369908809661865
1771073188330876200,12.334876220703125,-2.0173258781433105,-0.46622157096862793,-2.763526439666748
1771073188340816400,12.34481640625,-3.033669948577881,0.021831750869750977,-1.772533893585205
1771073188350756600,12.354756591796875,-3.9995336532592773,0.3448948860168457,-0.9440301656723022
1771073188360697000,12.364697021484375,-4.703042030334473,0.5827064514160156,-0.41479820013046265
1771073188370637300,12.37463720703125,-5.264470100402832,0.7687404155731201,-0.0926826000213623
1771073188380577500,12.38457763671875,-5.5956711769104,0.8664627075195312,0.040931880474090576
1771073188390518000,12.39451806640625,-5.553478240966797,0.850100040435791,0.12520599365234375
1771073188400458200,12.404458251953125,-5.470443248748779,0.7721846103668213,0.2949828505516052
1771073188410398500,12.4143984375,-5.27703332901001,0.7141995429992676,0.5204859375953674
1771073188420339000,12.4243388671875,-5.042281150817871,0.6681234836578369,0.7018108367919922
1771073188430279200,12.434279052734375,-5.100406646728516,0.5690708160400391,0.7601698040962219
1771073188440219400,12.444219482421875,-5.539239883422852,0.3577439785003662,0.7164270281791687
1771073188450159900,12.454159912109375,-5.8990349769592285,0.12916064262390137,0.6697927117347717
1771073188460100000,12.46410009765625,-6.03718376159668,-0.06929326057434082,0.6236473321914673
1771073188470040300,12.474040283203125,-5.764528274536133,-0.26280999183654785,0.33064043521881104
1771073188479980800,12.483980712890625,-5.111656665802002,-0.5596171617507935,-0.18920904397964478
1771073188489921000,12.493921142578126,-4.109607696533203,-0.7908040285110474,-0.36404895782470703
1771073188499861200,12.503861328125,-2.3723292350769043,-0.8798441886901855,-0.3702220916748047
1771073188509801700,12.5138017578125,-0.460174560546875,-1.0348966121673584,-0.49169495701789856
1771073188519742000,12.523741943359376,0.8119802474975586,-1.3794373273849487,-0.6424100995063782
1771073188529682200,12.53368212890625,1.5831298828125,-1.8431236743927002,-0.5809078216552734
1771073188539622700,12.54362255859375,2.1202478408813477,-2.2278146743774414,-0.4937732219696045
1771073188549563000,12.55356298828125,2.732560157775879,-2.016796827316284,-0.365084707736969
1771073188559503000,12.563503173828124,3.0993804931640625,-0.9763598442077637,-0.3484288454055786
1771073188569443600,12.573443603515624,4.44091796875,0.11076545715332031,-0.8151617050170898
1771073188579383800,12.5833837890625,5.257136344909668,1.0990915298461914,-1.6680312156677246
1771073188589324300,12.59332421875,4.161384582519531,1.9143521785736084,-2.869201898574829
1771073188599264500,12.603264404296874,1.8738489151000977,2.3927485942840576,-4.275444030761719
1771073188609204700,12.613204833984375,0.16433238983154297,2.2603156566619873,-5.4050397872924805
1771073188619145200,12.623145263671875,-0.16512012481689453,1.5378172397613525,-4.950998306274414
1771073188629085400,12.63308544921875,0.8447647094726562,0.782646894454956,-2.831174612045288
1771073188639025700,12.643025634765625,1.7591619491577148,0.9469478130340576,-0.23103314638137817
1771073188648966100,12.652966064453125,2.044369697570801,1.86399507522583,2.013833999633789
1771073188658906400,12.66290625,2.845060348510742,2.7072083950042725,3.1106791496276855
1771073188668846600,12.6728466796875,4.434541702270508,2.845212697982788,3.040649890899658
1771073188678787000,12.682787109375,5.374733924865723,2.0869643688201904,2.397029161453247
1771073188688727300,12.692727294921875,5.033818244934082,0.9789817333221436,1.8057472705841064
1771073188698667500,12.70266748046875,4.139995574951172,-0.14500880241394043,0.6062763333320618
