time,seconds_elapsed,z,y,x
1771073176104279800,0.10827978515625,-0.04434159770607948,0.40453386306762695,0.13555480539798737
1771073176114216400,0.118216552734375,0.0025300011038780212,0.4641886353492737,0.040746334940195084
1771073176124153600,0.128153564453125,0.06751108169555664,0.4162517786026001,-0.06258423626422882
1771073176144029400,0.148029541015625,0.14634059369564056,0.3970770239830017,-0.05193160101771355
1771073176153968400,0.157968505859375,0.1069258376955986,0.3459443747997284,0.036485280841588974
1771073176163907800,0.167907958984375,0.017443692311644554,0.24474431574344635,0.12596742808818817
1771073176173848300,0.177848388671875,-0.0858868807554245,0.13182637095451355,0.1771000772714615
1771073176183789300,0.187789306640625,-0.15406376123428345,0.016777902841567993,0.13235901296138763
1771073176193731000,0.19773095703125,-0.14447638392448425,-0.05566002428531647,-0.0007989477599039674
1771073176203673300,0.20767333984375,-0.07736477255821228,-0.05352949723601341,-0.15526217222213745
1771073176213615900,0.217615966796875,-0.013448953628540039,-0.060986343771219254,-0.25859275460243225
1771073176223559000,0.227558837890625,0.028096329420804977,-0.06311687082052231,-0.29268118739128113
1771073176233502200,0.237502197265625,0.03981423005461693,-0.048203181475400925,-0.30546435713768005
1771073176243445800,0.24744580078125,0.02277000993490219,-0.06524740159511566,-0.30013802647590637
1771073176253388800,0.257388916015625,-0.009187898598611355,-0.05779055133461952,-0.2607232630252838
1771073176263329000,0.2673291015625,-0.039015281945466995,-0.017310533672571182,-0.20532956719398499
1771073176273269200,0.277269287109375,-0.07843003422021866,-0.02263685315847397,-0.1435442715883255
1771073176283209700,0.287209716796875,-0.10825742036104202,-0.08761793375015259,-0.08495477586984634
1771073176293150000,0.29714990234375,-0.13488900661468506,-0.1856221854686737,-0.012516847811639309
1771073176303090400,0.30709033203125,-0.1615206003189087,-0.2708432674407959,0.08761793375015259
1771073176313030700,0.31703076171875,-0.18602167069911957,-0.3326285779476166,0.21118851006031036
1771073176322971000,0.326970947265625,-0.20519641041755676,-0.3880222737789154,0.34221595525741577
1771073176332911400,0.336911376953125,-0.21904483437538147,-0.4221107065677643,0.45619916915893555
1771073176342851600,0.3468515625,-0.21904483437538147,-0.4348938763141632,0.5318328738212585
1771073176352791800,0.356791748046875,-0.19987009465694427,-0.4295675754547119,0.5499423742294312
1771073176362732300,0.366732177734375,-0.16258586943149567,-0.4125233590602875,0.5265065431594849
1771073176372672500,0.376672607421875,-0.11145320534706116,-0.3741738498210907,0.492418110370636
1771073176382612700,0.38661279296875,-0.05712476372718811,-0.3368896245956421,0.45619916915893555
1771073176392553200,0.39655322265625,-0.011318426579236984,-0.3134538233280182,0.4157191216945648
1771073176402493400,0.406493408203125,0.00892158318310976,-0.2697780132293701,0.36245596408843994
1771073176412433700,0.41643359375,0.001464737462811172,-0.2005358785390854,0.30067065358161926
1771073176422374100,0.4263740234375,-0.02516685426235199,-0.09933583438396454,0.237820103764534
1771073176432314400,0.436314453125,-0.06138581782579422,0.016777902841567993,0.1664474457502365
1771073176442254600,0.446254638671875,-0.10506162792444229,0.110521100461483,0.08548741042613983
1771073176452195000,0.456195068359375,-0.1561942845582962,0.16058848798274994,-0.0018642114009708166
1771073176462135300,0.46613525390625,-0.2083922028541565,0.17763271927833557,-0.08069372177124023
1771073176472075500,0.476075439453125,-0.2456764280796051,0.1765674501657486,-0.13715268671512604
1771073176482016000,0.48601611328125,-0.2595248520374298,0.18402428925037384,-0.18295903503894806
1771073176491956200,0.495956298828125,-0.24780695140361786,0.18295903503894806,-0.23515695333480835
1771073176501896400,0.505896484375,-0.21371851861476898,0.16378428041934967,-0.28309381008148193
1771073176511837000,0.5158369140625,-0.1700427085161209,0.10945583879947662,-0.3129211962223053
1771073176521777200,0.525777099609375,-0.12743216753005981,0.019973693415522575,-0.3129211962223053
1771073176531717400,0.53571728515625,-0.09227846562862396,-0.0727042406797409,-0.2937464416027069
1771073176541657900,0.545657958984375,-0.0762995108962059,-0.15899059176445007,-0.25859275460243225
1771073176551598000,0.55559814453125,-0.08482161909341812,-0.21758009493350983,-0.19361166656017303
1771073176561538600,0.56553857421875,-0.10399636626243591,-0.21331904828548431,-0.11371689289808273
1771073176571478800,0.575478759765625,-0.11145320534706116,-0.14194637537002563,-0.03701791167259216
1771073176581419000,0.5854189453125,-0.09760478138923645,-0.027963170781731606,0.01837579719722271
1771073176591359500,0.595359375,-0.052863709628582,0.10519478470087051,0.05352949723601341
1771073176601299700,0.6052998046875,0.01850895583629608,0.21065588295459747,0.07590003311634064
1771073176611240000,0.615239990234375,0.09840372949838638,0.280963271856308,0.08868319541215897
1771073176621180400,0.625180419921875,0.1399490088224411,0.3214432895183563,0.019441060721874237
1771073176631120600,0.63512060546875,0.10586057603359222,0.42370861768722534,-0.09880319982767105
1771073176641060900,0.645060791015625,0.10479531437158585,0.5302349925041199,-0.07217161357402802
1771073176651001300,0.65500146484375,0.08881635963916779,0.5408875942230225,-0.09773793816566467
1771073176660941600,0.664941650390625,0.06644582003355026,0.49934232234954834,-0.09347688406705856
1771073176670881800,0.6748818359375,0.0366184376180172,0.4492749273777008,-0.05938844755291939
1771073176680822300,0.684822265625,-0.0006657897611148655,0.391750693321228,-0.016777902841567993
1771073176690762500,0.694762451171875,-0.04114580899477005,0.33848753571510315,0.029028434306383133
1771073176700702700,0.70470263671875,-0.08482161909341812,0.26818013191223145,0.07376950979232788
1771073176710643200,0.714643310546875,-0.12104058265686035,0.1957421898841858,0.11851058155298233
1771073176720583400,0.72458349609375,-0.14767217636108398,0.15419691801071167,0.1579253375530243
1771073176730523600,0.734523681640625,-0.15939007699489594,0.1435442715883255,0.18029586970806122
1771073176740464000,0.744464111328125,-0.14128059148788452,0.11584742367267609,0.1994706094264984
1771073176750404400,0.754404296875,-0.10612688958644867,0.03488738462328911,0.19840535521507263
1771073176760344600,0.764344482421875,-0.06138581782579422,-0.08122635632753372,0.17070849239826202
1771073176770285000,0.77428515625,-0.02197106182575226,-0.19734008610248566,0.11957584321498871
1771073176780225300,0.784225341796875,-0.011318426579236984,-0.27403905987739563,0.04181159660220146
1771073176790165500,0.79416552734375,-0.026232117787003517,-0.24847275018692017,-0.04980107396841049
1771073176800106000,0.80410595703125,-0.03688475489616394,-0.13235901296138763,-0.14034847915172577
1771073176810046200,0.814046142578125,-0.015579480677843094,0.029561065137386322,-0.24367906153202057
1771073176829927000,0.833927001953125,0.13888375461101532,0.4588623046875,-0.42370861768722534
1771073176839867100,0.8438671875,0.2155827283859253,0.5898897647857666,-0.5153213143348694
1771073176849807600,0.8538076171875,0.27949854731559753,0.6005423665046692,-0.6229129433631897
1771073176859747800,0.863747802734375,0.3178480267524719,0.5195823311805725,-0.7368960976600647
1771073176869688000,0.87368798828125,0.29760801792144775,0.36724963784217834,-0.8562056422233582
1771073176879628500,0.883628662109375,0.16977639496326447,0.21598219871520996,-0.9339699149131775
1771073176889568800,0.89356884765625,-0.04008054360747337,0.018908429890871048,-0.9222519993782043
1771073176899509000,0.903509033203125,-0.2701774835586548,-0.21758009493350983,-0.8402267098426819
1771073176909449500,0.913449462890625,-0.4864259958267212,-0.416784405708313,-0.6580666303634644
1771073176919389700,0.9233896484375,-0.6675208210945129,-0.5531381368637085,-0.391750693321228
1771073176929330700,0.93333056640625,-0.7985482811927795,-0.6245108246803284,-0.09028109163045883
1771073176939271400,0.943271484375,-0.8518114686012268,-0.5989444851875305,0.19627483189105988
1771073176949212000,0.9532119140625,-0.8177229762077332,-0.47963494062423706,0.44767704606056213
1771073176959152000,0.963152099609375,-0.730371356010437,-0.3230412006378174,0.6383592486381531
1771073176969092600,0.973092529296875,-0.6281060576438904,-0.18242639303207397,0.7459508776664734
1771073176979032800,0.98303271484375,-0.5205144286155701,-0.08442214131355286,0.7757782340049744
1771073176988973000,0.99297314453125,-0.4299670457839966,-0.0684431865811348,0.7459508776664734
1771073176998913500,1.00291357421875,-0.37457332015037537,-0.13981585204601288,0.6799045205116272
1771073177008853800,1.012853759765625,-0.3585943877696991,-0.2708432674407959,0.5957486629486084
1771073177018794000,1.0227939453125,-0.3681817352771759,-0.4348938763141632,0.4881570637226105
1771073177028734500,1.032734375,-0.40333545207977295,-0.5936181545257568,0.34754225611686707
1771073177038674700,1.0426748046875,-0.45127230882644653,-0.7246456146240234,0.16005586087703705
1771073177048615000,1.052614990234375,-0.5045354962348938,-0.8194540739059448,-0.07430213689804077
1771073177058555400,1.062555419921875,-0.5609944462776184,-0.86952143907547,-0.3448790907859802
1771073177068495600,1.07249560546875,-0.6238450407981873,-0.8588688373565674,-0.638891875743866
1771073177078435800,1.082435791015625,-0.6930871605873108,-0.8471509218215942,-0.9147951602935791
1771073177088376300,1.092376220703125,-0.7474156022071838,-0.8290414214134216,-1.0564751625061035
1771073177098316500,1.102316650390625,-0.7825692892074585,-0.7065361142158508,-1.0351699590682983
1771073177108256800,1.1122568359375,-0.8187882900238037,-0.5563339591026306,-0.9211867451667786
1771073177118197200,1.122197265625,-0.8486156463623047,-0.45087283849716187,-0.777376115322113
1771073177128137500,1.132137451171875,-0.859268307685852,-0.3848264813423157,-0.6484792232513428
1771073177138077700,1.14207763671875,-0.8305061459541321,-0.3358243703842163,-0.5589970946311951
1771073177148018200,1.15201806640625,-0.7612640261650085,-0.30599698424339294,-0.5067991614341736
1771073177157958400,1.16195849609375,-0.6866955757141113,-0.3219759464263916,-0.4972118139266968
1771073177167898600,1.171898681640625,-0.6302366256713867,-0.3688475489616394,-0.5099949836730957
1771073177177839000,1.181839111328125,-0.587626039981842,-0.41891491413116455,-0.5206475853919983
1771073177187779300,1.191779296875,-0.5577986836433411,-0.4263717830181122,-0.517451822757721
1771073177197719800,1.2017197265625,-0.5439502596855164,-0.3752391040325165,-0.517451822757721
1771073177207660000,1.211659912109375,-0.5471460223197937,-0.27403905987739563,-0.5291697382926941
1771073177217600300,1.221600341796875,-0.5503418445587158,-0.15686006844043732,-0.5430181622505188
1771073177227540700,1.231540771484375,-0.5322323441505432,-0.06524740159511566,-0.5398223400115967
1771073177237481000,1.24148095703125,-0.4992091655731201,-0.0002663159102667123,-0.5036033987998962
1771073177247421200,1.251421142578125,-0.45446810126304626,0.06151897460222244,-0.43223071098327637
1771073177257361700,1.261361572265625,-0.40440070629119873,0.1201084777712822,-0.33422645926475525
1771073177267302000,1.271302001953125,-0.35220280289649963,0.12330426275730133,-0.21598219871520996
1771073177277242000,1.2812421875,-0.30959224700927734,0.05832318589091301,-0.08921582996845245
1771073177287182600,1.2911826171875,-0.29467856884002686,-0.05566002428531647,0.024767380207777023
1771073177297122800,1.301122802734375,-0.32876700162887573,-0.19840535521507263,0.11851058155298233
1771073177307063000,1.31106298828125,-0.4001396596431732,-0.31451907753944397,0.1994706094264984
1771073177317003500,1.32100341796875,-0.4491417706012726,-0.36778226494789124,0.28149592876434326
1771073177326943700,1.33094384765625,-0.45553335547447205,-0.3518033027648926,0.3741738498210907
1771073177336884000,1.340884033203125,-0.42677125334739685,-0.2559295892715454,0.481765478849411
1771073177346824400,1.350824462890625,-0.34687647223472595,-0.04713791608810425,0.6106624007225037
1771073177356764700,1.3607646484375,-0.203065887093544,0.24474431574344635,0.7757782340049744
1771073177366705000,1.370704833984375,-0.01664474420249462,0.5941507816314697,0.9590035676956177
1771073177376645400,1.380645263671875,0.15805849432945251,0.8743151426315308,1.1028141975402832
1771073177386585600,1.390585693359375,0.2901511788368225,1.0724542140960693,1.1486204862594604
1771073177396525800,1.40052587890625,0.37324175238609314,1.1150647401809692,1.079378366470337
1771073177406466300,1.41046630859375,0.3977428078651428,0.936100423336029,0.8876309394836426
1771073177416406500,1.420406494140625,0.35513225197792053,0.571780264377594,0.6085318326950073
1771073177426346800,1.4303466796875,0.27310696244239807,0.2277000993490219,0.3518033027648926
1771073177436287200,1.440287353515625,0.19534271955490112,0.09560741484165192,0.22716747224330902
1771073177446227500,1.4502275390625,0.14314480125904083,0.20639483630657196,0.22290641069412231
1771073177456168000,1.46016796875,0.08455529808998108,0.4109254479408264,0.24101589620113373
1771073177466108200,1.470108154296875,0.014247900806367397,0.5696497559547424,0.21544957160949707
1771073177476048400,1.48004833984375,-0.004926844500005245,0.5866939425468445,0.11744531989097595
1771073177485988900,1.48998876953125,0.061119500547647476,0.4258391261100769,-0.01784316636621952
1771073177495929000,1.49992919921875,0.15592797100543976,0.17337165772914886,-0.12863057851791382
1771073177505869300,1.509869384765625,0.2432795912027359,-0.05779055133461952,-0.16591481864452362
1771073177515809800,1.519809814453125,0.2869553864002228,-0.21758009493350983,-0.12330426275730133
1771073177525750000,1.52975,0.27417221665382385,-0.3400854170322418,-0.0636495053768158
1771073177535690200,1.539690185546875,0.23688800632953644,-0.44661179184913635,-0.035952646285295486
1771073177545630700,1.549630615234375,0.20706062018871307,-0.5105276107788086,-0.05512739345431328
1771073177555571000,1.559571044921875,0.20812588930130005,-0.5158539414405823,-0.09773793816566467
1771073177565511200,1.56951123046875,0.2486059069633484,-0.4860265254974365,-0.16378428041934967
1771073177575451600,1.57945166015625,0.32956594228744507,-0.42317599058151245,-0.23941799998283386
1771073177585391900,1.589391845703125,0.43289652466773987,-0.31025803089141846,-0.3075948655605316
1771073177595332000,1.59933203125,0.5383576154708862,-0.15686006844043732,-0.36192330718040466
1771073177605272600,1.6092724609375,0.6246439814567566,-0.001331579522229731,-0.40453386306762695
1771073177615212800,1.619212890625,0.6779071688652039,0.10626004636287689,-0.42370861768722534
1771073177625153000,1.629153076171875,0.7183871865272522,0.1669800728559494,-0.4269044101238251
1771073177635093500,1.639093505859375,0.7428882122039795,0.1861548274755478,-0.41305598616600037
1771073177645033700,1.64903369140625,0.7450187802314758,0.15419691801071167,-0.3885549008846283
1771073177654974000,1.658973876953125,0.7322356104850769,0.07643266767263412,-0.3459443747997284
1771073177664914400,1.66891455078125,0.7173219323158264,-0.02583264373242855,-0.280963271856308
1771073177674854700,1.678854736328125,0.7024081945419312,-0.12596742808818817,-0.20319904386997223
1771073177684795000,1.688794921875,0.6853640079498291,-0.22077588737010956,-0.11265163123607635
1771073177694735400,1.6987353515625,0.6640587449073792,-0.2942790687084198,-0.012516847811639309
1771073177704675600,1.708675537109375,0.6374271512031555,-0.32836753129959106,0.08655267208814621
1771073177714615800,1.71861572265625,0.6022734045982361,-0.3028011918067932,0.1760348230600357
1771073177724556300,1.728556396484375,0.5500755310058594,-0.2239716798067093,0.2474074810743332
1771073177734496500,1.73849658203125,0.4787028431892395,-0.1249021589756012,0.3028011918067932
1771073177744437000,1.74843701171875,0.3977428078651428,-0.00985368900001049,0.35712963342666626
1771073177754377200,1.758377197265625,0.3199785649776459,0.10839057713747025,0.40400123596191406
1771073177764317400,1.7683173828125,0.2486059069633484,0.1627190262079239,0.4295675754547119
1771073177774258000,1.7782578125,0.17084164917469025,0.14674006402492523,0.4316980838775635
1771073177784198100,1.7881982421875,0.08881635963916779,0.0774979293346405,0.4114580750465393
1771073177794138400,1.798138427734375,0.004660528618842363,-0.06950845569372177,0.37097805738449097
1771073177804078800,1.808078857421875,-0.1093226820230484,-0.29214856028556824,0.303866446018219
1771073177814019000,1.81801904296875,-0.2510027587413788,-0.5392897129058838,0.22610220313072205
1771073177823959600,1.82795947265625,-0.3884217441082001,-0.7597993016242981,0.1760348230600357
1771073177833899800,1.837899658203125,-0.4438154697418213,-0.8343677520751953,0.23142851889133453
1771073177843840300,1.84784033203125,-0.3298322558403015,-0.6277065873146057,0.45726442337036133
1771073177853780500,1.857780517578125,-0.043276336044073105,-0.21225377917289734,0.8322372436523438
1771073177863721000,1.867720947265625,0.20812588930130005,0.24900537729263306,1.2018836736679077
1771073177873661200,1.8776611328125,0.16977639496326447,0.5866939425468445,1.3211932182312012
1771073177883601700,1.8876015625,-0.1561942845582962,0.7667235136032104,1.0783131122589111
1771073177893542000,1.8975419921875,-0.587626039981842,0.7976161241531372,0.5765739679336548
1771073177903482400,1.907482421875,-0.947685182094574,0.6985466480255127,-0.044474758207798004
1771073177913422600,1.917422607421875,-1.144758939743042,0.4546012580394745,-0.6346307992935181
1771073177923363000,1.927363037109375,-1.211870551109314,0.17337165772914886,-1.061801552772522
1771073177933303600,1.937303466796875,-1.2203927040100098,-0.0727042406797409,-1.2695279121398926
1771073177943243800,1.947243896484375,-1.1586073637008667,-0.2942790687084198,-1.274854302406311
1771073177953184300,1.957184326171875,-1.0147967338562012,-0.44767704606056213,-1.0905636548995972
1771073177963124500,1.96712451171875,-0.8145272135734558,-0.4647212624549866,-0.7528750896453857
1771073177973065000,1.97706494140625,-0.6174534559249878,-0.3592601716518402,-0.35659700632095337
1771073177983005200,1.987005126953125,-0.4565986394882202,-0.2090579867362976,-0.02636527456343174
1771073177992945700,1.996945556640625,-0.3394196331501007,-0.13129374384880066,0.1483379602432251
1771073178002886000,2.006885986328125,-0.24780695140361786,-0.17283903062343597,0.14940322935581207
1771073178012826400,2.016826416015625,-0.15406376123428345,-0.2996053993701935,0.015180006623268127
1771073178022766600,2.0267666015625,-0.07097318768501282,-0.46046021580696106,-0.18402428925037384
1771073178032707000,2.03670703125,-0.056059498339891434,-0.6010749936103821,-0.3885549008846283
1771073178042647600,2.0466474609375,-0.12743216753005981,-0.6756434440612793,-0.5600623488426208
1771073178052587800,2.056587890625,-0.25845959782600403,-0.6362286806106567,-0.6665887236595154
1771073178062528300,2.0665283203125,-0.3969438672065735,-0.4913528561592102,-0.70174241065979
1771073178072468500,2.076468505859375,-0.503470242023468,-0.2804306447505951,-0.6655234694480896
1771073178082409000,2.086408935546875,-0.5599291920661926,-0.05139897018671036,-0.5856286883354187
1771073178092349200,2.09634912109375,-0.5524723529815674,0.14460954070091248,-0.48549389839172363
1771073178102289700,2.10628955078125,-0.4992091655731201,0.28735485672950745,-0.3885549008846283
1771073178112230000,2.11622998046875,-0.42251017689704895,0.38109806180000305,-0.30546435713768005
1771073178122170400,2.12617041015625,-0.3351585865020752,0.4407528340816498,-0.24794010818004608
1771073178132110800,2.13611083984375,-0.2318280041217804,0.4631233811378479,-0.21491694450378418
1771073178142051000,2.146051025390625,-0.118910051882267,0.4492749273777008,-0.19361166656017303
1771073178151991300,2.1559912109375,-0.02516685426235199,0.450340211391449,-0.18295903503894806
1771073178161931800,2.165931884765625,0.03981423005461693,0.48442864418029785,-0.17337165772914886
1771073178171872000,2.1758720703125,0.08455529808998108,0.5398223400115967,-0.14247901737689972
1771073178181812200,2.185812255859375,0.12716585397720337,0.6143907904624939,-0.08602003753185272
1771073178191752700,2.195752685546875,0.17403744161128998,0.7006771564483643,-0.010386320762336254
1771073178201693000,2.20569287109375,0.20493009686470032,0.75180983543396,0.06950845569372177
1771073178211633200,2.215633056640625,0.17510271072387695,0.7155908346176147,0.1344895362854004
1771073178221573600,2.22557373046875,0.04301001876592636,0.563258171081543,0.1664474457502365
1771073178231513900,2.235513916015625,-0.1934785097837448,0.2649843394756317,0.1621863842010498
1771073178241454000,2.2454541015625,-0.46938177943229675,-0.18775272369384766,0.14407691359519958
1771073178251394600,2.25539453125,-0.7261103391647339,-0.7193192839622498,0.15686006844043732
1771073178261334800,2.265334716796875,-0.8795083165168762,-1.2146668434143066,0.22929799556732178
1771073178271275000,2.27527490234375,-0.8464851379394531,-1.4426332712173462,0.416784405708313
1771073178281215500,2.285215576171875,-0.5673860311508179,-1.3584774732589722,0.756603479385376
1771073178291155700,2.29515576171875,-0.11784479022026062,-1.0026793479919434,1.170991063117981
1771073178301096000,2.305095947265625,0.3476754128932953,-0.47004759311676025,1.522528052330017
1771073178311036400,2.315036376953125,0.7151913642883301,0.02636527456343174,1.66207754611969
1771073178320976600,2.3249765625,0.9516798853874207,0.2000032514333725,1.5630080699920654
1771073178330916900,2.334916748046875,1.075250506401062,0.09241162240505219,1.322258472442627
1771073178340857300,2.344857421875,1.0954904556274414,-0.11744531989097595,1.0889657735824585
1771073178350797600,2.354797607421875,1.0486189126968384,-0.23355905711650848,0.9504814743995667
1771073178360737800,2.36473779296875,0.9431577920913696,-0.2655169665813446,0.8886961936950684
1771073178370678300,2.37467822265625,0.7514103651046753,-0.27723485231399536,0.8162582516670227
1771073178380618500,2.384618408203125,0.4914860129356384,-0.2878875136375427,0.6447508335113525
1771073178390559000,2.39455908203125,0.24541011452674866,-0.29747486114501953,0.34221595525741577
1771073178400499200,2.404499267578125,0.05685844644904137,-0.2878875136375427,-0.024234747514128685
1771073178410439400,2.414439453125,-0.07097318768501282,-0.19627483189105988,-0.35766226053237915
1771073178420380000,2.4243798828125,-0.14873743057250977,-0.0354200154542923,-0.6122602820396423
1771073178430320000,2.434320068359375,-0.18602167069911957,0.14674006402492523,-0.7763108611106873
1771073178440260400,2.44426025390625,-0.16045533120632172,0.3129211962223053,-0.8711193203926086
1771073178450200800,2.454200927734375,-0.06884266436100006,0.4492749273777008,-0.9126646518707275
1771073178460141000,2.46414111328125,0.0739026665687561,0.563258171081543,-0.9158604145050049
1771073178470081300,2.474081298828125,0.2486059069633484,0.6484792232513428,-0.9084035754203796
1771073178480021800,2.484021728515625,0.4371575713157654,0.6878939867019653,-0.903077244758606
1771073178489962000,2.4939619140625,0.6214481592178345,0.6740455627441406,-0.8913593292236328
1771073178499902200,2.503902099609375,0.7833682298660278,0.6048034429550171,-0.8594014644622803
1771073178509842700,2.5138427734375,0.9090693593025208,0.48442864418029785,-0.7976161241531372
1771073178519783000,2.523782958984375,0.9868336319923401,0.3214432895183563,-0.6996119022369385
1771073178529723100,2.53372314453125,1.0241178274154663,0.14247901737689972,-0.5760413408279419
1771073178539663600,2.54366357421875,1.0145304203033447,-0.026897907257080078,-0.42370861768722534
1771073178549603800,2.553603759765625,0.9516798853874207,-0.16431692242622375,-0.261788547039032
1771073178559544000,2.5635439453125,0.8355661630630493,-0.2900180220603943,-0.11584742367267609
1771073178569484500,2.573484619140625,0.6597976684570312,-0.39441385865211487,-0.029561065137386322
1771073178579424800,2.5834248046875,0.44781020283699036,-0.46046021580696106,-0.010386320762336254
1771073178589365000,2.593364990234375,0.25073641538619995,-0.4870918095111847,-0.023169483989477158
1771073178599305500,2.603305419921875,0.10373004525899887,-0.46152547001838684,-0.028495801612734795
1771073178609245700,2.61324560546875,0.017443692311644554,-0.36778226494789124,-0.0018642114009708166
1771073178619186000,2.62318603515625,-0.008122635073959827,-0.2047969400882721,0.06418213248252869
1771073178629126400,2.63312646484375,0.02383527345955372,0.02636527456343174,0.17816534638404846
1771073178639066600,2.643066650390625,0.0930774137377739,0.28735485672950745,0.30599698424339294
1771073178649007000,2.653007080078125,0.17190691828727722,0.513190746307373,0.4125233590602875
1771073178658947300,2.662947265625,0.2347574681043625,0.6644582152366638,0.47963494062423706
1771073178668887600,2.672887451171875,0.27417221665382385,0.7070687413215637,0.500940203666687
1771073178678828000,2.682828125,0.28908592462539673,0.6314350366592407,0.49454864859580994
1771073178688768300,2.692768310546875,0.2869553864002228,0.5472791790962219,0.4860265254974365
1771073178698708500,2.70270849609375,0.32530489563941956,0.4908202290534973,0.5147886276245117
1771073178708649000,2.71264892578125,0.3977428078651428,0.41412124037742615,0.5819002389907837
1771073178718589200,2.722589111328125,0.40200385451316833,0.2607232630252838,0.6426202654838562
1771073178728529400,2.732529296875,0.2581932842731476,0.06258423626422882,0.6649908423423767
1771073178738470000,2.742469970703125,-0.034754227846860886,-0.13129374384880066,0.6319676637649536
1771073178748410000,2.75241015625,-0.4352933466434479,-0.2697780132293701,0.5126581192016602
1771073178758350300,2.762350341796875,-0.7964177131652832,-0.31132328510284424,0.31025803089141846
1771073178768290800,2.772290771484375,-0.9679251909255981,-0.2985401451587677,0.10785794258117676
1771073178778231000,2.78223095703125,-1.0020135641098022,-0.24847275018692017,-0.04127896577119827
1771073178788171300,2.792171142578125,-0.9530115127563477,-0.16112112998962402,-0.11478215456008911
1771073178798111700,2.80211181640625,-0.8475503921508789,-0.07376950979232788,-0.1339569091796875
1771073178808052000,2.812052001953125,-0.737828254699707,-0.031158961355686188,-0.14993585646152496
1771073178817992200,2.8219921875,-0.6600639820098877,-0.015180006623268127,-0.19787272810935974
1771073178827932700,2.8319326171875,-0.608931303024292,0.012516847811639309,-0.27670222520828247
1771073178837873000,2.841872802734375,-0.5801692008972168,0.08282424509525299,-0.38109806180000305
1771073178847813000,2.851813232421875,-0.5641902685165405,0.22663484513759613,-0.4918854832649231
1771073178857753600,2.861753662109375,-0.5269060134887695,0.37577176094055176,-0.6058686971664429
1771073178867693800,2.87169384765625,-0.4587291479110718,0.4716454744338989,-0.7091992497444153
1771073178877634000,2.881634033203125,-0.39907440543174744,0.517451822757721,-0.8029424548149109
1771073178887574500,2.891574462890625,-0.3884217441082001,0.5067991614341736,-0.8796414732933044
1771073178897514800,2.9015146484375,-0.4331628382205963,0.46631917357444763,-0.9297088384628296
1771073178907455000,2.911455078125,-0.4587291479110718,0.4215780794620514,-0.9201214909553528
1771073178917395500,2.9213955078125,-0.41292282938957214,0.3491401672363281,-0.8050730228424072
1771073178927335700,2.931335693359375,-0.33835434913635254,0.3139864504337311,-0.6218476295471191
1771073178937276200,2.941276123046875,-0.24461115896701813,0.27670222520828247,-0.4343612492084503
1771073178947216400,2.95121630859375,-0.15832480788230896,0.21598219871520996,-0.2575274705886841
1771073178957156600,2.961156494140625,-0.08482161909341812,0.1669800728559494,-0.08282424509525299
1771073178967097000,2.97109716796875,-0.004926844500005245,0.17443692684173584,0.0918789878487587
1771073178977037300,2.981037353515625,0.06644582003355026,0.1861548274755478,0.2516685426235199
1771073178986977500,2.9909775390625,0.10266478359699249,0.17976324260234833,0.3784348964691162
1771073178996918000,3.00091796875,0.10159952193498611,0.15632744133472443,0.46046021580696106
1771073179006858200,3.010858154296875,0.06964161247015,0.10732531547546387,0.47111284732818604
1771073179016798500,3.020798583984375,0.0035952648613601923,-0.01837579719722271,0.4071970283985138
1771073179026739000,3.030739013671875,-0.10399636626243591,-0.26764747500419617,0.3091927766799927
1771073179036679200,3.04067919921875,-0.24887222051620483,-0.46152547001838684,0.2474074810743332
1771073179046619400,3.050619384765625,-0.4065312445163727,-0.5073317885398865,0.2665822207927704
1771073179056559900,3.060559814453125,-0.503470242023468,-0.45087283849716187,0.27723485231399536
1771073179066500000,3.0705,-0.5109270811080933,-0.34860754013061523,0.18349166214466095
1771073179076440300,3.0804404296875,-0.503470242023468,-0.0918789878487587,0.2559295892715454
1771073179086380800,3.090380859375,-0.45020705461502075,0.25433170795440674,0.5105276107788086
1771073179106261200,3.11026123046875,0.030226856470108032,0.6889592409133911,0.9387635588645935
1771073179116201700,3.12020166015625,0.39241650700569153,0.9126646518707275,0.9504814743995667
1771073179126142000,3.130141845703125,0.7396924495697021,1.0724542140960693,0.8269109129905701
1771073179136082200,3.140082275390625,1.0390315055847168,1.0500836372375488,0.6713824272155762
1771073179146022700,3.150022705078125,1.233974814414978,0.7848330140113831,0.5179844498634338
1771073179155963000,3.159962890625,1.24356210231781,0.3171822428703308,0.3326285779476166
1771073179165903000,3.169903076171875,1.075250506401062,-0.18242639303207397,0.21225377917289734
1771073179175843600,3.179843505859375,0.832370400428772,-0.4444812536239624,0.23995064198970795
1771073179185783800,3.18978369140625,0.5841639637947083,-0.43702441453933716,0.3177148699760437
1771073179195724300,3.199724365234375,0.39667755365371704,-0.3166496157646179,0.3219759464263916
1771073179205664500,3.20966455078125,0.29228171706199646,-0.1771000772714615,0.24101589620113373
1771073179215604700,3.219604736328125,0.2528669536113739,-0.027963170781731606,0.09081372618675232
1771073179225545200,3.229545166015625,0.2336922138929367,0.0636495053768158,-0.14460954070091248
1771073179235485400,3.2394853515625,0.2241048365831375,0.09454214572906494,-0.42264336347579956
1771073179245425700,3.24942578125,0.24221432209014893,0.11371689289808273,-0.655936062335968
1771073179255366100,3.2593662109375,0.2635195851325989,0.06151897460222244,-0.8221172094345093
1771073179265306400,3.269306396484375,0.25606274604797363,-0.0023968431632965803,-0.9147951602935791
1771073179275246600,3.27924658203125,0.24221432209014893,-0.0023968431632965803,-0.9392961859703064
1771073179285187000,3.28918701171875,0.2475406378507614,0.03808317333459854,-0.9020119905471802
1771073179295127300,3.299127197265625,0.2954775094985962,0.11371689289808273,-0.8114646077156067
1771073179305067500,3.309067626953125,0.40519964694976807,0.20639483630657196,-0.6719150543212891
1771073179315008000,3.319008056640625,0.5756418108940125,0.2884201407432556,-0.5036033987998962
1771073179324948200,3.3289482421875,0.7727156281471252,0.32890015840530396,-0.32676962018013
1771073179334888700,3.338888671875,0.9570062160491943,0.3363569974899292,-0.16591481864452362
1771073179344829000,3.348828857421875,1.1210567951202393,0.33848753571510315,-0.030626330524683
1771073179354769400,3.358769287109375,1.2488884925842285,0.33955278992652893,0.07909582555294037
1771073179364709600,3.368709716796875,1.3223916292190552,0.32676962018013,0.1579253375530243
1771073179374650000,3.378650146484375,1.3277180194854736,0.3139864504337311,0.20799273252487183
1771073179384590600,3.388590576171875,1.2733895778656006,0.29694223403930664,0.23355905711650848
1771073179394530800,3.39853076171875,1.1849726438522339,0.2660495936870575,0.24847275018692017
1771073179404471300,3.40847119140625,1.0848379135131836,0.19787272810935974,0.25486433506011963
1771073179414411500,3.41841162109375,0.9751157164573669,0.0870852991938591,0.24634221196174622
1771073179424352000,3.42835205078125,0.8419577479362488,-0.04607265070080757,0.21971063315868378
1771073179434292200,3.438292236328125,0.6874945163726807,-0.17070849239826202,0.1898832470178604
1771073179444232700,3.448232666015625,0.5447492003440857,-0.24101589620113373,0.17070849239826202
1771073179454173000,3.4581728515625,0.4403533637523651,-0.25912538170814514,0.17070849239826202
1771073179464113400,3.468113525390625,0.38602492213249207,-0.24847275018692017,0.1909485012292862
1771073179474053600,3.4780537109375,0.3647196292877197,-0.22716747224330902,0.2239716798067093
1771073179483994000,3.487994140625,0.35300174355506897,-0.18668745458126068,0.26764747500419617
1771073179493934600,3.4979345703125,0.3434143662452698,-0.1153147891163826,0.29534435272216797
1771073179503874800,3.507874755859375,0.32637014985084534,-0.040746334940195084,0.2804306447505951
1771073179513815300,3.517815185546875,0.30613014101982117,0.024234747514128685,0.2420811653137207
1771073179523755500,3.527755615234375,0.32637014985084534,0.060453712940216064,0.20692746341228485
1771073179533696000,3.537696044921875,0.40519964694976807,-0.04287686198949814,0.19627483189105988
1771073179543636200,3.54763623046875,0.4456796646118164,-0.2996053993701935,0.19307903945446014
1771073179553576700,3.55757666015625,0.2997385561466217,-0.5850960612297058,0.14620743691921234
1771073179563517000,3.567516845703125,-0.07203845679759979,-0.7289066314697266,0.02157158963382244
1771073179573457400,3.57745751953125,-0.5535376071929932,-0.6479465961456299,-0.1435442715883255
1771073179583397600,3.587397705078125,-1.0009483098983765,-0.3304980397224426,-0.28735485672950745
1771073179593338000,3.597338134765625,-1.3109400272369385,0.08069372177124023,-0.36618438363075256
1771073179603278600,3.607278564453125,-1.4440979957580566,0.4716454744338989,-0.3235738277435303
1771073179613218800,3.61721875,-1.3791168928146362,0.8040077090263367,-0.15100112557411194
1771073179623159000,3.627158935546875,-1.1351715326309204,0.99468994140625,0.0918789878487587
1771073179633099500,3.637099609375,-0.8102661371231079,0.9882983565330505,0.3177148699760437
1771073179643039700,3.647039794921875,-0.5151881575584412,0.8775109052658081,0.4668518006801605
1771073179652980200,3.656980224609375,-0.29467856884002686,0.7177214026451111,0.4913528561592102
1771073179662920400,3.66692041015625,-0.17323850095272064,0.5163865685462952,0.3549990952014923
1771073179672860700,3.676860595703125,-0.1561942845582962,0.27350643277168274,0.07057371735572815
1771073179682801200,3.68680126953125,-0.22011010348796844,-0.019441060721874237,-0.2980075180530548
1771073179692741400,3.696741455078125,-0.33196279406547546,-0.40080544352531433,-0.6601971387863159
1771073179702681600,3.706681640625,-0.44061967730522156,-0.7683213949203491,-0.9286435842514038
1771073179712622000,3.7166220703125,-0.5056007504463196,-1.0101362466812134,-1.066062569618225
1771073179722562300,3.726562255859375,-0.5364934206008911,-1.195492148399353,-1.0522141456604004
1771073179732502500,3.73650244140625,-0.5269060134887695,-1.2476900815963745,-0.9062730669975281
1771073179742443000,3.746443115234375,-0.4960133731365204,-1.1603384017944336,-0.684698224067688
1771073179752383200,3.75638330078125,-0.47896915674209595,-0.9920267462730408,-0.4577970504760742
1771073179762323500,3.766323486328125,-0.49281758069992065,-0.7629950642585754,-0.26391905546188354
1771073179772264000,3.776263916015625,-0.5205144286155701,-0.48070022463798523,-0.13076111674308777
1771073179782204200,3.7862041015625,-0.5514070987701416,-0.23568958044052124,-0.11584742367267609
1771073179792144400,3.796144287109375,-0.5780386924743652,-0.08974846452474594,-0.2287653684616089
1771073179802084900,3.8060849609375,-0.5940176248550415,-0.016245270147919655,-0.40559911727905273
1771073179812025000,3.816025146484375,-0.5982787013053894,0.05086633935570717,-0.5547360181808472
1771073179821965300,3.82596533203125,-0.6057355403900146,0.17869797348976135,-0.6165213584899902
1771073179831905800,3.83590576171875,-0.6131923794746399,0.31611698865890503,-0.5739107728004456
1771073179841846000,3.845845947265625,-0.6068007946014404,0.383228600025177,-0.43862229585647583
1771073179851786200,3.8557861328125,-0.5716471076011658,0.3960117697715759,-0.23515695333480835
1771073179861726700,3.865726806640625,-0.5024049878120422,0.4077296555042267,-0.016777902841567993
1771073179871667000,3.8756669921875,-0.38522595167160034,0.40559911727905273,0.17390428483486176
1771073179881607200,3.885607177734375,-0.20945745706558228,0.35766226053237915,0.3549990952014923
1771073179891547600,3.895547607421875,0.024900536984205246,0.2894853949546814,0.5808349847793579
1771073179901487900,3.90548779296875,0.29334697127342224,0.22130851447582245,0.8343677520751953
1771073179911428400,3.915428466796875,0.5585976243019104,0.17763271927833557,1.0335720777511597
1771073179921368600,3.92536865234375,0.8281093239784241,0.148870587348938,1.1486204862594604
1771073179931308800,3.935308837890625,1.0965557098388672,0.05938844755291939,1.1741868257522583
1771073179941249300,3.945249267578125,1.318130612373352,-0.13129374384880066,1.0687257051467896
1771073179951189500,3.955189453125,1.4555495977401733,-0.5424855351448059,0.8556730151176453
1771073179961129700,3.965129638671875,1.5002906322479248,-1.1720563173294067,0.5957486629486084
1771073179971070200,3.9750703125,1.4843116998672485,-1.858086109161377,0.3549990952014923
1771073179981010400,3.985010498046875,1.3873727321624756,-2.5537033081054688,0.1909485012292862
1771073179990950700,3.99495068359375,1.1562105417251587,-2.959568738937378,0.13768532872200012
1771073180000891100,4.00489111328125,0.78656405210495,-2.9265456199645996,0.18029586970806122
1771073180010831400,4.014831298828125,0.3327617347240448,-2.3672821521759033,0.29534435272216797
1771073180020771600,4.024771484375,-0.11677952855825424,-1.363803744316101,0.3784348964691162
1771073180030712000,4.034712158203125,-0.466185986995697,-0.24101589620113373,0.3123885691165924
1771073180040652300,4.04465234375,-0.6313018798828125,0.7102645039558411,0.056725289672613144
1771073180050592500,4.054592529296875,-0.5897566080093384,1.4175995588302612,-0.3587275445461273
1771073180060533000,4.064532958984375,-0.3969438672065735,1.907620906829834,-0.8412919640541077
1771073180070473200,4.07447314453125,-0.14447638392448425,2.165414571762085,-1.2950942516326904
1771073180080413400,4.084413330078125,0.08562056720256805,2.1334567070007324,-1.6423702239990234
1771073180090354000,4.09435400390625,0.24114905297756195,1.8511618375778198,-1.820269227027893
1771073180100294100,4.104294189453125,0.3135869801044464,1.4442311525344849,-1.7872461080551147
1771073180110234400,4.114234375,0.3434143662452698,1.0394309759140015,-1.564605951309204
1771073180120174800,4.1241748046875,0.38815543055534363,0.684698224067688,-1.217329978942871
1771073180130115000,4.134114990234375,0.4968123435974121,0.40027281641960144,-0.8157256245613098
1771073180140055300,4.14405517578125,0.6768419146537781,0.18508955836296082,-0.4258391261100769
1771073180149995800,4.153995849609375,0.8877640962600708,0.035952646285295486,-0.10306425392627716
1771073180159936000,4.16393603515625,1.0837725400924683,-0.056725289672613144,0.10040109604597092
1771073180169876500,4.17387646484375,1.2531495094299316,-0.09933583438396454,0.18775272369384766
1771073180179816700,4.183816650390625,1.402286410331726,-0.06950845569372177,0.20799273252487183
1771073180189757000,4.1937568359375,1.5152044296264648,0.010386320762336254,0.1952095627784729
1771073180199697400,4.203697509765625,1.5780549049377441,0.10839057713747025,0.16325165331363678
1771073180209637600,4.2136376953125,1.5961644649505615,0.2000032514333725,0.14514216780662537
1771073180219577900,4.223577880859375,1.5759243965148926,0.30120328068733215,0.16112112998962402
1771073180229518300,4.233518310546875,1.5258569717407227,0.4066644012928009,0.21118851006031036
1771073180239458600,4.24345849609375,1.4470274448394775,0.4865591824054718,0.29214856028556824
1771073180249398800,4.253398681640625,1.3500884771347046,0.5568665862083435,0.3976096510887146
1771073180259339300,4.26333935546875,1.2616716623306274,0.6356960535049438,0.5371592044830322
1771073180269279500,4.273279541015625,1.2190611362457275,0.7337003350257874,0.6884266138076782
1771073180279219700,4.2832197265625,1.2201263904571533,0.8114646077156067,0.7949529886245728
1771073180289160200,4.29316015625,1.2382358312606812,0.7869635224342346,0.823715090751648
1771073180299100400,4.303100341796875,1.25101900100708,0.6101297736167908,0.7779088020324707
1771073180309040600,4.31304052734375,1.2233221530914307,0.3022685647010803,0.6554034352302551
1771073180318981000,4.322981201171875,1.1402316093444824,-0.06311687082052231,0.4530033767223358
1771073180328921300,4.33292138671875,1.0859031677246094,-0.416784405708313,0.2889527678489685
1771073180338861600,4.342861572265625,1.1604715585708618,-0.7470161318778992,0.31878015398979187
1771073180348802000,4.352802001953125,1.2914990186691284,-1.0761826038360596,0.5435507893562317
1771073180358742300,4.3627421875,1.3149348497390747,-1.4628733396530151,0.8333024978637695
1771073180368682500,4.3726826171875,1.105077862739563,-1.932654619216919,1.0207889080047607
1771073180378623000,4.382623046875,0.6097303032875061,-2.1989705562591553,0.9781783223152161
1771073180388563200,4.392563232421875,-0.06351634114980698,-2.045572519302368,0.7427550554275513
1771073180398503400,4.40250341796875,-0.7090660929679871,-1.4927006959915161,0.4402202069759369
1771073180408444000,4.41244384765625,-1.204413652420044,-0.8215845823287964,0.105727419257164
1771073180418384100,4.422384033203125,-1.5058833360671997,-0.25806012749671936,-0.2181127369403839
1771073180428324400,4.432324462890625,-1.5666033029556274,0.1765674501657486,-0.4737760126590729
1771073180438264800,4.442264892578125,-1.407879114151001,0.4737760126590729,-0.6740455627441406
1771073180448205000,4.452205078125,-1.1532810926437378,0.6005423665046692,-0.8508793115615845
1771073180458145500,4.4621455078125,-0.9135967493057251,0.5526055097579956,-0.9989509582519531
1771073180468085800,4.472085693359375,-0.6962829232215881,0.4492749273777008,-1.0777804851531982
1771073180478026000,4.48202587890625,-0.48855653405189514,0.372575968503952,-1.0841721296310425
1771073180487966500,4.491966552734375,-0.27656906843185425,0.2468748539686203,-1.0639320611953735
1771073180497906700,4.50190673828125,-0.0624510794878006,-0.024767380207777023,-1.0586057901382446
1771073180507847000,4.511846923828125,0.13675321638584137,-0.37204334139823914,-1.0724542140960693
1771073180527727600,4.5317275390625,0.4552670419216156,-0.7949529886245728,-0.9542099237442017
1771073180537667800,4.541667724609375,0.5862944722175598,-0.7502118945121765,-0.7432876825332642
1771073180547608300,4.5516083984375,0.6811029314994812,-0.5733781456947327,-0.43755704164505005
1771073180557548500,4.561548583984375,0.7162566184997559,-0.2793653905391693,-0.08495477586984634
1771073180567488800,4.57148876953125,0.6960166096687317,0.08175898343324661,0.23568958044052124
1771073180577429200,4.58142919921875,0.6406229138374329,0.42264336347579956,0.4625907242298126
1771073180587369500,4.591369384765625,0.5671197175979614,0.6910898089408875,0.5510076284408569
1771073180597309700,4.601309814453125,0.4925512671470642,0.8135951161384583,0.481765478849411
1771073180607250200,4.611250244140625,0.39667755365371704,0.8135951161384583,0.2708432674407959
1771073180617190400,4.6211904296875,0.2805638015270233,0.7571361064910889,-0.01784316636621952
1771073180627130600,4.631130615234375,0.15166690945625305,0.7006771564483643,-0.3033338189125061
1771073180637071000,4.641071044921875,0.02383527345955372,0.6612623929977417,-0.5313002467155457
1771073180647011300,4.65101123046875,-0.09867004305124283,0.626108705997467,-0.6623276472091675
1771073180656951600,4.66095166015625,-0.17749954760074615,0.6293044686317444,-0.6665887236595154
1771073180666892000,4.67089208984375,-0.21371851861476898,0.6420876383781433,-0.5526055097579956
1771073180676832300,4.680832275390625,-0.1892174482345581,0.6186518669128418,-0.3512706756591797
1771073180686772500,4.6907724609375,-0.07736477255821228,0.5302349925041199,-0.08921582996845245
1771073180696713000,4.700712890625,0.11757847666740417,0.36724963784217834,0.20160114765167236
1771073180706653200,4.710653076171875,0.37217649817466736,0.14567480981349945,0.5158539414405823
1771073180716593700,4.72059375,0.6651239991188049,-0.06418213248252869,0.8524772524833679
1771073180726534000,4.730533935546875,0.9687241315841675,-0.17816534638404846,1.165664792060852
1771073180736474000,4.74047412109375,1.2627369165420532,-0.23355905711650848,1.3797826766967773
1771073180746414600,4.75041455078125,1.5045517683029175,-0.3933486044406891,1.4554164409637451
1771073180756354800,4.760354736328125,1.6760591268539429,-0.6831002831459045,1.3765869140625
1771073180766295000,4.770294921875,1.7783244848251343,-0.915327787399292,1.163534164428711
1771073180776235500,4.780235595703125,1.797499179840088,-1.0847047567367554,0.84821617603302
1771073180786175700,4.79017578125,1.6728633642196655,-1.2775174379348755,0.4785696864128113
1771073180796116000,4.800115966796875,1.377785325050354,-1.505483865737915,0.14514216780662537
1771073180806056400,4.810056396484375,0.9953557252883911,-1.535311222076416,-0.06897582113742828
1771073180815996700,4.81999658203125,0.5830987095832825,-1.2263847589492798,-0.10732531547546387
1771073180825937000,4.82993701171875,0.17403744161128998,-0.6458160877227783,-0.03808317333459854
1771073180835877400,4.83987744140625,-0.18602167069911957,-0.05139897018671036,0.031158961355686188
1771073180845817600,4.849817626953125,-0.4480765163898468,0.39068543910980225,0.005592633970081806
1771073180855757800,4.8597578125,-0.5695165991783142,0.5813676118850708,-0.16165375709533691
1771073180865698300,4.8696982421875,-0.554602861404419,0.580302357673645,-0.4205128252506256
1771073180875638500,4.879638427734375,-0.41292282938957214,0.4673844277858734,-0.6889592409133911
1771073180885578800,4.889578857421875,-0.1657816469669342,0.31931278109550476,-0.8870983123779297
1771073180895519200,4.899519287109375,0.13888375461101532,0.21278640627861023,-0.9797762632369995
1771073180905459500,4.90945947265625,0.43502703309059143,0.2095906287431717,-0.9882983565330505
1771073180915399700,4.919399658203125,0.6960166096687317,0.3043990731239319,-0.9510141015052795
1771073180925340200,4.929340087890625,0.9261136054992676,0.4546012580394745,-0.8913593292236328
1771073180935280400,4.9392802734375,1.125317931175232,0.6058686971664429,-0.8103992938995361
1771073180945220600,4.949220703125,1.2925642728805542,0.7166560888290405,-0.7049382328987122
1771073180955161000,4.9591611328125,1.432113766670227,0.7592666745185852,-0.5792371034622192
1771073180965101300,4.969101318359375,1.5301181077957153,0.7411571741104126,-0.44288337230682373
1771073180975041800,4.979041748046875,1.5844465494155884,0.7091992497444153,-0.3033338189125061
1771073180984982000,4.98898193359375,1.5897728204727173,0.6239781975746155,-0.16804534196853638
1771073180994922200,4.998922119140625,1.5205307006835938,0.383228600025177,-0.09560741484165192
1771073181004862700,5.00886279296875,1.3468927145004272,-0.04394212365150452,-0.138217955827713
1771073181014803000,5.018802978515625,1.0848379135131836,-0.4775044322013855,-0.2756369709968567
1771073181024743200,5.0287431640625,0.8110650777816772,-0.7097318768501282,-0.40346860885620117
1771073181034683600,5.03868359375,0.5916208028793335,-0.7086666226387024,-0.44181808829307556
1771073181044624000,5.048623779296875,0.4169175624847412,-0.5669865608215332,-0.4024033546447754
1771073181054564000,5.058564208984375,0.3008038103580475,-0.3134538233280182,-0.29161593317985535
1771073181064504600,5.068504638671875,0.28908592462539673,0.01784316636621952,-0.09880319982767105
1771073181074444800,5.07844482421875,0.3711112141609192,0.3587275445461273,0.14088112115859985
1771073181084385000,5.088385009765625,0.4872249662876129,0.5813676118850708,0.3219759464263916
1771073181094325500,5.098325439453125,0.5873597264289856,0.6463487148284912,0.39015281200408936
1771073181104265700,5.108265625,0.6725808382034302,0.5952160358428955,0.39015281200408936
1771073181114206000,5.1182060546875,0.7386271953582764,0.45140546560287476,0.4082622826099396
1771073181124146400,5.128146484375,0.7418229579925537,0.2522011697292328,0.4679170548915863
1771073181134086700,5.138086669921875,0.6629934310913086,0.07643266767263412,0.546746551990509
1771073181144027000,5.14802685546875,0.5735113024711609,-0.027963170781731606,0.659664511680603
1771073181153967400,5.15796728515625,0.5628587007522583,-0.060986343771219254,0.8333024978637695
1771073181163907600,5.167907470703125,0.6139913201332092,-0.036485280841588974,1.044224739074707
1771073181173847800,5.177847900390625,0.6075997352600098,-0.0588558167219162,1.1859047412872314
1771073181183788300,5.187788330078125,0.45846283435821533,-0.2005358785390854,1.165664792060852
1771073181193728500,5.197728515625,0.16658060252666473,-0.39974018931388855,0.9792435765266418
1771073181203668700,5.207668701171875,-0.19773955643177032,-0.5392897129058838,0.7033402919769287
1771073181213609200,5.217609130859375,-0.5226449966430664,-0.5584644675254822,0.4828307330608368
1771073181223549400,5.227549560546875,-0.7261103391647339,-0.4625907242298126,0.4125233590602875
1771073181233489700,5.23748974609375,-0.788960874080658,-0.30173593759536743,0.48070022463798523
1771073181243430100,5.24743017578125,-0.6984134912490845,-0.13342426717281342,0.6330329179763794
1771073181253370400,5.257370361328125,-0.5087965726852417,-0.0822916179895401,0.7651256322860718
1771073181263310800,5.267310791015625,-0.32237541675567627,-0.20266640186309814,0.7832350730895996
1771073181273251000,5.2772509765625,-0.21904483437538147,-0.435959130525589,0.651142418384552
1771073181283191300,5.28719140625,-0.19987009465694427,-0.7171887755393982,0.3890875577926636
1771073181293131800,5.2971318359375,-0.24887222051620483,-0.9227846264839172,0.05352949723601341
1771073181303072000,5.307072021484375,-0.3500722646713257,-0.9952225685119629,-0.2894853949546814
1771073181313012200,5.31701220703125,-0.4938828647136688,-0.9366330504417419,-0.5909550189971924
1771073181322952700,5.32695263671875,-0.676042914390564,-0.7693866491317749,-0.8455530405044556
1771073181332893000,5.336892822265625,-0.8603335618972778,-0.5318328738212585,-1.0426267385482788
1771073181342833400,5.34683349609375,-0.9956220388412476,-0.237820103764534,-1.1321089267730713
1771073181352773600,5.356773681640625,-1.0563420057296753,0.07110634446144104,-1.0969551801681519
1771073181362714000,5.366714111328125,-1.047819972038269,0.33955278992652893,-0.9531446695327759
1771073181372654600,5.376654541015625,-0.9881651997566223,0.5270391702651978,-0.7347655892372131
1771073181382594800,5.3865947265625,-0.8901609182357788,0.6516750454902649,-0.49934232234954834
1771073181392535300,5.396535400390625,-0.7644598484039307,0.6942855715751648,-0.29161593317985535
1771073181402475500,5.4064755859375,-0.637693464756012,0.6239781975746155,-0.15845796465873718
1771073181412416000,5.416416015625,-0.5162534117698669,0.45566651225090027,-0.12223900109529495
1771073181422356200,5.426356201171875,-0.4097270369529724,0.19361166656017303,-0.18189376592636108
1771073181432296700,5.436296630859375,-0.3170490860939026,-0.14088112115859985,-0.31505173444747925
1771073181442237000,5.44623681640625,-0.24780695140361786,-0.3976096510887146,-0.4588623046875
1771073181452177400,5.456177490234375,-0.21371851861476898,-0.4402202069759369,-0.5302349925041199
1771073181462117600,5.46611767578125,-0.2222406268119812,-0.33902016282081604,-0.49401602149009705
1771073181472058000,5.47605810546875,-0.2914827764034271,-0.171773761510849,-0.42370861768722534
1771073181481998600,5.48599853515625,-0.3777691125869751,0.00612526573240757,-0.3640538454055786
1771073181491938800,5.495938720703125,-0.4374238848686218,0.1478053331375122,-0.3310306668281555
1771073181501879300,5.50587939453125,-0.4384891390800476,0.2191779911518097,-0.3278348743915558
1771073181511819500,5.515819580078125,-0.3681817352771759,0.2181127369403839,-0.30652961134910583
1771073181531700200,5.5357001953125,-0.09334372729063034,0.2564622163772583,0.12170637398958206
1771073181541640700,5.545640625,0.03981423005461693,0.372575968503952,0.49880969524383545
1771073181551581000,5.555580810546875,0.1442100703716278,0.5707150101661682,0.8535425066947937
1771073181561521400,5.565521484375,0.23688800632953644,0.8072035312652588,1.0602036714553833
1771073181571462000,5.5754619140625,0.33915331959724426,0.9169256687164307,1.0697909593582153
1771073181581402000,5.585402099609375,0.46698495745658875,0.8615319728851318,0.9408941268920898
1771073181591342600,5.595342529296875,0.5799028873443604,0.6729803085327148,0.7757782340049744
1771073181601282800,5.60528271484375,0.5905555486679077,0.4066644012928009,0.5946834087371826
1771073181611223000,5.61522314453125,0.47124600410461426,0.09241162240505219,0.39974018931388855
1771073181621163500,5.62516357421875,0.285890132188797,-0.12064110487699509,0.2559295892715454
1771073181631103700,5.635103759765625,0.11970899999141693,-0.18668745458126068,0.2047969400882721
1771073181641044000,5.6450439453125,0.02383527345955372,-0.18775272369384766,0.23568958044052124
1771073181650984400,5.654984375,-0.003861580742523074,-0.18668745458126068,0.25486433506011963
1771073181660924700,5.664924560546875,0.001464737462811172,-0.24634221196174622,0.1813611388206482
1771073181670865000,5.674864990234375,0.02383527345955372,-0.3368896245956421,0.032224226742982864
1771073181680805400,5.684805419921875,0.06857634335756302,-0.39974018931388855,-0.14674006402492523
1771073181690745600,5.69474560546875,0.10266478359699249,-0.4306328296661377,-0.337422251701355
1771073181700685800,5.704685791015625,0.09840372949838638,-0.4199801981449127,-0.5099949836730957
1771073181710626300,5.714626220703125,0.06751108169555664,-0.3123885691165924,-0.6229129433631897
1771073181720566500,5.72456640625,0.03448791056871414,-0.11424952745437622,-0.6665887236595154
1771073181730506800,5.7345068359375,0.016378428786993027,0.11478215456008911,-0.6687192320823669
1771073181740447200,5.744447265625,0.03448791056871414,0.3139864504337311,-0.655936062335968
1771073181750387500,5.754387451171875,0.09414267539978027,0.4311654567718506,-0.638891875743866
1771073181760328000,5.764327880859375,0.19747324287891388,0.48016759753227234,-0.6026729345321655
1771073181770268200,5.77426806640625,0.3274354040622711,0.4876244366168976,-0.5430181622505188
1771073181780208400,5.78420849609375,0.4510059952735901,0.4311654567718506,-0.47058022022247314
1771073181790148900,5.79414892578125,0.5500755310058594,0.34807488322257996,-0.4077296555042267
1771073181800089000,5.804089111328125,0.6161218881607056,0.2756369709968567,-0.3608580529689789
1771073181810029300,5.814029296875,0.6363618969917297,0.24580958485603333,-0.31931278109550476
1771073181819969800,5.8239697265625,0.6139913201332092,0.2841590642929077,-0.2649843394756317
1771073181829910000,5.833909912109375,0.5777723789215088,0.3874896466732025,-0.18189376592636108
1771073181839850200,5.843850341796875,0.5436839461326599,0.525973916053772,-0.07643266767263412
1771073181849790700,5.853790771484375,0.5202481150627136,0.6708498001098633,0.03009369783103466
1771073181859731000,5.86373095703125,0.4914860129356384,0.8029424548149109,0.11957584321498871
1771073181869671200,5.873671142578125,0.44887545704841614,0.8945551514625549,0.1909485012292862
1771073181879611600,5.883611572265625,0.39241650700569153,0.9233172535896301,0.24421168863773346
1771073181889552000,5.8935517578125,0.31145647168159485,0.8924246430397034,0.27190855145454407
1771073181899492000,5.9034921875,0.21664799749851227,0.8082687854766846,0.2751043438911438
1771073181909432600,5.9134326171875,0.11544794589281082,0.7102645039558411,0.26871275901794434
1771073181919372800,5.923372802734375,0.017443692311644554,0.626108705997467,0.2697780132293701
1771073181929314000,5.93331396484375,-0.054994236677885056,0.5675191879272461,0.303866446018219
1771073181939253800,5.943253662109375,-0.10506162792444229,0.5036033987998962,0.3752391040325165
1771073181949193200,5.953193115234375,-0.14767217636108398,0.41944757103919983,0.44767704606056213
1771073181959132700,5.963132568359375,-0.20200061798095703,0.3043990731239319,0.48496127128601074
1771073181969072400,5.973072265625,-0.3063964545726776,0.15100112557411194,0.47537389397621155
1771073181979012000,5.98301220703125,-0.40759649872779846,0.05832318589091301,0.46046021580696106
1771073181988952000,5.9929521484375,-0.4150533378124237,0.10945583879947662,0.5510076284408569
1771073181998892000,6.00289208984375,-0.344745934009552,0.24900537729263306,0.7832350730895996
1771073182008832000,6.01283203125,-0.3074617087841034,0.3747064769268036,1.0346373319625854
1771073182018772200,6.022772216796875,-0.4022701680660248,0.35340121388435364,1.165664792060852
1771073182028712700,6.032712646484375,-0.6281060576438904,0.2191779911518097,1.1326415538787842
1771073182038653200,6.042653076171875,-0.947685182094574,0.11691268533468246,0.9558078050613403
1771073182048594000,6.052593994140625,-1.3013527393341064,0.10412952303886414,0.6852308511734009
1771073182058534700,6.06253466796875,-1.6230623722076416,0.04127896577119827,0.3965443968772888
1771073182068475400,6.072475341796875,-1.85635507106781,-0.21971063315868378,0.17390428483486176
1771073182078416100,6.082416015625,-2.0044267177581787,-0.58403080701828,0.06737792491912842
1771073182088357000,6.092357177734375,-2.0555593967437744,-0.8364982604980469,0.08016108721494675
1771073182098297900,6.1022978515625,-1.9788603782653809,-0.9345025420188904,0.18242639303207397
1771073182108238800,6.11223876953125,-1.8105486631393433,-0.9217193722724915,0.28256118297576904
1771073182118179300,6.122179443359375,-1.618801236152649,-0.8141277432441711,0.2900180220603943
1771073182128119800,6.132119873046875,-1.462207555770874,-0.6106624007225037,0.18349166214466095
1771073182138060000,6.14206005859375,-1.3450285196304321,-0.3645864725112915,-0.003994738683104515
1771073182148000300,6.152000244140625,-1.2598074674606323,-0.1621863842010498,-0.22556957602500916
1771073182157940700,6.161940673828125,-1.1756515502929688,-0.09081372618675232,-0.41412124037742615
1771073182167881000,6.171880859375,-1.07764732837677,-0.12383689731359482,-0.5163865685462952
1771073182177821200,6.1818212890625,-0.9711209535598755,-0.23036326467990875,-0.5217128396034241
1771073182187761700,6.19176171875,-0.872051477432251,-0.36671701073646545,-0.44181808829307556
1771073182197702000,6.201701904296875,-0.7836345434188843,-0.48070022463798523,-0.30120328068733215
1771073182207642000,6.21164208984375,-0.7143924236297607,-0.5233107805252075,-0.1339569091796875
1771073182217582600,6.22158251953125,-0.6696513295173645,-0.492418110370636,0.0141147430986166
1771073182227522800,6.231522705078125,-0.6472808122634888,-0.44661179184913635,0.10040109604597092
1771073182237463000,6.241463134765625,-0.6408892273902893,-0.3922833502292633,0.11957584321498871
1771073182247403500,6.251403564453125,-0.637693464756012,-0.29534435272216797,0.09933583438396454
1771073182257343700,6.26134375,-0.6483460664749146,-0.15686006844043732,0.06737792491912842
1771073182267284000,6.271283935546875,-0.683499813079834,-0.0023968431632965803,0.02263685315847397
1771073182277224400,6.281224365234375,-0.7495461106300354,0.11265163123607635,-0.044474758207798004
1771073182287164700,6.29116455078125,-0.8305061459541321,0.18508955836296082,-0.12330426275730133
1771073182297105000,6.30110498046875,-0.9125314950942993,0.23622220754623413,-0.19787272810935974
1771073182307045400,6.31104541015625,-0.9892304539680481,0.251135915517807,-0.2671148478984833
1771073182316985600,6.320985595703125,-1.073386311531067,0.16165375709533691,-0.35766226053237915
1771073182326925800,6.33092578125,-1.1735210418701172,-0.048203181475400925,-0.49401602149009705
1771073182336866300,6.3408662109375,-1.258742094039917,-0.24953800439834595,-0.6516750454902649
1771073182346806500,6.350806640625,-1.2938958406448364,-0.36245596408843994,-0.7880287766456604
1771073182356746800,6.360746826171875,-1.2843084335327148,-0.4018706977367401,-0.8434224724769592
1771073182366687200,6.370687255859375,-1.2054790258407593,-0.27403905987739563,-0.714525580406189
1771073182376627500,6.38062744140625,-1.0275799036026,0.0018642114009708166,-0.3608580529689789
1771073182386568000,6.39056787109375,-0.7623292803764343,0.318247526884079,0.13768532872200012
1771073182396508200,6.400508056640625,-0.4672512710094452,0.626108705997467,0.6468813419342041
1771073182406448400,6.410448486328125,-0.2414153665304184,0.8540751338005066,1.0325068235397339
1771073182416388900,6.420388916015625,-0.0954742506146431,1.0777804851531982,1.2349069118499756
1771073182426329000,6.4303291015625,-0.0294279083609581,1.1108036041259766,1.2412984371185303
1771073182436269300,6.440269287109375,-0.054994236677885056,0.7922898530960083,1.0751173496246338
1771073182446209800,6.450209716796875,-0.10506162792444229,0.26391905546188354,0.8098666667938232
1771073182456150000,6.46014990234375,-0.11145320534706116,-0.2644517123699188,0.5872265696525574
1771073182466090200,6.47009033203125,-0.04434159770607948,-0.6159886717796326,0.49348339438438416
1771073182476030700,6.48003076171875,-0.009187898598611355,-0.8418245911598206,0.4636560082435608
1771073182485971000,6.489970947265625,-0.051798444241285324,-0.9014793634414673,0.4487423002719879
1771073182495911200,6.4999111328125,-0.13595427572727203,-0.9046751260757446,0.4114580750465393
1771073182505851600,6.5098515625,-0.24354590475559235,-0.9206541180610657,0.31984540820121765
1771073182515792000,6.5197919921875,-0.35646384954452515,-0.9121319651603699,0.18029586970806122
1771073182525732000,6.529732177734375,-0.4587291479110718,-0.8194540739059448,0.019441060721874237
1771073182535672600,6.539672607421875,-0.5588639378547668,-0.6490118503570557,-0.12330426275730133
1771073182545612800,6.54961279296875,-0.6536723971366882,-0.45726442337036133,-0.2181127369403839
1771073182555553000,6.559552978515625,-0.721849262714386,-0.2900180220603943,-0.2671148478984833
1771073182565493500,6.569493408203125,-0.7261103391647339,-0.1579253375530243,-0.28202855587005615
1771073182575433700,6.579433837890625,-0.6632598042488098,-0.06524740159511566,-0.28735485672950745
1771073182585374000,6.5893740234375,-0.554602861404419,-0.0002663159102667123,-0.29161593317985535
1771073182595314400,6.599314453125,-0.4150533378124237,0.048735812306404114,-0.30120328068733215
1771073182605254700,6.609254638671875,-0.2541985511779785,0.05512739345431328,-0.31505173444747925
1771073182615195000,6.61919482421875,-0.09227846562862396,0.013582111336290836,-0.337422251701355
1771073182625135400,6.62913525390625,0.04833633825182915,-0.04713791608810425,-0.3597927987575531
1771073182635075600,6.63907568359375,0.15486270189285278,-0.08548741042613983,-0.3704454302787781
1771073182645016000,6.64901611328125,0.21345220506191254,-0.10146636515855789,-0.3693801760673523
1771073182654956300,6.658956298828125,0.2390185296535492,-0.10785794258117676,-0.35766226053237915
1771073182664896500,6.668896484375,0.2518016993999481,-0.07909582555294037,-0.3363569974899292
1771073182674837000,6.6788369140625,0.2656501233577728,-0.024767380207777023,-0.3033338189125061
1771073182684777200,6.688777099609375,0.2816290855407715,0.03488738462328911,-0.25326642394065857
1771073182694717400,6.698717529296875,0.2848248779773712,0.07856319099664688,-0.19148114323616028
1771073182704658000,6.708657958984375,0.24967116117477417,0.08069372177124023,-0.12650005519390106
1771073182714598100,6.71859814453125,0.1687111258506775,0.056192658841609955,-0.07643266767263412
1771073182724538400,6.728538330078125,0.05898897349834442,0.05299686640501022,-0.02636527456343174
1771073182734478800,6.738478759765625,-0.04860265180468559,0.110521100461483,0.0492684431374073
1771073182744419000,6.748419189453125,-0.1380847990512848,0.20746009051799774,0.15686006844043732
1771073182754359300,6.758359375,-0.1945437788963318,0.3129211962223053,0.30173593759536743
1771073182764299800,6.7682998046875,-0.19987009465694427,0.39920756220817566,0.47537389397621155
1771073182774240000,6.778239990234375,-0.17749954760074615,0.43862229585647583,0.6277065873146057
1771073182784180200,6.78818017578125,-0.1796300858259201,0.4258391261100769,0.7129276990890503
1771073182794120700,6.79812060546875,-0.22330589592456818,0.37683701515197754,0.726776123046875
1771073182804061000,6.80806103515625,-0.2968090772628784,0.3075948655605316,0.6831002831459045
1771073182814001200,6.818001220703125,-0.34687647223472595,0.2372874766588211,0.6106624007225037
1771073182823941600,6.827941650390625,-0.32344067096710205,0.19680745899677277,0.5723128914833069
1771073182833881900,6.8378818359375,-0.25313326716423035,0.18508955836296082,0.6021402478218079
1771073182843822000,6.847822021484375,-0.24248063564300537,0.08815056830644608,0.6660560965538025
1771073182853762600,6.857762451171875,-0.4022701680660248,-0.16005586087703705,0.689491868019104
1771073182863702800,6.867702880859375,-0.7846998572349548,-0.492418110370636,0.6032055616378784
1771073182873643000,6.87764306640625,-1.3247884511947632,-0.7225150465965271,0.4199801981449127
1771073182883583500,6.88758349609375,-1.861681342124939,-0.689491868019104,0.24634221196174622
1771073182893523700,6.897523681640625,-2.2441110610961914,-0.49454864859580994,0.1579253375530243
1771073182903464000,6.9074638671875,-2.433727979660034,-0.32091066241264343,0.14407691359519958
1771073182913404400,6.917404296875,-2.4284017086029053,-0.21758009493350983,0.20266640186309814
1771073182923344600,6.9273447265625,-2.245176315307617,-0.23888537287712097,0.29108327627182007
1771073182933285000,6.93728515625,-1.9564898014068604,-0.4221107065677643,0.30599698424339294
1771073182943225300,6.947225341796875,-1.65608549118042,-0.6490118503570557,0.19734008610248566
1771073182953165600,6.95716552734375,-1.404683232307434,-0.8215845823287964,0.0002663159102667123
1771073182963106000,6.96710595703125,-1.2097400426864624,-0.8865656852722168,-0.20106850564479828
1771073182973046300,6.97704638671875,-1.0797778367996216,-0.8514119386672974,-0.3470096290111542
1771073182982986500,6.986986572265625,-1.0009483098983765,-0.7576687932014465,-0.41412124037742615
1771073182992927000,6.996927001953125,-0.934902012348175,-0.6522076725959778,-0.3960117697715759
1771073183002867200,7.0068671875,-0.8624640703201294,-0.5563339591026306,-0.3033338189125061
1771073183012807400,7.016807373046875,-0.7921566963195801,-0.5062665343284607,-0.1627190262079239
1771073183022748000,7.026747802734375,-0.730371356010437,-0.5392897129058838,-0.023169483989477158
1771073183032688000,7.036688232421875,-0.6749776601791382,-0.635163426399231,0.0822916179895401
1771073183042628400,7.04662841796875,-0.6227797269821167,-0.7470161318778992,0.14194637537002563
1771073183052568800,7.05656884765625,-0.5716471076011658,-0.839694082736969,0.16431692242622375
1771073183062509000,7.066509033203125,-0.5290365815162659,-0.9014793634414673,0.1525990217924118
1771073183072449300,7.07644921875,-0.5002744197845459,-0.9249151349067688,0.11318425834178925
1771073183082389800,7.0863896484375,-0.4853607416152954,-0.8673909306526184,0.0492684431374073
1771073183092330000,7.096330078125,-0.4853607416152954,-0.7171887755393982,-0.027430538088083267
1771073183102270200,7.106270263671875,-0.4949481189250946,-0.508397102355957,-0.110521100461483
1771073183112210700,7.116210693359375,-0.5237102508544922,-0.30067065358161926,-0.21278640627861023
1771073183122151000,7.12615087890625,-0.5588639378547668,-0.13981585204601288,-0.3512706756591797
1771073183132091100,7.136091064453125,-0.5908218622207642,-0.005592633970081806,-0.5110602378845215
1771073183142031600,7.146031494140625,-0.6099966168403625,0.138217955827713,-0.6442182064056396
1771073183151971800,7.155971923828125,-0.6334323883056641,0.270310640335083,-0.714525580406189
1771073183161912000,7.165912109375,-0.6632598042488098,0.35766226053237915,-0.7070687413215637
1771073183171852500,7.1758525390625,-0.6909566521644592,0.3779022693634033,-0.626108705997467
1771073183181792800,7.185792724609375,-0.7037398219108582,0.3278348743915558,-0.5185170769691467
1771073183191733200,7.195733154296875,-0.6941524147987366,0.21172115206718445,-0.4205128252506256
1771073183201673500,7.205673583984375,-0.6398239731788635,0.056192658841609955,-0.3033338189125061
1771073183211613700,7.21561376953125,-0.5194491744041443,-0.04607265070080757,-0.09028109163045883
1771073183221554200,7.22555419921875,-0.325571209192276,-0.031158961355686188,0.2751043438911438
1771073183231494400,7.235494384765625,-0.08695214241743088,0.13182637095451355,0.7640603184700012
1771073183241434600,7.2454345703125,0.13781848549842834,0.43862229585647583,1.2807132005691528
1771073183251375000,7.255375,0.2763027548789978,0.7528750896453857,1.7057534456253052
1771073183261315300,7.2653154296875,0.3743070065975189,1.1065425872802734,1.974199891090393
1771073183271255600,7.275255615234375,0.43396177887916565,1.371793270111084,2.031723976135254
1771073183281196000,7.285196044921875,0.4169175624847412,1.3504879474639893,1.8048229217529297
1771073183291136300,7.29513623046875,0.37750279903411865,1.0277130603790283,1.3148016929626465
1771073183301076500,7.305076416015625,0.39135122299194336,0.534496009349823,0.7278413772583008
1771073183311017000,7.315016845703125,0.4510059952735901,0.09986846894025803,0.21225377917289734
1771073183320957200,7.324957275390625,0.4882902204990387,-0.21225377917289734,-0.1712411344051361
1771073183330897400,7.3348974609375,0.4403533637523651,-0.46152547001838684,-0.4450138807296753
1771073183340838000,7.344837890625,0.27843329310417175,-0.6660560965538025,-0.6079992055892944
1771073183350778000,7.354778076171875,0.04833633825182915,-0.8311719298362732,-0.6761760711669922
1771073183360718300,7.36471826171875,-0.19667430222034454,-0.9515467286109924,-0.6815024018287659
1771073183370658800,7.374658935546875,-0.4150533378124237,-0.9962878227233887,-0.6538055539131165
1771073183380599000,7.38459912109375,-0.5908218622207642,-0.9749825596809387,-0.6410223841667175
1771073183390539300,7.394539306640625,-0.7271755933761597,-0.9046751260757446,-0.663392961025238
1771073183400479700,7.404479736328125,-0.7932219505310059,-0.756603479385376,-0.6974813938140869
1771073183410420000,7.414419921875,-0.7484808564186096,-0.5307676196098328,-0.7070687413215637
1771073183420360200,7.424360107421875,-0.5982787013053894,-0.27830013632774353,-0.6910898089408875
1771073183430300700,7.43430078125,-0.3767038583755493,-0.011984216049313545,-0.6516750454902649
1771073183440241000,7.444240966796875,-0.12423637509346008,0.2884201407432556,-0.601607620716095
1771073183450181400,7.454181396484375,0.12503531575202942,0.5824328660964966,-0.5526055097579956
1771073183460121600,7.46412158203125,0.3221091032028198,0.7763108611106873,-0.5089297294616699
1771073183470061800,7.474061767578125,0.46698495745658875,0.9286435842514038,-0.4546012580394745
1771073183480002300,7.484002197265625,0.576707124710083,1.007473111152649,-0.39920756220817566
1771073183489942500,7.493942626953125,0.6480797529220581,0.9840372800827026,-0.3459443747997284
1771073183499882800,7.5038828125,0.6864292621612549,0.9073383212089539,-0.29587697982788086
1771073183509823200,7.5138232421875,0.6970819234848022,0.8050730228424072,-0.2468748539686203
1771073183519763500,7.523763427734375,0.6842987537384033,0.6953508257865906,-0.18189376592636108
1771073183529703700,7.53370361328125,0.6587324142456055,0.6037381887435913,-0.09773793816566467
1771073183539644200,7.54364404296875,0.6299703121185303,0.5451486706733704,0.007723161485046148
1771073183549584400,7.55358447265625,0.5990776419639587,0.48975494503974915,0.12383689731359482
1771073183559524600,7.563524658203125,0.5649892091751099,0.4109254479408264,0.2474074810743332
1771073183569465000,7.573465087890625,0.5149217844009399,0.29268118739128113,0.36245596408843994
1771073183579405300,7.5834052734375,0.4424838721752167,0.11904320865869522,0.4306328296661377
1771073183589345500,7.593345458984375,0.3753722608089447,-0.1291632205247879,0.4391549229621887
1771073183599286000,7.6032861328125,0.33063119649887085,-0.39015281200408936,0.3976096510887146
1771073183609226200,7.613226318359375,0.31571751832962036,-0.5861613154411316,0.3326285779476166
1771073183619166500,7.62316650390625,0.2997385561466217,-0.6958834528923035,0.2761695981025696
1771073183629107000,7.63310693359375,0.24647536873817444,-0.689491868019104,0.25912538170814514
1771073183639047200,7.643047119140625,0.15805849432945251,-0.6234455704689026,0.2857569754123688
1771073183648987400,7.6529873046875,0.03874896466732025,-0.5744433999061584,0.3304980397224426
1771073183658927900,7.662927978515625,-0.1327584832906723,-0.5573992133140564,0.35286858677864075
1771073183668868000,7.6728681640625,-0.334093302488327,-0.5126581192016602,0.34860754013061523
1771073183678808300,7.682808349609375,-0.45979443192481995,-0.3549990952014923,0.3965443968772888
1771073183688748800,7.692748779296875,-0.42783650755882263,-0.05992107838392258,0.592552900314331
1771073183698689000,7.70268896484375,-0.2595248520374298,0.32463908195495605,0.9195888638496399
1771073183708629200,7.712629150390625,-0.10186583548784256,0.580302357673645,1.2221237421035767
1771073183718569700,7.72256982421875,-0.11677952855825424,0.5547360181808472,1.3041490316390991
1771073183728510000,7.732510009765625,-0.34687647223472595,0.251135915517807,1.0804436206817627
1771073183738450400,7.742450439453125,-0.759133517742157,-0.1856221854686737,0.6245108246803284
1771073183748390700,7.752390625,-1.2310452461242676,-0.47004759311676025,0.11211899667978287
1771073183758331000,7.762330810546875,-1.6230623722076416,-0.5243760347366333,-0.2841590642929077
1771073183768271400,7.772271240234375,-1.9128140211105347,-0.6010749936103821,-0.5227781534194946
1771073183778211600,7.782211669921875,-2.1056268215179443,-0.6905571818351746,-0.6111950278282166
1771073183788151800,7.79215185546875,-2.136519432067871,-0.7076013684272766,-0.5494097471237183
1771073183798092300,7.80209228515625,-2.011883497238159,-0.6522076725959778,-0.3960117697715759
1771073183808032500,7.812032470703125,-1.781786561012268,-0.6255760788917542,-0.23835274577140808
1771073183817972700,7.82197265625,-1.4984264373779297,-0.6639255881309509,-0.09880319982767105
1771073183827913200,7.831913330078125,-1.2001526355743408,-0.6948181986808777,0.0141147430986166
1771073183837853400,7.841853515625,-0.9285104274749756,-0.6990792751312256,0.08868319541215897
1771073183847793700,7.851793701171875,-0.7271755933761597,-0.7107971906661987,0.10679268091917038
1771073183857734100,7.861734130859375,-0.624910295009613,-0.7289066314697266,0.04713791608810425
1771073183867674400,7.87167431640625,-0.6121271252632141,-0.7310371994972229,-0.08069372177124023
1771073183877614600,7.881614501953125,-0.6600639820098877,-0.6905571818351746,-0.23622220754623413
1771073183887555000,7.89155517578125,-0.7410240173339844,-0.6213150024414062,-0.3651190996170044
1771073183897495300,7.901495361328125,-0.821984052658081,-0.5286371111869812,-0.41838228702545166
1771073183907435500,7.911435546875,-0.8837693333625793,-0.39441385865211487,-0.3970770239830017
1771073183927316200,7.931316162109375,-0.9402283430099487,-0.13129374384880066,-0.2671148478984833
1771073183937256400,7.94125634765625,-0.9317061901092529,-0.02263685315847397,-0.21278640627861023
1771073183947197000,7.951197021484375,-0.8944219946861267,0.0966726765036583,-0.15526217222213745
1771073183957137200,7.96113720703125,-0.8326367139816284,0.2138516753911972,-0.08175898343324661
1771073183967077400,7.971077392578125,-0.7516766786575317,0.28309381008148193,-0.00612526573240757
1771073183977017900,7.981017822265625,-0.6632598042488098,0.2671148478984833,0.05566002428531647
1771073183986958000,7.9909580078125,-0.5908218622207642,0.13502216339111328,0.08122635632753372
1771073183996898600,8.000898681640624,-0.554602861404419,-0.07909582555294037,0.05139897018671036
1771073184006838800,8.0108388671875,-0.5439502596855164,-0.28149592876434326,-0.008255792781710625
1771073184016779000,8.020779052734374,-0.5460807681083679,-0.416784405708313,-0.08175898343324661
1771073184026719500,8.030719482421874,-0.5599291920661926,-0.5020055174827576,-0.1904158741235733
1771073184036659700,8.04065966796875,-0.5822997093200684,-0.5808349847793579,-0.32676962018013
1771073184046600000,8.050599853515624,-0.5950828790664673,-0.6149234175682068,-0.4301002025604248
1771073184056540400,8.06054052734375,-0.5769734382629395,-0.5254412889480591,-0.3960117697715759
1771073184066480600,8.070480712890625,-0.5045354962348938,-0.31451907753944397,-0.1904158741235733
1771073184076420900,8.0804208984375,-0.35220280289649963,-0.1387505829334259,0.15366427600383759
1771073184086361300,8.090361328125,-0.09334372729063034,-0.04713791608810425,0.5797697305679321
1771073184096301600,8.100301513671875,0.26991117000579834,-0.001331579522229731,1.0506162643432617
1771073184106241800,8.11024169921875,0.6587324142456055,-0.026897907257080078,1.5065491199493408
1771073184116182300,8.120182373046875,1.0262483358383179,-0.040746334940195084,1.852759838104248
1771073184126122500,8.13012255859375,1.3096084594726562,-0.07696529477834702,1.9976356029510498
1771073184136062700,8.140062744140625,1.3873727321624756,-0.3081275224685669,1.8602166175842285
1771073184146003200,8.150003173828125,1.239301085472107,-0.7076013684272766,1.5044186115264893
1771073184155943400,8.159943359375,0.9154609441757202,-1.079378366470337,1.086835265159607
1771073184165883600,8.169883544921875,0.4968123435974121,-1.401087999343872,0.7161234617233276
1771073184175824100,8.17982421875,0.07816372066736221,-1.6418375968933105,0.46578651666641235
1771073184195704600,8.19970458984375,-0.6568682193756104,-1.5448986291885376,0.2889527678489685
1771073184205645000,8.20964501953125,-0.9657946228981018,-1.1390331983566284,0.23355905711650848
1771073184215585300,8.219585205078126,-1.1937611103057861,-0.6266413331031799,0.11957584321498871
1771073184225525500,8.229525390625,-1.2800474166870117,-0.21118851006031036,-0.07110634446144104
1771073184235466000,8.239466064453126,-1.2214579582214355,0.06684529036283493,-0.3086601495742798
1771073184245406200,8.24940625,-1.047819972038269,0.23196116089820862,-0.5749760270118713
1771073184255346700,8.2593466796875,-0.7910913825035095,0.29268118739128113,-0.8466182947158813
1771073184265287000,8.269286865234376,-0.49814391136169434,0.27244117856025696,-1.1108036041259766
1771073184275227100,8.27922705078125,-0.22330589592456818,0.24154852330684662,-1.3355742692947388
1771073184285167600,8.289167724609374,-0.043276336044073105,0.2660495936870575,-1.4900375604629517
1771073184295107800,8.29910791015625,-0.009187898598611355,0.37683701515197754,-1.564605951309204
1771073184305048000,8.309048095703124,-0.05819002538919449,0.5792371034622192,-1.5560839176177979
1771073184314988500,8.318988525390624,-0.12423637509346008,0.8221172094345093,-1.463405966758728
1771073184324928800,8.3289287109375,-0.1561942845582962,1.0671278238296509,-1.3004206418991089
1771073184334869000,8.338868896484374,-0.11251847445964813,1.28018057346344,-1.0767152309417725
1771073184344809500,8.3488095703125,0.0003994738799519837,1.3696627616882324,-0.8178561329841614
1771073184354749700,8.358749755859375,0.1495363861322403,1.3121384382247925,-0.5440834164619446
1771073184364690000,8.36868994140625,0.29334697127342224,1.1310436725616455,-0.2575274705886841
1771073184374630400,8.37863037109375,0.40200385451316833,0.8785761594772339,0.013049479573965073
1771073184384570600,8.388570556640625,0.463789165019989,0.5792371034622192,0.23568958044052124
1771073184394510800,8.3985107421875,0.4893554747104645,0.2522011697292328,0.39974018931388855
1771073184404451300,8.408451416015625,0.4914860129356384,-0.06950845569372177,0.5147886276245117
1771073184414391600,8.4183916015625,0.4659196734428406,-0.349672794342041,0.5914876461029053
1771073184424331800,8.428331787109375,0.3998733460903168,-0.538224458694458,0.6309024095535278
1771073184434272300,8.438272216796875,0.3135869801044464,-0.6639255881309509,0.6607297658920288
1771073184444212500,8.44821240234375,0.21877852082252502,-0.718254029750824,0.6735129356384277
1771073184454152700,8.458152587890625,0.10053425282239914,-0.6862961053848267,0.6564686894416809
1771073184464093200,8.46809326171875,-0.04647212475538254,-0.6074665784835815,0.5829655528068542
1771073184474033400,8.478033447265625,-0.22437115013599396,-0.5158539414405823,0.42317599058151245
1771073184483973600,8.4879736328125,-0.411857545375824,-0.45087283849716187,0.17390428483486176
1771073184493914000,8.4979140625,-0.5737776160240173,-0.4551338851451874,-0.0913463607430458
1771073184503854300,8.507854248046876,-0.6707166433334351,-0.45193809270858765,-0.2692453861236572
1771073184513794600,8.517794677734376,-0.7090660929679871,-0.37630438804626465,-0.3075948655605316
1771073184523735000,8.527735107421876,-0.7452850937843323,-0.19627483189105988,-0.21065588295459747
1771073184533675300,8.53767529296875,-0.7463503479957581,0.16484954953193665,0.015180006623268127
1771073184543615700,8.54761572265625,-0.6217144727706909,0.6378266215324402,0.3613906800746918
1771073184553556000,8.557555908203126,-0.401204913854599,0.9691236019134521,0.743820309638977
1771073184563496200,8.56749609375,-0.18389113247394562,0.9595362544059753,1.0357025861740112
1771073184573436700,8.577436767578124,-0.08162582665681839,0.5984118580818176,1.1017489433288574
1771073184583377000,8.587376953125,-0.18708692491054535,0.021038956940174103,0.8492814302444458
1771073184593317000,8.597317138671874,-0.4938828647136688,-0.49454864859580994,0.360325425863266
1771073184603257600,8.607257568359374,-0.889095664024353,-0.6564686894416809,-0.1765674501657486
1771073184613197800,8.61719775390625,-1.3002874851226807,-0.5914876461029053,-0.6356960535049438
1771073184623138000,8.627137939453124,-1.6699339151382446,-0.45619916915893555,-0.99468994140625
1771073184633078500,8.63707861328125,-1.9255971908569336,-0.2612559199333191,-1.1938942670822144
1771073184643018800,8.647018798828125,-1.9724687337875366,-0.04607265070080757,-1.1949595212936401
1771073184652959000,8.656958984375,-1.7935044765472412,0.048735812306404114,-1.0394309759140015
1771073184662899500,8.6668994140625,-1.454750657081604,0.010386320762336254,-0.790159285068512
1771073184672839700,8.676839599609375,-1.0584726333618164,-0.05352949723601341,-0.47590652108192444
1771073184682780000,8.68677978515625,-0.6909566521644592,-0.11744531989097595,-0.13502216339111328
1771073184692720400,8.696720458984375,-0.3969438672065735,-0.24527695775032043,0.16538217663764954
1771073184702660600,8.70666064453125,-0.1796300858259201,-0.5105276107788086,0.35286858677864075
1771073184712600800,8.716600830078125,-0.012383690103888512,-0.8663256764411926,0.40080544352531433
1771073184722541300,8.726541259765625,0.1303616315126419,-1.2295805215835571,0.3123885691165924
1771073184732481500,8.7364814453125,0.24434484541416168,-1.5235933065414429,0.11424952745437622
1771073184742421800,8.746421875,0.29760801792144775,-1.6705996990203857,-0.11584742367267609
1771073184752362200,8.7563623046875,0.2518016993999481,-1.6301196813583374,-0.318247526884079
1771073184762302500,8.766302490234375,0.10905636847019196,-1.4234585762023926,-0.439687579870224
1771073184772242700,8.77624267578125,-0.09227846562862396,-1.061268925666809,-0.4460791349411011
1771073184782183200,8.78618310546875,-0.3213101327419281,-0.5616602301597595,-0.3544664680957794
1771073184792123400,8.796123291015626,-0.5514070987701416,-0.03009369783103466,-0.21065588295459747
1771073184802064000,8.80606396484375,-0.7740471959114075,0.46205809712409973,-0.08602003753185272
1771073184812004000,8.816004150390626,-0.977512538433075,0.8711193203926086,-0.04340949282050133
1771073184821944300,8.8259443359375,-1.1532810926437378,1.103346824645996,-0.09773793816566467
1771073184831884800,8.835884765625,-1.3152011632919312,1.133174180984497,-0.23515695333480835
1771073184841825000,8.845824951171876,-1.4781864881515503,0.9819067716598511,-0.4407528340816498
1771073184851765200,8.85576513671875,-1.6422370672225952,0.6868287324905396,-0.6719150543212891
1771073184861705700,8.865705810546874,-1.7903087139129639,0.3470096290111542,-0.8636624813079834
1771073184871646000,8.87564599609375,-1.9010961055755615,0.04767054691910744,-0.9510141015052795
1771073184881586200,8.885586181640624,-1.9809908866882324,-0.15686006844043732,-0.9318393468856812
1771073184891526700,8.895526611328124,-2.0608856678009033,-0.2665822207927704,-0.8764456510543823
1771073184901467000,8.905466796875,-2.1535634994506836,-0.30493173003196716,-0.8125298619270325
1771073184911407000,8.915406982421874,-2.2238709926605225,-0.31878015398979187,-0.7539403438568115
1771073184921347600,8.92534765625,-2.220675230026245,-0.31025803089141846,-0.6825676560401917
1771073184931287800,8.935287841796875,-2.1003003120422363,-0.21971063315868378,-0.5398223400115967
1771073184941228000,8.94522802734375,-1.861681342124939,-0.03861580789089203,-0.3033338189125061
1771073184951168500,8.95516845703125,-1.5367759466171265,0.19680745899677277,0.007723161485046148
1771073184961108700,8.965108642578125,-1.174586296081543,0.4865591824054718,0.34860754013061523
1771073184971049000,8.975049072265625,-0.8102661371231079,0.8689888119697571,0.651142418384552
1771073184980989400,8.984989501953125,-0.48749127984046936,1.2567447423934937,0.8663256764411926
1771073184990929700,8.9949296875,-0.1700427085161209,1.5113427639007568,1.0175931453704834
1771073185000870100,9.0048701171875,0.1346226930618286,1.4719280004501343,1.1155973672866821
1771073185010810600,9.014810546875,0.3189133107662201,1.0809762477874756,1.1006836891174316
1771073185020750800,9.024750732421875,0.3274354040622711,0.41518649458885193,0.9440898895263672
1771073185030691300,9.03469140625,0.17403744161128998,-0.26871275901794434,0.7363634705543518
1771073185040631600,9.044631591796875,-0.10825742036104202,-0.651142418384552,0.6000097393989563
1771073185050572000,9.054572021484375,-0.45127230882644653,-0.7001445293426514,0.5755086541175842
1771073185060512300,9.06451220703125,-0.7953524589538574,-0.5872265696525574,0.5904223918914795
1771073185070452700,9.07445263671875,-1.0723210573196411,-0.4540686309337616,0.5712476372718811
1771073185080393000,9.08439306640625,-1.2140010595321655,-0.3560643792152405,0.4956139028072357
1771073185090333400,9.09433349609375,-1.1958916187286377,-0.35286858677864075,0.34221595525741577
1771073185100274000,9.10427392578125,-1.0808430910110474,-0.40506649017333984,0.11318425834178925
1771073185110214100,9.114214111328126,-0.9700556993484497,-0.4636560082435608,-0.14567480981349945
1771073185120154600,9.124154541015624,-0.9178577661514282,-0.44128546118736267,-0.39068543910980225
1771073185130094800,9.1340947265625,-0.9135967493057251,-0.303866446018219,-0.5909550189971924
1771073185140035300,9.144035400390624,-0.9008135795593262,-0.09827057272195816,-0.7123950719833374
1771073185149975600,9.1539755859375,-0.8209187984466553,0.15419691801071167,-0.7251782417297363
1771073185159916000,9.163916015625,-0.6366282105445862,0.45140546560287476,-0.6197171211242676
1771073185169856300,9.173856201171875,-0.3681817352771759,0.7464835047721863,-0.43649178743362427
1771073185179796700,9.183796630859375,-0.06777740269899368,0.9755151867866516,-0.23089589178562164
1771073185189737000,9.193737060546875,0.2059953510761261,1.1225215196609497,-0.035952646285295486
1771073185199677400,9.203677490234375,0.42863544821739197,1.2269173860549927,0.13022847473621368
1771073185209618000,9.213617919921875,0.598012387752533,1.2812458276748657,0.2559295892715454
1771073185219558100,9.22355810546875,0.7141261100769043,1.2290478944778442,0.3358243703842163
1771073185229498600,9.23349853515625,0.7854987978935242,1.091628909111023,0.37630438804626465
1771073185239438800,9.24343896484375,0.819587230682373,0.8881635665893555,0.3784348964691162
1771073185249379000,9.253379150390625,0.8153261542320251,0.6463487148284912,0.34754225611686707
1771073185259319600,9.263319580078125,0.7716503739356995,0.42264336347579956,0.30067065358161926
1771073185269259800,9.273259765625,0.6747113466262817,0.2607232630252838,0.2474074810743332
1771073185279200000,9.283199951171875,0.5383576154708862,0.15952323377132416,0.19307903945446014
1771073185289140500,9.293140380859375,0.3806985914707184,0.08175898343324661,0.15366427600383759
1771073185299080700,9.303080810546875,0.22303956747055054,0.021038956940174103,0.13342426717281342
1771073185309021000,9.31302099609375,0.061119500547647476,-0.007723161485046148,0.13022847473621368
1771073185318961400,9.32296142578125,-0.10506162792444229,-0.001331579522229731,0.14407691359519958
1771073185328901600,9.332901611328126,-0.25845959782600403,0.05086633935570717,0.18349166214466095
1771073185338841900,9.342841796875,-0.390552282333374,0.14567480981349945,0.23036326467990875
1771073185348782300,9.3527822265625,-0.5002744197845459,0.25007063150405884,0.25912538170814514
1771073185358722600,9.36272265625,-0.5737776160240173,0.3118559420108795,0.2559295892715454
1771073185368663000,9.3726630859375,-0.5908218622207642,0.32676962018013,0.23995064198970795
1771073185378603300,9.382603271484374,-0.554602861404419,0.32890015840530396,0.24847275018692017
1771073185388543500,9.39254345703125,-0.4853607416152954,0.3459443747997284,0.3081275224685669
1771073185398484000,9.40248388671875,-0.3830954432487488,0.318247526884079,0.43276336789131165
1771073185408424200,9.412424072265624,-0.269112229347229,0.2649843394756317,0.6191844940185547
1771073185418364400,9.422364501953124,-0.12104058265686035,0.270310640335083,0.839694082736969
1771073185428305000,9.432304931640624,0.0739026665687561,0.24900537729263306,1.0655299425125122
1771073185438245000,9.4422451171875,0.2613890767097473,0.06684529036283493,1.2359721660614014
1771073185448185300,9.452185302734375,0.35939332842826843,-0.2889527678489685,1.3179974555969238
1771073185458125800,9.462125732421875,0.27310696244239807,-0.7086666226387024,1.299888014793396
1771073185468066000,9.472066162109375,-0.039015281945466995,-1.0357025861740112,1.1805784702301025
1771073185478006300,9.48200634765625,-0.5375586748123169,-1.1922963857650757,0.9771130681037903
1771073185487946800,9.49194677734375,-1.1000179052352905,-1.1422289609909058,0.748081386089325
1771073185497887000,9.501886962890625,-1.60601806640625,-0.9653951525688171,0.5254412889480591
1771073185507827200,9.5118271484375,-1.9991003274917603,-0.7384940385818481,0.2985401451587677
1771073185517767700,9.521767578125,-2.24198055267334,-0.5179844498634338,0.05992107838392258
1771073185527708000,9.5317080078125,-2.3037657737731934,-0.33475908637046814,-0.17443692684173584
1771073185537648000,9.541648193359375,-2.1897826194763184,-0.24847275018692017,-0.36724963784217834
1771073185547588600,9.551588623046875,-1.9596856832504272,-0.2324937880039215,-0.47910231351852417
1771073185557528800,9.56152880859375,-1.6891086101531982,-0.18029586970806122,-0.4812328517436981
1771073185567469000,9.571468994140625,-1.4409022331237793,-0.06524740159511566,-0.40346860885620117
1771073185577409500,9.581409423828125,-1.2576768398284912,0.027430538088083267,-0.32996541261672974
1771073185587349800,9.591349853515625,-1.150085210800171,0.014647374860942364,-0.3225085735321045
1771073185597290000,9.6012900390625,-1.0989526510238647,-0.10359688848257065,-0.3693801760673523
1771073185607230500,9.61123046875,-1.0819083452224731,-0.31025803089141846,-0.4247738718986511
1771073185617170700,9.621170654296876,-1.0882999897003174,-0.5872265696525574,-0.45247071981430054
1771073185627111000,9.63111083984375,-1.1255842447280884,-0.8503466844558716,-0.4460791349411011
1771073185637051400,9.641051513671876,-1.1894999742507935,-1.0101362466812134,-0.40986019372940063
1771073185646991600,9.65099169921875,-1.2630032300949097,-1.0474205017089844,-0.3352917432785034
1771073185656932000,9.66093212890625,-1.316266417503357,-0.9419593811035156,-0.20639483630657196
1771073185666872300,9.670872314453124,-1.3354411125183105,-0.7406245470046997,-0.03701791167259216
1771073185676812500,9.6808125,-1.3173316717147827,-0.508397102355957,0.1525990217924118
1771073185686753000,9.6907529296875,-1.2598074674606323,-0.26871275901794434,0.33369383215904236
1771073185696693200,9.700693359375,-1.1735210418701172,-0.05139897018671036,0.4828307330608368
1771073185706633500,9.710633544921874,-1.0627336502075195,0.1296958476305008,0.6032055616378784
1771073185716574000,9.720573974609374,-0.9423588514328003,0.251135915517807,0.6905571818351746
1771073185726514200,9.73051416015625,-0.8486156463623047,0.31079065799713135,0.7395592927932739
1771073185736454400,9.740454345703125,-0.8081356287002563,0.3320959508419037,0.7384940385818481
1771073185746395000,9.750394775390625,-0.8092008829116821,0.3171822428703308,0.696948766708374
1771073185756335000,9.760335205078125,-0.8422240614891052,0.27244117856025696,0.622380256652832
1771073185766275300,9.770275390625,-0.901878833770752,0.20746009051799774,0.5030707716941833
1771073185776215800,9.7802158203125,-0.9615336060523987,0.03169159218668938,0.31984540820121765
1771073185786156000,9.790156005859375,-0.9892304539680481,-0.3411506712436676,0.05033370852470398
1771073185796096300,9.80009619140625,-0.9807083606719971,-0.8301066756248474,-0.29161593317985535
1771073185806036700,9.81003662109375,-0.9498156905174255,-1.2018836736679077,-0.6495444774627686
1771073185815977000,9.81997705078125,-0.9008135795593262,-1.4181321859359741,-0.9169256687164307
1771073185825917200,9.829917236328125,-0.8294408917427063,-1.485243797302246,-0.9414267539978027
1771073185835857700,9.839857666015625,-0.7548724412918091,-1.3329111337661743,-0.6665887236595154
1771073185845798000,9.8497978515625,-0.6792387366294861,-1.1145321130752563,-0.18722008168697357
1771073185855738000,9.859738037109375,-0.6387587189674377,-0.7597993016242981,0.3826959729194641
1771073185865678600,9.8696787109375,-0.6430197358131409,-0.2420811653137207,0.9472857117652893
1771073185875618800,9.879618896484375,-0.6739124059677124,0.27670222520828247,1.4096101522445679
1771073185885559000,9.88955908203125,-0.6440850496292114,0.6708498001098633,1.723862886428833
1771073185895499500,9.89949951171875,-0.5514070987701416,0.7656582593917847,1.8261282444000244
1771073185915380200,9.919380126953126,-0.32770171761512756,0.0774979293346405,1.219993233680725
1771073185925320400,9.929320556640626,-0.2360890507698059,-0.34328120946884155,0.7065361142158508
1771073185935260700,9.9392607421875,-0.25845959782600403,-0.6309024095535278,0.17070849239826202
1771073185945201200,9.949201171875,-0.47790390253067017,-0.9408941268920898,-0.40559911727905273
1771073185955141400,9.959141357421874,-0.8486156463623047,-1.2700605392456055,-0.9755151867866516
1771073185965081600,9.96908154296875,-1.241697907447815,-1.4287848472595215,-1.4037511348724365
1771073185975022000,9.97902197265625,-1.5911043882369995,-1.3915005922317505,-1.584846019744873
1771073185984962300,9.98896240234375,-1.8723340034484863,-1.1667300462722778,-1.5081470012664795
1771073185994902500,9.998902587890624,-2.0406455993652344,-0.7427550554275513,-1.2567447423934937
1771073186004843000,10.008843017578124,-2.0566246509552,-0.2186453640460968,-0.9339699149131775
1771073186014783200,10.018783203125,-1.9085530042648315,0.2756369709968567,-0.6250434517860413
1771073186024723500,10.028723388671875,-1.6028223037719727,0.655936062335968,-0.38962018489837646
1771073186034664000,10.038663818359375,-1.1809779405593872,0.9105340838432312,-0.2426137924194336
1771073186044604200,10.048604248046875,-0.721849262714386,1.019191026687622,-0.16591481864452362
1771073186054544400,10.05854443359375,-0.29041749238967896,1.019191026687622,-0.13608743250370026
1771073186064484900,10.06848486328125,0.06644582003355026,0.9637972712516785,-0.13076111674308777
1771073186074425000,10.078425048828125,0.34021857380867004,0.940361499786377,-0.1339569091796875
1771073186084365300,10.088365234375,0.5202481150627136,0.9190561771392822,-0.13289164006710052
1771073186094305800,10.098305908203125,0.6033387184143066,0.8657930493354797,-0.13608743250370026
1771073186104246000,10.10824609375,0.6022734045982361,0.7677887678146362,-0.16378428041934967
1771073186114186200,10.118186279296875,0.5447492003440857,0.5994771122932434,-0.22024326026439667
1771073186124126700,10.128126708984375,0.4467449486255646,0.3736412227153778,-0.30652961134910583
1771073186134067000,10.13806689453125,0.32104381918907166,0.13608743250370026,-0.4077296555042267
1771073186144007200,10.148007080078125,0.17616797983646393,-0.06418213248252869,-0.48336338996887207
1771073186153947600,10.15794775390625,0.016378428786993027,-0.1952095627784729,-0.5057339072227478
1771073186163887900,10.167887939453125,-0.14128059148788452,-0.2474074810743332,-0.47590652108192444
1771073186173828400,10.177828369140625,-0.28083011507987976,-0.24634221196174622,-0.41518649458885193
1771073186183768600,10.1877685546875,-0.40333545207977295,-0.21651484072208405,-0.3470096290111542
1771073186193708800,10.197708740234376,-0.5237102508544922,-0.1675127148628235,-0.2841590642929077
1771073186203649300,10.207649169921876,-0.6334323883056641,-0.08442214131355286,-0.22983063757419586
1771073186213589500,10.217589599609376,-0.7175882458686829,0.029561065137386322,-0.16911059617996216
1771073186223529700,10.22752978515625,-0.776177704334259,0.13076111674308777,-0.10306425392627716
1771073186233470200,10.23747021484375,-0.8092008829116821,0.18828535079956055,-0.02210422046482563
1771073186243410400,10.247410400390624,-0.8113313913345337,0.21704746782779694,0.09400951862335205
1771073186253350700,10.2573505859375,-0.7942872047424316,0.19361166656017303,0.2186453640460968
1771073186263291100,10.267291015625,-0.7857651114463806,0.035952646285295486,0.29640960693359375
1771073186273231400,10.2772314453125,-0.81346195936203,-0.28149592876434326,0.31025803089141846
1771073186283171600,10.287171630859374,-0.8858999013900757,-0.6277065873146057,0.29640960693359375
1771073186293112000,10.297112060546874,-0.9870999455451965,-0.84821617603302,0.3134538233280182
1771073186303052300,10.30705224609375,-1.1117358207702637,-0.9462204575538635,0.3848264813423157
1771073186312992500,10.316992431640625,-1.228914737701416,-0.9504814743995667,0.5201149582862854
1771073186322933000,10.32693310546875,-1.2725905179977417,-0.8673909306526184,0.7395592927932739
1771073186332873200,10.336873291015625,-1.2512853145599365,-0.7289066314697266,1.0048099756240845
1771073186342813400,10.3468134765625,-1.271525263786316,-0.6490118503570557,1.182708978652954
1771073186352754000,10.35675390625,-1.395095944404602,-0.7278413772583008,1.1614036560058594
1771073186362694100,10.366694091796875,-1.6251928806304932,-0.9664604663848877,0.9281109571456909
1771073186372634400,10.37663427734375,-1.945837140083313,-1.2072100639343262,0.5488771200180054
1771073186382574800,10.386574951171875,-2.285656213760376,-1.2476900815963745,0.1579253375530243
1771073186392515000,10.39651513671875,-2.5796689987182617,-1.1273152828216553,-0.13608743250370026
1771073186402455300,10.406455322265625,-2.8033745288848877,-0.9355677962303162,-0.2937464416027069
1771073186412395800,10.416395751953125,-2.906704902648926,-0.6820350289344788,-0.29694223403930664
1771073186422336000,10.4263359375,-2.840658664703369,-0.4764391779899597,-0.17869797348976135
1771073186432276500,10.4362763671875,-2.612692356109619,-0.4125233590602875,0.001331579522229731
1771073186442216700,10.446216796875,-2.2632858753204346,-0.5073317885398865,0.1952095627784729
1771073186452157000,10.456156982421875,-1.874464511871338,-0.6490118503570557,0.3741738498210907
1771073186462097400,10.466097412109375,-1.5602117776870728,-0.7214497923851013,0.48922231793403625
1771073186472037600,10.47603759765625,-1.3961611986160278,-0.7044056057929993,0.47963494062423706
1771073186481977900,10.485977783203126,-1.3620727062225342,-0.6767086982727051,0.31558436155319214
1771073186491918300,10.49591845703125,-1.3823127746582031,-0.7086666226387024,0.04394212365150452
1771073186501858600,10.505858642578126,-1.3993569612503052,-0.781104564666748,-0.23835274577140808
1771073186511798800,10.515798828125,-1.4227927923202515,-0.8375635147094727,-0.4492749273777008
1771073186521739300,10.5257392578125,-1.4888391494750977,-0.8514119386672974,-0.5643234252929688
1771073186531679500,10.535679443359374,-1.6017570495605469,-0.8290414214134216,-0.5856286883354187
1771073186541619700,10.54561962890625,-1.7391760349273682,-0.7779088020324707,-0.5387570858001709
1771073186551560200,10.555560302734374,-1.8648771047592163,-0.7278413772583008,-0.4546012580394745
1771073186561500400,10.56550048828125,-1.947967767715454,-0.6948181986808777,-0.37577176094055176
1771073186571440600,10.575440673828124,-1.9809908866882324,-0.6862961053848267,-0.33316120505332947
1771073186581381000,10.585381103515624,-1.9564898014068604,-0.6852308511734009,-0.30652961134910583
1771073186591321300,10.5953212890625,-1.8702034950256348,-0.6415550112724304,-0.261788547039032
1771073186601261600,10.605261474609375,-1.7445024251937866,-0.5691171288490295,-0.18402428925037384
1771073186611202000,10.6152021484375,-1.6038875579833984,-0.4689823091030121,-0.0540621280670166
1771073186621142300,10.625142333984375,-1.479251742362976,-0.34221595525741577,0.1291632205247879
1771073186631082500,10.63508251953125,-1.4014874696731567,-0.23355905711650848,0.33795487880706787
1771073186641023000,10.64502294921875,-1.374855875968933,-0.12383689731359482,0.5403549671173096
1771073186650963200,10.654963134765625,-1.387639045715332,-0.040746334940195084,0.7107971906661987
1771073186660903400,10.6649033203125,-1.4259885549545288,-0.001331579522229731,0.8290414214134216
1771073186670844000,10.674843994140625,-1.4803169965744019,-0.024767380207777023,0.86952143907547
1771073186680784100,10.6847841796875,-1.5399717092514038,-0.10785794258117676,0.8151929974555969
1771073186690724400,10.694724365234375,-1.5740602016448975,-0.21971063315868378,0.6905571818351746
1771073186700664800,10.704664794921875,-1.5495591163635254,-0.3507380485534668,0.5360939502716064
1771073186710605000,10.71460498046875,-1.4430327415466309,-0.49454864859580994,0.3869570195674896
1771073186720545500,10.724545654296875,-1.271525263786316,-0.6500771641731262,0.29640960693359375
1771073186730485800,10.73448583984375,-1.0744515657424927,-0.8119972348213196,0.2985401451587677
1771073186740426000,10.744426025390625,-0.8454198837280273,-0.9302414655685425,0.44235071539878845
1771073186750366500,10.754366455078125,-0.5737776160240173,-0.9771130681037903,0.7097318768501282
1771073186760306700,10.764306640625,-0.30959224700927734,-0.8769782781600952,1.0410288572311401
1771073186770247000,10.774246826171876,-0.18282587826251984,-0.6522076725959778,1.3659342527389526
1771073186780187400,10.7841875,-0.2595248520374298,-0.2985401451587677,1.5843133926391602
1771073186790127600,10.794127685546876,-0.46831652522087097,0.138217955827713,1.6365113258361816
1771073186800067800,10.80406787109375,-0.7111966609954834,0.4716454744338989,1.542768120765686
1771073186810008300,10.81400830078125,-0.9253146052360535,0.5621928572654724,1.3158669471740723
1771073186819948500,10.823948486328124,-1.0371673107147217,0.4024033546447754,0.9835046529769897
1771073186829888800,10.833888671875,-1.0147967338562012,0.08602003753185272,0.6106624007225037
1771073186839829200,10.843829345703124,-0.8848345875740051,-0.2516685426235199,0.22290641069412231
1771073186849769500,10.85376953125,-0.7165229320526123,-0.6255760788917542,-0.14993585646152496
1771073186859709700,10.863709716796874,-0.5833650231361389,-1.1326415538787842,-0.4727107286453247
1771073186869650200,10.873650146484374,-0.5141228437423706,-1.6578165292739868,-0.7028076648712158
1771073186879590400,10.88359033203125,-0.4960133731365204,-2.0242671966552734,-0.7837677001953125
1771073186889530600,10.893530517578125,-0.5482112765312195,-2.091378927230835,-0.7262434959411621
1771073186899471000,10.90347119140625,-0.6824344992637634,-1.8474334478378296,-0.5813676118850708
1771073186909411300,10.913411376953125,-0.8603335618972778,-1.3925658464431763,-0.41518649458885193
1771073186919351600,10.9233515625,-1.0126662254333496,-0.8375635147094727,-0.30013802647590637
1771073186929292000,10.9332919921875,-1.07764732837677,-0.32091066241264343,-0.28735485672950745
1771073186939232300,10.943232177734375,-1.0116009712219238,0.04660528525710106,-0.3981422781944275
1771073186949172500,10.95317236328125,-0.821984052658081,0.2607232630252838,-0.6037381887435913
1771073186959113000,10.963113037109375,-0.5673860311508179,0.3821633458137512,-0.8434224724769592
1771073186969053200,10.97305322265625,-0.30959224700927734,0.4577970504760742,-1.0436919927597046
1771073186978993700,10.98299365234375,-0.09867004305124283,0.5099949836730957,-1.1438268423080444
1771073186988934000,10.992933837890625,0.05579318478703499,0.5920202732086182,-1.1257174015045166
1771073186998874000,11.0028740234375,0.17616797983646393,0.7091992497444153,-0.9968204498291016
1771073187008814600,11.012814697265625,0.2816290855407715,0.8285087943077087,-0.7976161241531372
1771073187018754800,11.0227548828125,0.3743070065975189,0.9222519993782043,-0.571780264377594
1771073187028695000,11.032695068359375,0.43502703309059143,0.9606015086174011,-0.3512706756591797
1771073187038635500,11.042635498046875,0.45846283435821533,0.9819067716598511,-0.16058848798274994
1771073187048575700,11.05257568359375,0.4499407410621643,0.9872331023216248,-0.01784316636621952
1771073187058516000,11.062515869140626,0.42437440156936646,0.9414267539978027,0.05459476262331009
1771073187068456400,11.07245654296875,0.39241650700569153,0.8317046165466309,0.03755054250359535
1771073187078396700,11.082396728515626,0.3561975359916687,0.6580666303634644,-0.07110634446144104
1771073187088337000,11.0923369140625,0.3103911876678467,0.42796966433525085,-0.23622220754623413
1771073187098277400,11.10227734375,0.2677806615829468,0.20213377475738525,-0.4024033546447754
1771073187108217600,11.112217529296874,0.23688800632953644,0.05938844755291939,-0.513190746307373
1771073187118157800,11.12215771484375,0.23262694478034973,0.025300011038780212,-0.5494097471237183
1771073187128098300,11.132098388671874,0.24114905297756195,0.028495801612734795,-0.5078644156455994
1771073187138038500,11.14203857421875,0.23049642145633698,0.030626330524683,-0.4024033546447754
1771073187147978800,11.151978759765624,0.19001640379428864,0.0636495053768158,-0.2564622163772583
1771073187157919200,11.161919189453124,0.10479531437158585,0.09986846894025803,-0.1009337306022644
1771073187167859500,11.171859375,-0.03688475489616394,0.11904320865869522,0.029028434306383133
1771073187177799700,11.181799560546875,-0.22437115013599396,0.0966726765036583,0.105727419257164
1771073187187740200,11.191740234375,-0.43635863065719604,-0.007723161485046148,0.09507478028535843
1771073187197680400,11.201680419921875,-0.6451503038406372,-0.1909485012292862,0.0141147430986166
1771073187207620600,11.21162060546875,-0.81346195936203,-0.37204334139823914,-0.09347688406705856
1771073187217561000,11.22156103515625,-0.926379919052124,-0.47430863976478577,-0.18189376592636108
1771073187227501300,11.231501220703125,-1.0286451578140259,-0.5243760347366333,-0.251135915517807
1771073187237441800,11.24144189453125,-1.1234536170959473,-0.4902876019477844,-0.31505173444747925
1771073187247382000,11.251382080078125,-1.1458241939544678,-0.3464770019054413,-0.3352917432785034
1771073187257322200,11.261322265625,-1.0712558031082153,-0.16538217663764954,-0.2692453861236572
1771073187267262700,11.2712626953125,-0.9519461989402771,0.009321057237684727,-0.15632744133472443
1771073187277203000,11.281202880859375,-0.8869651556015015,0.06471476703882217,-0.08495477586984634
1771073187287143200,11.29114306640625,-0.947685182094574,-0.05992107838392258,-0.10519478470087051
1771073187297083600,11.301083740234375,-1.1181273460388184,-0.303866446018219,-0.18828535079956055
1771073187307024000,11.31102392578125,-1.3716601133346558,-0.5573992133140564,-0.26391905546188354
1771073187316964000,11.320964111328125,-1.6763254404067993,-0.6905571818351746,-0.2756369709968567
1771073187326904600,11.330904541015625,-2.008687734603882,-0.6862961053848267,-0.19787272810935974
1771073187336844800,11.3408447265625,-2.3272016048431396,-0.5637907981872559,-0.05725792050361633
1771073187346785000,11.350784912109376,-2.569016456604004,-0.3795001804828644,0.10359688848257065
1771073187366665700,11.370665771484376,-2.7160227298736572,-0.19734008610248566,0.23142851889133453
1771073187376606000,11.38060595703125,-2.607365846633911,-0.3070622384548187,0.12383689731359482
1771073187386546400,11.39054638671875,-2.410292148590088,-0.5243760347366333,-0.0540621280670166
1771073187396486700,11.400486572265624,-2.1631510257720947,-0.7544729709625244,-0.23089589178562164
1771073187406427000,11.410427001953124,-1.9021613597869873,-0.8546077609062195,-0.3448790907859802
1771073187416367400,11.420367431640624,-1.6156054735183716,-0.8311719298362732,-0.3651190996170044
1771073187426307600,11.4303076171875,-1.3141359090805054,-0.7587340474128723,-0.28202855587005615
1771073187436247800,11.440247802734374,-1.040363073348999,-0.6692518591880798,-0.12223900109529495
1771073187446188300,11.450188232421874,-0.8454198837280273,-0.5808349847793579,0.056725289672613144
1771073187456128500,11.46012841796875,-0.7516766786575317,-0.5158539414405823,0.2047969400882721
1771073187466068700,11.47006884765625,-0.7101313471794128,-0.44661179184913635,0.2985401451587677
1771073187476009200,11.48000927734375,-0.6707166433334351,-0.3890875577926636,0.3454117476940155
1771073187485949400,11.489949462890625,-0.616388201713562,-0.38056543469429016,0.3454117476940155
1771073187495889700,11.4998896484375,-0.54181969165802,-0.416784405708313,0.2985401451587677
1771073187505830100,11.509830078125,-0.4480765163898468,-0.47324338555336,0.22290641069412231
1771073187515770400,11.519770263671875,-0.3490070104598999,-0.5328981280326843,0.12596742808818817
1771073187525710800,11.5297109375,-0.2786996066570282,-0.5978792309761047,0.013049479573965073
1771073187535651000,11.539651123046875,-0.25206801295280457,-0.6575340032577515,-0.11158636957406998
1771073187545591300,11.54959130859375,-0.2680469751358032,-0.6713824272155762,-0.23089589178562164
1771073187555531800,11.55953173828125,-0.30959224700927734,-0.6064013242721558,-0.3310306668281555
1771073187565472000,11.569471923828125,-0.3639206886291504,-0.49348339438438416,-0.40453386306762695
1771073187575412200,11.579412109375,-0.4352933466434479,-0.3613906800746918,-0.4641886353492737
1771073187585352700,11.589352783203125,-0.5311670899391174,-0.2186453640460968,-0.5238434076309204
1771073187595293000,11.59929296875,-0.6430197358131409,-0.04181159660220146,-0.5781718492507935
1771073187605233200,11.609233154296875,-0.7548724412918091,0.14141374826431274,-0.6111950278282166
1771073187615173600,11.619173583984375,-0.8411588072776794,0.26391905546188354,-0.6079992055892944
1771073187625113900,11.62911376953125,-0.8613988161087036,0.32037803530693054,-0.5558013319969177
1771073187635054000,11.63905419921875,-0.804939866065979,0.30652961134910583,-0.4354265034198761
1771073187644994600,11.64899462890625,-0.646215558052063,0.2553969621658325,-0.22983063757419586
1771073187654934800,11.658934814453126,-0.37883439660072327,0.19361166656017303,0.07057371735572815
1771073187664875000,11.668875,-0.034754227846860886,0.10945583879947662,0.4530033767223358
1771073187674815500,11.6788154296875,0.31145647168159485,0.02636527456343174,0.8897614479064941
1771073187684755700,11.688755615234374,0.539422869682312,0.019973693415522575,1.3137364387512207
1771073187694696000,11.698696044921874,0.6640587449073792,0.24900537729263306,1.6407723426818848
1771073187704636400,11.708636474609374,0.6704503297805786,0.5941507816314697,1.8133450746536255
1771073187714576600,11.71857666015625,0.5202481150627136,0.9371656775474548,1.7696691751480103
1771073187724516900,11.728516845703124,0.32956594228744507,1.1257174015045166,1.5044186115264893
1771073187734457300,11.738457275390624,0.21238693594932556,0.9776456952095032,1.079378366470337
1771073187744397600,11.7483974609375,0.21345220506191254,0.5994771122932434,0.60533607006073
1771073187754337800,11.758337890625,0.3093259334564209,0.18828535079956055,0.2090579867362976
1771073187764278300,11.7682783203125,0.40519964694976807,-0.2420811653137207,-0.04234423115849495
1771073187774218500,11.778218505859375,0.37324175238609314,-0.6884266138076782,-0.1861548274755478
1771073187784159000,11.788158935546875,0.17510271072387695,-1.0580731630325317,-0.2713759243488312
1771073187794099200,11.79809912109375,-0.12956269085407257,-1.2402331829071045,-0.2980075180530548
1771073187804039400,11.808039306640625,-0.4534028470516205,-1.200818419456482,-0.261788547039032
1771073187813980000,11.81797998046875,-0.7261103391647339,-0.9526119828224182,-0.17017586529254913
1771073187823920000,11.827920166015625,-0.8699209094047546,-0.49454864859580994,-0.048735812306404114
1771073187833860400,11.8378603515625,-0.8305061459541321,0.07004108279943466,0.05352949723601341
1771073187843800800,11.84780078125,-0.5993439555168152,0.5866939425468445,0.09507478028535843
1771073187853741000,11.857740966796875,-0.22543641924858093,0.9872331023216248,0.07590003311634064
1771073187863681300,11.867681396484375,0.18895113468170166,1.23757004737854,0.01837579719722271
1771073187873621800,11.877621826171875,0.5511407852172852,1.364336371421814,-0.060453712940216064
1771073187883562000,11.88756201171875,0.8334356546401978,1.4080122709274292,-0.14567480981349945
1771073187893502200,11.897502197265625,1.0358357429504395,1.3930984735488892,-0.2234390527009964
1771073187903442700,11.907442626953125,1.1530147790908813,1.329182744026184,-0.29587697982788086
1771073187913383000,11.9173828125,1.2052125930786133,1.207742691040039,-0.3597927987575531
1771073187923323100,11.9273232421875,1.2222568988800049,1.0234520435333252,-0.41305598616600037
1771073187933263600,11.937263671875,1.2254526615142822,0.8157256245613098,-0.450340211391449
1771073187943203800,11.947203857421876,1.2307789325714111,0.6122602820396423,-0.46205809712409973
1771073187953144000,11.95714404296875,1.2488884925842285,0.40879490971565247,-0.4407528340816498
1771073187963084500,11.96708447265625,1.2819116115570068,0.22556957602500916,-0.38109806180000305
1771073187973024800,11.977024658203124,1.313869595527649,0.0774979293346405,-0.2948117256164551
1771073187982965000,11.986965087890624,1.318130612373352,-0.015180006623268127,-0.19893798232078552
1771073187992905500,11.996905517578124,1.2744548320770264,-0.07163897901773453,-0.11265163123607635
1771073188002845700,12.006845703125,1.192429542541504,-0.12383689731359482,-0.05512739345431328
1771073188012786000,12.016785888671874,1.0848379135131836,-0.18881797790527344,-0.03382211923599243
1771073188022726400,12.026726318359374,0.9729851484298706,-0.25060325860977173,-0.04980107396841049
1771073188032666600,12.03666650390625,0.8440882563591003,-0.28256118297576904,-0.09986846894025803
1771073188042607000,12.046607177734375,0.6906903386116028,-0.28149592876434326,-0.1531316488981247
1771073188052547300,12.05654736328125,0.539422869682312,-0.30067065358161926,-0.1904158741235733
1771073188062487600,12.066487548828125,0.3892207145690918,-0.3688475489616394,-0.20319904386997223
1771073188072428000,12.076427978515625,0.25606274604797363,-0.44235071539878845,-0.19361166656017303
1771073188082368300,12.0863681640625,0.13142690062522888,-0.4913528561592102,-0.18295903503894806
1771073188092308500,12.09630859375,0.004660528618842363,-0.4913528561592102,-0.1573926955461502
1771073188102249000,12.1062490234375,-0.15299849212169647,-0.47963494062423706,-0.03275685757398605
1771073188112189200,12.116189208984375,-0.3266364634037018,-0.4966791868209839,0.22184115648269653
1771073188122129400,12.12612939453125,-0.45979443192481995,-0.559529721736908,0.5701823830604553
1771073188132070000,12.13606982421875,-0.4896217882633209,-0.6010749936103821,0.9845699071884155
1771073188142010000,12.146010009765625,-0.43209755420684814,-0.5435507893562317,1.4628733396530151
1771073188151950300,12.155950439453125,-0.3532680571079254,-0.42424124479293823,1.9262629747390747
1771073188161890800,12.165890869140625,-0.344745934009552,-0.33795487880706787,2.1829915046691895
1771073188171831000,12.1758310546875,-0.44061967730522156,-0.3304980397224426,2.0434420108795166
1771073188181771300,12.185771240234375,-0.6121271252632141,-0.38589176535606384,1.4160016775131226
1771073188191711700,12.195711669921875,-0.826245129108429,-0.4125233590602875,0.3986749053001404
1771073188201652000,12.20565185546875,-1.144758939743042,-0.27297380566596985,-0.6090644598007202
1771073188211592200,12.21559228515625,-1.5879086256027222,-0.12170637398958206,-1.347292184829712
1771073188221532700,12.22553271484375,-2.0662119388580322,-0.18881797790527344,-1.8010945320129395
1771073188231473000,12.235472900390626,-2.4422500133514404,-0.3826959729194641,-1.9406440258026123
1771073188241413000,12.2454130859375,-2.618018627166748,-0.492418110370636,-1.7563533782958984
1771073188251353600,12.255353515625,-2.5359933376312256,-0.47963494062423706,-1.3409006595611572
1771073188261293800,12.2652939453125,-2.2142837047576904,-0.40080544352531433,-0.8178561329841614
1771073188271234000,12.275234130859374,-1.7157402038574219,-0.3166496157646179,-0.29694223403930664
1771073188281174500,12.285174560546874,-1.1309105157852173,-0.27190855145454407,0.14620743691921234
1771073188291114800,12.29511474609375,-0.5599291920661926,-0.2559295892715454,0.4593949317932129
1771073188301055000,12.305054931640624,-0.06990792602300644,-0.28149592876434326,0.6234455704689026
1771073188310995500,12.314995361328124,0.2997385561466217,-0.34860754013061523,0.668186604976654
1771073188320935700,12.324935791015625,0.5639239549636841,-0.4498075842857361,0.6436855792999268
1771073188330876200,12.334876220703125,0.7567366361618042,-0.5307676196098328,0.5808349847793579
1771073188340816400,12.34481640625,0.8685893416404724,-0.5520728826522827,0.500940203666687
1771073188350756600,12.354756591796875,0.8856335878372192,-0.5201149582862854,0.3976096510887146
1771073188360697000,12.364697021484375,0.8302398324012756,-0.4689823091030121,0.2836264371871948
1771073188370637300,12.37463720703125,0.7290397882461548,-0.42424124479293823,0.1664474457502365
1771073188380577500,12.38457763671875,0.5958818197250366,-0.39974018931388855,0.05352949723601341
1771073188390518000,12.39451806640625,0.4499407410621643,-0.37736964225769043,-0.040213704109191895
1771073188400458200,12.404458251953125,0.3050648868083954,-0.31878015398979187,-0.10732531547546387
1771073188410398500,12.4143984375,0.1591237634420395,-0.24421168863773346,-0.15206637978553772
1771073188420339000,12.4243388671875,0.001464737462811172,-0.14088112115859985,-0.16484954953193665
1771073188430279200,12.434279052734375,-0.17110797762870789,0.009321057237684727,-0.14993585646152496
1771073188440219400,12.444219482421875,-0.3404848873615265,0.1765674501657486,-0.13715268671512604
1771073188450159900,12.454159912109375,-0.5013396739959717,0.280963271856308,-0.1392832249403
1771073188460100000,12.46410009765625,-0.6472808122634888,0.3235738277435303,-0.18508955836296082
1771073188470040300,12.474040283203125,-0.7655251026153564,0.3597927987575531,-0.2905506491661072
1771073188479980800,12.483980712890625,-0.8283756375312805,0.41518649458885193,-0.43329599499702454
1771073188489921000,12.493921142578126,-0.821984052658081,0.41838228702545166,-0.5600623488426208
1771073188499861200,12.503861328125,-0.7729819416999817,0.34381383657455444,-0.6101297736167908
