time,seconds_elapsed,z,y,x
1771073758505362000,0.08136181640625,0,0,0
1771073758515300600,0.091300537109375,-0.03759956359863281,-0.021556854248046875,-0.029224250465631485
1771073758535178500,0.111178466796875,-0.14210796356201172,0.053550004959106445,-0.05839915573596954
1771073758545117400,0.121117431640625,-0.2689495086669922,0.08490967750549316,-0.011893805116415024
1771073758555057000,0.131056884765625,-0.3060932159423828,0.08924245834350586,0.008808800019323826
1771073758564996400,0.140996337890625,-0.29141902923583984,0.09056556224822998,0.02818729355931282
1771073758574935800,0.150935791015625,-0.2513542175292969,0.09937119483947754,0.0806199237704277
1771073758584875800,0.160875732421875,-0.0815887451171875,0.11858975887298584,0.10451570898294449
1771073758594815700,0.170815673828125,0.059383392333984375,0.12041687965393066,0.1253863424062729
1771073758604756000,0.180755859375,0.1469554901123047,0.09852087497711182,0.135003000497818
1771073758614696200,0.1906962890625,0.17603206634521484,0.0625925064086914,0.12412866204977036
1771073758624636700,0.20063671875,0.06950187683105469,0.008831620216369629,0.08591417968273163
1771073758634577200,0.2105771484375,-0.09345149993896484,-0.0011234283447265625,0.05414973199367523
1771073758644517600,0.220517578125,-0.13219928741455078,-0.0050890445709228516,-0.001810424029827118
1771073758654458400,0.230458251953125,-0.15591716766357422,-0.0028041601181030273,-0.027208972722291946
1771073758664398800,0.24039892578125,-0.147613525390625,0.005574345588684082,-0.0510585717856884
1771073758674339600,0.250339599609375,-0.1293315887451172,-0.016227364540100098,-0.007512029260396957
1771073758684279600,0.260279541015625,-0.09464740753173828,-0.043987393379211426,0.024063825607299805
1771073758704159200,0.2801591796875,-0.15203571319580078,-0.07106077671051025,-0.028621256351470947
1771073758714099200,0.29009912109375,-0.2616710662841797,-0.061194419860839844,-0.07108408957719803
1771073758724039000,0.300038818359375,-0.30777549743652344,-0.02763378620147705,-0.07238999009132385
1771073758733979000,0.309978759765625,-0.28176116943359375,0.004107952117919922,-0.05720441788434982
1771073758743918600,0.319918701171875,-0.16563796997070312,0.015536785125732422,-0.025695079937577248
1771073758753858600,0.329858642578125,-0.019872665405273438,0.002093195915222168,0.006546569522470236
1771073758763798300,0.33979833984375,0.1066904067993164,-0.01805591583251953,0.03751804307103157
1771073758773738200,0.34973828125,0.1851787567138672,-0.04299664497375488,0.04234200343489647
1771073758783678000,0.359677978515625,0.17359161376953125,-0.0660790205001831,0.004080231301486492
1771073758793618000,0.369617919921875,0.08635139465332031,-0.07526254653930664,-0.0023427512496709824
1771073758803557600,0.3795576171875,-0.02117919921875,-0.06318473815917969,-0.024893691763281822
1771073758813497600,0.38949755859375,-0.037357330322265625,-0.06246471405029297,-0.09196045994758606
1771073758823437300,0.399437255859375,0.028106689453125,-0.07072675228118896,-0.1211891770362854
1771073758833377300,0.409377197265625,0.07079505920410156,-0.08365738391876221,-0.07841154932975769
1771073758843317000,0.41931689453125,0.09148216247558594,-0.07120025157928467,-0.021110914647579193
1771073758853257000,0.429257080078125,0.09782600402832031,-0.02259063720703125,0.038793813437223434
1771073758863197000,0.439197021484375,0.13212966918945312,0.026430606842041016,0.06151709705591202
1771073758873136600,0.44913671875,0.16102123260498047,0.05990111827850342,0.06797616928815842
1771073758883076600,0.45907666015625,0.14038562774658203,0.08273196220397949,0.06125074625015259
1771073758893016300,0.469016357421875,0.09241676330566406,0.12099301815032959,0.08253221213817596
1771073758902956300,0.478956298828125,-0.03613758087158203,0.15869402885437012,0.12315858900547028
1771073758912896000,0.48889599609375,-0.02634429931640625,0.14789307117462158,0.10134217143058777
1771073758922836000,0.4988359375,0.03677940368652344,0.1199033260345459,0.09171980619430542
1771073758932775700,0.508775634765625,0.16389751434326172,0.10256624221801758,0.08244699239730835
1771073758942715600,0.518715576171875,0.2884035110473633,0.08731865882873535,0.07221431285142899
1771073758952655400,0.5286552734375,0.2701225280761719,0.08013486862182617,0.050409071147441864
1771073758962595300,0.53859521484375,0.1542644500732422,0.09479331970214844,0.013977589085698128
1771073758972535000,0.54853515625,0.010679244995117188,0.14755535125732422,0.003586888313293457
1771073758982475000,0.55847509765625,-0.14626789093017578,0.2009572982788086,0.003521393984556198
1771073758992414700,0.568414794921875,-0.2415637969970703,0.19980907440185547,0.009975332766771317
1771073759002354700,0.578354736328125,-0.1874542236328125,0.18362414836883545,-0.017488040030002594
1771073759012294400,0.58829443359375,-0.06891250610351562,0.13603830337524414,-0.01849430426955223
1771073759022234400,0.598234375,0.10596752166748047,0.07600033283233643,0.047507766634225845
1771073759032174000,0.608174072265625,0.30816650390625,0.04314923286437988,0.08264712989330292
1771073759042114000,0.618114013671875,0.40118408203125,0.03822648525238037,0.08621221780776978
1771073759052053800,0.6280537109375,0.3965187072753906,0.024959921836853027,0.07729216665029526
1771073759061993700,0.63799365234375,0.35001277923583984,-0.008475184440612793,0.029630742967128754
1771073759071933700,0.64793359375,0.23641681671142578,-0.028514862060546875,-0.04228644445538521
1771073759081873400,0.657873291015625,0.11069583892822266,-0.06940746307373047,-0.11011861264705658
1771073759091813400,0.6678134765625,0.003421783447265625,-0.0922626256942749,-0.10516281425952911
1771073759101753300,0.67775341796875,-0.07172870635986328,-0.0685117244720459,-0.07562310248613358
1771073759111693300,0.687693359375,-0.0940847396850586,-0.010803699493408203,-0.04841364547610283
1771073759121633000,0.697633056640625,-0.0997323989868164,0.02554929256439209,0.0059777358546853065
1771073759131573000,0.707572998046875,-0.060573577880859375,0.03785300254821777,0.04902169853448868
1771073759141513000,0.717512939453125,-0.02666950225830078,0.037583351135253906,0.08144183456897736
1771073759151452700,0.72745263671875,-0.08034801483154297,0.05094790458679199,0.0970042422413826
1771073759161392600,0.737392578125,-0.1543407440185547,0.054773807525634766,0.062368616461753845
1771073759171332600,0.74733251953125,-0.17072486877441406,0.03333687782287598,-0.0029655853286385536
1771073759181272600,0.7572724609375,-0.18002700805664062,0.011296868324279785,-0.027386672794818878
1771073759191212300,0.76721240234375,-0.07643795013427734,0.005241870880126953,-0.021147185936570168
1771073759201152300,0.77715234375,0.03468132019042969,-0.004525661468505859,0.018772637471556664
1771073759211092200,0.78709228515625,0.056789398193359375,-0.002059459686279297,0.054730869829654694
1771073759221032000,0.797031982421875,0.024366378784179688,0.007529020309448242,0.0509997121989727
1771073759230972000,0.806971923828125,0.027747154235839844,0.0172574520111084,0.019052235409617424
1771073759240912000,0.816911865234375,0.13935279846191406,0.02221512794494629,0.003204154781997204
1771073759250851800,0.826851806640625,0.2752113342285156,0.04237639904022217,0.025055140256881714
1771073759260791600,0.83679150390625,0.23958301544189453,0.030002951622009277,0.042813193053007126
1771073759270731500,0.8467314453125,0.13884258270263672,0.018994808197021484,0.03738494962453842
1771073759280671500,0.85667138671875,0.08463668823242188,0.031015634536743164,0.045728251338005066
1771073759290611500,0.866611572265625,0.0972890853881836,0.07088804244995117,0.04637113958597183
1771073759300551200,0.87655126953125,0.14040851593017578,0.08615398406982422,0.05652046203613281
1771073759310491100,0.8864912109375,0.10991668701171875,0.10302066802978516,0.06474535167217255
1771073759320431000,0.89643115234375,0.07531166076660156,0.12381672859191895,0.05554390698671341
1771073759330370800,0.906370849609375,0.05078697204589844,0.10374462604522705,0.02683434821665287
1771073759340310800,0.916310791015625,0.043221473693847656,0.08831632137298584,0.025974255055189133
1771073759350250800,0.926250732421875,0.06164264678955078,0.10630524158477783,0.06191665679216385
1771073759360190700,0.936190673828125,0.1974191665649414,0.11958527565002441,0.0858239084482193
1771073759370130400,0.94613037109375,0.19208717346191406,0.10880112648010254,0.08545073866844177
1771073759380070400,0.9560703125,0.07152271270751953,0.08387148380279541,0.0887455940246582
1771073759390010400,0.96601025390625,-0.02356243133544922,0.05269503593444824,0.05382615700364113
1771073759399950000,0.9759501953125,-0.02068328857421875,0.027546405792236328,-0.0006080921739339828
1771073759409890000,0.98589013671875,0.014944076538085938,0.0060694217681884766,-0.03151782602071762
1771073759419830000,0.995830078125,0.0852193832397461,-0.028776884078979492,-0.0012269075959920883
1771073759429770000,1.00577001953125,0.18257617950439453,-0.04420876502990723,0.02681378275156021
1771073759439709700,1.015709716796875,0.23370742797851562,-0.029477834701538086,0.0508057102560997
1771073759449649700,1.025649658203125,0.2300548553466797,-0.004420757293701172,0.07757049053907394
1771073759459589600,1.035589599609375,0.19372177124023438,0.00018417835235595703,0.1140795573592186
1771073759469529300,1.045529296875,0.09225654602050781,-0.008059501647949219,0.12223821878433228
1771073759479469300,1.05546923828125,0.020845413208007812,-0.012056708335876465,0.11123575270175934
1771073759489409300,1.0654091796875,-0.021032333374023438,-0.025903940200805664,0.06465687602758408
1771073759499349200,1.075349365234375,-0.10918617248535156,-0.04247391223907471,-0.00967872329056263
1771073759509289000,1.0852890625,-0.20287704467773438,-0.05200397968292236,-0.06686832755804062
1771073759519229000,1.09522900390625,-0.2879457473754883,-0.016642093658447266,-0.03267852962017059
1771073759529169000,1.1051689453125,-0.3340568542480469,0.05885648727416992,0.032403312623500824
1771073759539108600,1.115108642578125,-0.37494850158691406,0.12508249282836914,0.11891278624534607
1771073759549048600,1.125048583984375,-0.31197547912597656,0.16650664806365967,0.15587753057479858
1771073759558988500,1.134988525390625,-0.23879623413085938,0.1558842658996582,0.15713003277778625
1771073759568928500,1.144928466796875,-0.10376834869384766,0.0939788818359375,0.11937820911407471
1771073759578868200,1.1548681640625,0.024007797241210938,0.01821768283843994,0.06493286043405533
1771073759588808200,1.16480810546875,0.1284322738647461,-0.030184030532836914,0.056946057826280594
1771073759598748200,1.174748046875,0.17711925506591797,-0.012655019760131836,0.037796951830387115
1771073759608687900,1.18468798828125,0.18758487701416016,-0.013292789459228516,0.005110842641443014
1771073759618627800,1.1946279296875,0.12044048309326172,-0.04356694221496582,-0.04220166057348251
1771073759628567800,1.20456787109375,0.08750534057617188,-0.05284583568572998,-0.08510880172252655
1771073759638507800,1.2145078125,0.05743694305419922,-0.04764449596405029,-0.09951484948396683
1771073759648447500,1.224447509765625,0.0889730453491211,-0.05370199680328369,-0.07175049185752869
1771073759658387500,1.234387451171875,0.183441162109375,-0.02845311164855957,-0.02259039133787155
1771073759668327400,1.244327392578125,0.2198343276977539,0.008147716522216797,0.034673452377319336
1771073759678267400,1.254267333984375,0.14017009735107422,0.030514121055603027,0.04307708516716957
1771073759688207000,1.26420703125,0.049828529357910156,0.0255582332611084,-0.005917701870203018
1771073759698147000,1.27414697265625,0.05727386474609375,0.04327666759490967,0.03481215983629227
1771073759708087000,1.284087158203125,-0.0013866424560546875,0.03520655632019043,-0.002747178077697754
1771073759718026800,1.29402685546875,-0.11796760559082031,0.048764944076538086,-0.022430306300520897
1771073759727966700,1.303966796875,-0.17850494384765625,0.05063033103942871,-0.06450724601745605
1771073759737906700,1.31390673828125,-0.12029552459716797,0.03353440761566162,-0.12122488021850586
1771073759747846700,1.3238466796875,-0.10052776336669922,0.008563876152038574,-0.12178049981594086
1771073759757786400,1.333786376953125,-0.057290077209472656,-0.03161299228668213,-0.12469534575939178
1771073759767726300,1.343726318359375,-0.014448165893554688,-0.05418288707733154,-0.12019458413124084
1771073759777666000,1.353666015625,-0.00028228759765625,-0.07336807250976562,-0.11503401398658752
1771073759787606000,1.36360595703125,0.01854419708251953,-0.08391702175140381,-0.13186676800251007
1771073759797546000,1.3735458984375,0.006505012512207031,-0.07575690746307373,-0.14344607293605804
1771073759807485700,1.383485595703125,-0.026620864868164062,-0.0977398157119751,-0.11837072670459747
1771073759817425700,1.39342578125,-0.009936332702636719,-0.08765339851379395,-0.12058793753385544
1771073759827365400,1.403365478515625,-0.02902507781982422,-0.06722307205200195,-0.15186667442321777
1771073759837305300,1.413305419921875,-0.059665679931640625,-0.05124711990356445,-0.15610161423683167
1771073759847245000,1.4232451171875,-0.0944986343383789,-0.054375648498535156,-0.1601882129907608
1771073759857185000,1.43318505859375,-0.14750957489013672,-0.039119720458984375,-0.15418797731399536
1771073759867124700,1.443124755859375,-0.15012550354003906,-0.022266387939453125,-0.15494826436042786
1771073759877064700,1.453064697265625,-0.18568801879882812,0.006173968315124512,-0.10321523249149323
1771073759887004400,1.46300439453125,-0.1596965789794922,0.0543745756149292,-0.018393971025943756
1771073759896944400,1.4729443359375,-0.014387130737304688,0.07777488231658936,-0.011909686028957367
1771073759906884000,1.482884033203125,0.06940650939941406,0.07168066501617432,-0.02682773768901825
1771073759916824000,1.492823974609375,0.09281158447265625,0.026569366455078125,-0.058465614914894104
1771073759926763800,1.502763671875,0.11107158660888672,-0.008071660995483398,-0.08745698630809784
1771073759936703700,1.512703857421875,0.1997089385986328,-0.014185428619384766,-0.1332477629184723
1771073759946643500,1.5226435546875,0.2752714157104492,-0.03768205642700195,-0.13125811517238617
1771073759956583400,1.53258349609375,0.2791900634765625,-0.05277419090270996,-0.1029374822974205
1771073759966523100,1.542523193359375,0.2550983428955078,-0.048230528831481934,-0.0840877965092659
1771073759976463000,1.552463134765625,0.21287250518798828,-0.01967036724090576,-0.07767337560653687
1771073759986402800,1.56240283203125,0.1410045623779297,-0.007317662239074707,-0.06258300691843033
1771073759996342800,1.5723427734375,0.053933143615722656,0.020807862281799316,-0.045891307294368744
1771073760006282500,1.582282470703125,0.05069255828857422,0.03443741798400879,-0.0416838601231575
1771073760016222500,1.592222412109375,0.05213451385498047,0.043630242347717285,-0.006790101528167725
1771073760026162200,1.602162109375,0.07230854034423828,0.060230255126953125,0.016269326210021973
1771073760036102100,1.61210205078125,0.0827035903930664,0.06262528896331787,0.049097802489995956
1771073760046041900,1.622041748046875,0.050617218017578125,0.0669335126876831,0.08188093453645706
1771073760055981800,1.63198193359375,0.03323841094970703,0.08970785140991211,0.09721881151199341
1771073760065921500,1.641921630859375,0.09865665435791016,0.0949239730834961,0.08065734803676605
1771073760075861500,1.651861572265625,0.1750040054321289,0.10090148448944092,0.07817917317152023
1771073760085801200,1.66180126953125,0.1420917510986328,0.10497283935546875,0.05802778899669647
1771073760095741200,1.6717412109375,-0.04070568084716797,0.10992574691772461,0.06484461575746536
1771073760105681000,1.681680908203125,-0.21343135833740234,0.14560770988464355,0.06817160546779633
1771073760115620900,1.691620849609375,-0.3058156967163086,0.20790326595306396,0.07678298652172089
1771073760125560800,1.701560791015625,-0.31001853942871094,0.23656105995178223,0.10964551568031311
1771073760135500500,1.71150048828125,-0.18046951293945312,0.22772908210754395,0.12975728511810303
1771073760145440500,1.7214404296875,0.0029878616333007812,0.16515016555786133,0.13130374252796173
1771073760155380200,1.731380126953125,0.14547252655029297,0.09570181369781494,0.1152263805270195
1771073760165320200,1.7413203125,0.2596149444580078,0.016141414642333984,0.0659557431936264
1771073760175260200,1.75126025390625,0.3013572692871094,-0.02512657642364502,0.031048698350787163
1771073760185199900,1.761199951171875,0.2978858947753906,-0.03630542755126953,0.019301611930131912
1771073760195139800,1.771139892578125,0.22417354583740234,-0.03507983684539795,-0.0005093663930892944
1771073760205079800,1.781079833984375,0.0813608169555664,-0.02862250804901123,-0.03448215872049332
1771073760215019800,1.791019775390625,-0.04950237274169922,0.014387249946594238,-0.023599445819854736
1771073760224959500,1.80095947265625,-0.03685569763183594,0.016153454780578613,-0.041040148586034775
1771073760234899500,1.8108994140625,-0.045597076416015625,0.034264564514160156,0.016192644834518433
1771073760244839400,1.82083935546875,-0.04249286651611328,0.059542298316955566,0.11636564135551453
1771073760254779100,1.830779052734375,0.0240325927734375,0.04969322681427002,0.12195316702127457
1771073760264719000,1.840718994140625,0.03995323181152344,0.03335082530975342,0.08031845837831497
1771073760274659000,1.8506591796875,-0.05039215087890625,0.012977004051208496,0.03656189143657684
1771073760284599000,1.86059912109375,-0.12049579620361328,0.007672548294067383,0.008012063801288605
1771073760304478700,1.880478759765625,-0.05623817443847656,0.0030153989791870117,-0.06249692291021347
1771073760314418700,1.890418701171875,0.0075531005859375,-0.018550753593444824,-0.07800894975662231
1771073760324358400,1.9003583984375,0.05388450622558594,-0.04732334613800049,-0.05846607685089111
1771073760334298400,1.91029833984375,0.07847118377685547,-0.07456815242767334,-0.06309244781732559
1771073760344238300,1.92023828125,0.027540206909179688,-0.09334790706634521,-0.08901417255401611
1771073760354178300,1.93017822265625,-0.015366554260253906,-0.08427035808563232,-0.09625396877527237
1771073760364118000,1.940117919921875,-0.0033750534057617188,-0.06377923488616943,-0.07513592392206192
1771073760374058000,1.95005810546875,0.027256011962890625,-0.03421759605407715,-0.03728459030389786
1771073760383998000,1.959998046875,0.03158283233642578,-0.01987743377685547,-0.020733587443828583
1771073760393937700,1.969937744140625,0.0030279159545898438,-0.02315819263458252,-0.008900292217731476
1771073760403877600,1.979877685546875,-0.07900428771972656,-0.013460993766784668,0.00016180425882339478
1771073760413817600,1.989817626953125,-0.12898826599121094,-0.02090442180633545,-0.00353800505399704
1771073760423757600,1.999757568359375,-0.1568899154663086,0.006691336631774902,0.029821597039699554
1771073760433697300,2.009697265625,-0.1725788116455078,0.03393220901489258,0.056877441704273224
1771073760443637200,2.01963720703125,-0.14334583282470703,0.05877506732940674,0.05683068186044693
1771073760453577200,2.0295771484375,-0.06995487213134766,0.029564380645751953,0.04474514722824097
1771073760463517200,2.03951708984375,0.018711090087890625,0.0030978918075561523,0.04950858652591705
1771073760473457000,2.049456787109375,0.11073112487792969,-0.0071479082107543945,0.05719935894012451
1771073760483396900,2.05939697265625,0.14966201782226562,-0.002143263816833496,0.07489875704050064
1771073760493336800,2.0693369140625,0.1387777328491211,0.005883932113647461,0.04562004655599594
1771073760503276500,2.079276611328125,0.050719261169433594,-0.014125585556030273,0.018349621444940567
1771073760513216500,2.089216552734375,-0.11818599700927734,-0.050780653953552246,0.0004191771149635315
1771073760523156500,2.099156494140625,-0.2634286880493164,-0.09894609451293945,-0.0750356987118721
1771073760533096400,2.109096435546875,-0.25849151611328125,-0.055901408195495605,-0.10741175711154938
1771073760543036200,2.1190361328125,-0.18600177764892578,-0.03567612171173096,-0.09851332753896713
1771073760552976100,2.12897607421875,-0.0705099105834961,-0.017400622367858887,-0.004277803003787994
1771073760562916000,2.138916015625,0.08049964904785156,-0.0027379989624023438,0.09237859398126602
1771073760572855800,2.148855712890625,0.15607738494873047,0.006676197052001953,0.14490076899528503
1771073760582795800,2.158795654296875,0.13644886016845703,0.02640700340270996,0.1383952498435974
1771073760592735700,2.16873583984375,0.049102783203125,0.06324625015258789,0.1451740562915802
1771073760602675700,2.17867578125,0.026917457580566406,0.058550477027893066,0.12650954723358154
1771073760612615400,2.188615478515625,0.03578662872314453,0.05343472957611084,0.11665453761816025
1771073760622555400,2.198555419921875,0.04459381103515625,0.022006630897521973,0.08846400678157806
1771073760632495400,2.208495361328125,0.01094818115234375,-0.006944060325622559,0.05685415118932724
1771073760642435000,2.21843505859375,0.0015106201171875,-0.01953411102294922,0.007438350468873978
1771073760652375000,2.228375,-0.0783071517944336,0.009959220886230469,-0.014421258121728897
1771073760662315000,2.23831494140625,-0.21570205688476562,0.06515765190124512,-0.014778941869735718
1771073760672255000,2.2482548828125,-0.27561378479003906,0.12494766712188721,0.0331224650144577
1771073760682194700,2.258194580078125,-0.24759674072265625,0.18474721908569336,0.11639201641082764
1771073760692134700,2.268134765625,-0.19431018829345703,0.19501972198486328,0.16386541724205017
1771073760702074600,2.27807470703125,-0.08793926239013672,0.14491772651672363,0.16949522495269775
1771073760712014300,2.288014404296875,0.05417823791503906,0.08713805675506592,0.13531211018562317
1771073760721954300,2.297954345703125,0.16793346405029297,0.02856731414794922,0.06978921592235565
1771073760731894300,2.307894287109375,0.24216651916503906,-0.036290884017944336,0.013586955145001411
1771073760741834200,2.317834228515625,0.27292633056640625,-0.09380733966827393,-0.052334271371364594
1771073760751774000,2.32777392578125,0.27046775817871094,-0.15657925605773926,-0.1002282202243805
1771073760761714000,2.3377138671875,0.19769573211669922,-0.17518341541290283,-0.15343554317951202
1771073760771654000,2.34765380859375,0.08633232116699219,-0.14299345016479492,-0.12584412097930908
1771073760781593900,2.35759375,0.019295692443847656,-0.07427752017974854,-0.06749241799116135
1771073760791533600,2.367533447265625,0.035823822021484375,-0.0164262056350708,-0.020467475056648254
1771073760801473500,2.3774736328125,0.007396697998046875,0.02603447437286377,0.040116846561431885
1771073760811413200,2.387413330078125,-0.037072181701660156,0.035032033920288086,0.08990663290023804
1771073760821353200,2.397353271484375,-0.017316818237304688,0.02790367603302002,0.030653228983283043
1771073760831293000,2.40729296875,-0.040381431579589844,0.005115509033203125,-0.021950796246528625
1771073760841233000,2.41723291015625,-0.09383201599121094,-0.004519820213317871,-0.030582178384065628
1771073760851172600,2.427172607421875,-0.08060550689697266,0.0032873153686523438,-0.0010333620011806488
1771073760861112600,2.437112548828125,-0.08184051513671875,0.028147101402282715,0.007252417504787445
1771073760871052300,2.44705224609375,-0.040680885314941406,0.04788625240325928,0.0008568577468395233
1771073760880992300,2.4569921875,0.006901741027832031,0.03168284893035889,-0.0038964450359344482
1771073760890932000,2.466931884765625,0.03256702423095703,0.00828695297241211,-0.02344834804534912
1771073760900872000,2.476871826171875,0.060227394104003906,-0.024538397789001465,-0.03319063410162926
1771073760910811600,2.486811767578125,0.08749580383300781,-0.043094515800476074,-0.03048134595155716
1771073760920751600,2.496751708984375,0.06492328643798828,-0.031038403511047363,-0.03885326534509659
1771073760930691300,2.50669140625,0.035752296447753906,-0.038519859313964844,-0.0628800019621849
1771073760940631300,2.51663134765625,-0.04467487335205078,-0.03676164150238037,-0.06985912472009659
1771073760950571000,2.526571044921875,-0.1402759552001953,-0.03012561798095703,-0.08405306935310364
1771073760960511000,2.536510986328125,-0.17786788940429688,-0.004266858100891113,-0.07505367696285248
1771073760970450700,2.54645068359375,-0.15845012664794922,0.019506454467773438,-0.04323043301701546
1771073760980390700,2.556390625,-0.1253499984741211,0.057711124420166016,0.025430360808968544
1771073760990330400,2.566330322265625,-0.0670013427734375,0.07940304279327393,0.05360947549343109
1771073761000270300,2.576270263671875,-0.044952392578125,0.0678778886795044,0.04223246872425079
1771073761010210000,2.5862099609375,-0.06092643737792969,0.03761398792266846,0.025953112170100212
1771073761020150000,2.59614990234375,-0.11433887481689453,-0.010776042938232422,-0.04941287264227867
1771073761030089700,2.60608984375,-0.11989593505859375,-0.057660579681396484,-0.11241993308067322
1771073761040029700,2.61602978515625,-0.07371902465820312,-0.07226181030273438,-0.12568870186805725
1771073761049969400,2.625969482421875,0.004543304443359375,-0.06248056888580322,-0.08316801488399506
1771073761059909400,2.635909423828125,0.1356525421142578,-0.04344654083251953,-0.055631428956985474
1771073761069849000,2.64584912109375,0.1987752914428711,-0.05368220806121826,-0.02867043763399124
1771073761079789000,2.6557890625,0.22805500030517578,-0.09770917892456055,-0.03944319486618042
1771073761089728800,2.665728759765625,0.18874359130859375,-0.1208193302154541,-0.056111715734004974
1771073761099668700,2.675668701171875,0.09839534759521484,-0.11825406551361084,-0.05556827783584595
1771073761109608400,2.6856083984375,0.030775070190429688,-0.08297646045684814,-0.03878515958786011
1771073761119548400,2.69554833984375,-0.00043582916259765625,-0.0433802604675293,-0.03413477912545204
1771073761129488400,2.70548828125,-0.02879047393798828,-0.03730666637420654,-0.01561807468533516
1771073761139428000,2.715427978515625,-0.08028221130371094,-0.030933618545532227,0.03521702438592911
1771073761149368000,2.7253681640625,-0.07915782928466797,0.0108489990234375,0.0562354139983654
1771073761159307800,2.735307861328125,-0.03806591033935547,0.040367722511291504,0.08782193809747696
1771073761169247700,2.745247802734375,0.023576736450195312,0.04084658622741699,0.06636721640825272
1771073761179187500,2.7551875,0.030175209045410156,-0.011276006698608398,0.033246658742427826
1771073761189127400,2.76512744140625,-0.019677162170410156,-0.08001172542572021,-0.01642061024904251
1771073761199067400,2.7750673828125,-0.11333274841308594,-0.12701499462127686,-0.12022577971220016
1771073761209007000,2.785007080078125,-0.15827655792236328,-0.1289057731628418,-0.1719382405281067
1771073761218947000,2.794947021484375,-0.2236928939819336,-0.06228947639465332,-0.1299801468849182
1771073761228887000,2.804886962890625,-0.2929534912109375,0.04229331016540527,-0.04936043545603752
1771073761238826800,2.81482666015625,-0.2625160217285156,0.1566622257232666,0.12338995188474655
1771073761248766700,2.8247666015625,-0.07756996154785156,0.2714381217956543,0.26712873578071594
1771073761258706700,2.834706787109375,0.16764163970947266,0.32449638843536377,0.3202524781227112
1771073761268646700,2.844646728515625,0.3404808044433594,0.28965914249420166,0.36756810545921326
1771073761278586400,2.85458642578125,0.47284889221191406,0.18897390365600586,0.3059186041355133
1771073761288526300,2.8645263671875,0.5914621353149414,0.07443130016326904,0.15574359893798828
1771073761298466300,2.87446630859375,0.6472673416137695,-0.028839588165283203,0.04071676358580589
1771073761308406000,2.884406005859375,0.5684604644775391,-0.12183034420013428,-0.06353335082530975
1771073761318346000,2.894345947265625,0.3665599822998047,-0.1967451572418213,-0.19363421201705933
1771073761328286000,2.904285888671875,0.17296123504638672,-0.21530914306640625,-0.2741659879684448
1771073761338226000,2.914225830078125,-0.017357826232910156,-0.17029273509979248,-0.26196277141571045
1771073761348165600,2.92416552734375,-0.14333438873291016,-0.09275984764099121,-0.18334358930587769
1771073761358105600,2.934105712890625,-0.16134357452392578,-0.006595969200134277,-0.0561358705163002
1771073761368045600,2.944045654296875,-0.11785030364990234,0.073525071144104,0.0842694491147995
1771073761377985300,2.9539853515625,-0.07739925384521484,0.13327515125274658,0.1727866381406784
1771073761387925200,2.96392529296875,-0.04930877685546875,0.13972938060760498,0.18528881669044495
1771073761397865200,2.973865234375,-0.16048812866210938,0.12192630767822266,0.1397770643234253
1771073761407805200,2.98380517578125,-0.3052206039428711,0.0673520565032959,0.08051060885190964
1771073761417745000,2.993744873046875,-0.30649566650390625,0.036183953285217285,0.014247626066207886
1771073761427684900,3.003684814453125,-0.2325725555419922,0.023022890090942383,-0.016818219795823097
1771073761437624800,3.013624755859375,-0.14583587646484375,-0.0035403966903686523,0.003709450364112854
1771073761447564500,3.023564453125,-0.08174514770507812,-0.04133307933807373,0.01875312253832817
1771073761457504500,3.03350439453125,-0.056443214416503906,-0.059362173080444336,-0.0012985765933990479
1771073761467444500,3.043444580078125,-0.012819290161132812,-0.10013234615325928,-0.06913471221923828
1771073761477384400,3.053384521484375,-0.0759725570678711,-0.14197051525115967,-0.10221324115991592
1771073761487324200,3.06332421875,-0.08409404754638672,-0.15384948253631592,-0.13729795813560486
1771073761497264000,3.07326416015625,-0.052193641662597656,-0.13411462306976318,-0.10138829052448273
1771073761507204000,3.0832041015625,-0.011548995971679688,-0.07858836650848389,-0.048594001680612564
1771073761517144000,3.09314404296875,-0.0022945404052734375,-0.04928421974182129,-0.018900733441114426
1771073761527083800,3.103083740234375,0.02799224853515625,-0.03930544853210449,-0.031810589134693146
1771073761537023700,3.113023681640625,0.046141624450683594,-0.037360191345214844,-0.04966394230723381
1771073761546963700,3.122963623046875,0.012417793273925781,-0.043814897537231445,-0.04701680317521095
1771073761556903400,3.1329033203125,-0.018230438232421875,-0.032231926918029785,-0.005744583904743195
1771073761566843400,3.142843505859375,0.010548591613769531,-0.018790841102600098,-0.0134662427008152
1771073761576783400,3.152783447265625,0.04592609405517578,-0.01509237289428711,-0.03493420034646988
1771073761586723300,3.162723388671875,0.05943870544433594,-0.03214108943939209,-0.029679499566555023
1771073761596663000,3.1726630859375,0.08670997619628906,-0.0575181245803833,-0.05396505445241928
1771073761606603000,3.18260302734375,0.0757293701171875,-0.048807382583618164,-0.052664194256067276
1771073761616543000,3.19254296875,0.09545040130615234,-0.04680275917053223,-0.03186430409550667
1771073761626482700,3.202482666015625,0.15017127990722656,-0.021389245986938477,-0.027488788589835167
1771073761636422700,3.212422607421875,0.13344860076904297,-0.03231537342071533,-0.041350383311510086
1771073761646362600,3.222362548828125,0.07952213287353516,-0.05122661590576172,-0.04334256052970886
1771073761656302600,3.232302490234375,0.012557029724121094,-0.042676329612731934,-0.03424961119890213
1771073761666242300,3.2422421875,-0.04374885559082031,-0.006719827651977539,-0.022022925317287445
1771073761676182300,3.252182373046875,-0.04255867004394531,0.02362799644470215,-0.0038418658077716827
1771073761686122200,3.262122314453125,-0.02722454071044922,0.027372121810913086,0.018057603389024734
1771073761696062000,3.27206201171875,-0.012145042419433594,0.02634572982788086,0.04451720416545868
1771073761706002000,3.282001953125,-0.02086639404296875,0.0418168306350708,0.04841401055455208
1771073761715942000,3.29194189453125,-0.107208251953125,0.0433049201965332,0.060445576906204224
1771073761725881900,3.3018818359375,-0.2087411880493164,0.06685841083526611,0.08852220326662064
1771073761735821600,3.311821533203125,-0.2123565673828125,0.0824054479598999,0.08963224291801453
1771073761745761500,3.321761474609375,-0.11257743835449219,0.06152784824371338,0.07417706400156021
1771073761755701500,3.331701416015625,-0.02161121368408203,0.010892868041992188,0.07597798109054565
1771073761765641200,3.34164111328125,0.05611705780029297,-0.018009424209594727,0.07793281972408295
1771073761775581200,3.351581298828125,0.092742919921875,-0.0030031204223632812,0.033505383878946304
1771073761785521200,3.361521240234375,0.016005516052246094,0.0031838417053222656,0.006750769913196564
1771073761795461000,3.371461181640625,-0.10874176025390625,0.038970232009887695,-0.031112084165215492
1771073761805400800,3.38140087890625,-0.2973756790161133,0.07917118072509766,-0.03172965347766876
1771073761815340800,3.3913408203125,-0.3323783874511719,0.10813295841217041,-0.00009637326002120972
1771073761825280500,3.401280517578125,-0.1810474395751953,0.1286942958831787,0.05450582504272461
1771073761835220500,3.411220458984375,0.03592491149902344,0.10487747192382812,0.1241144984960556
1771073761845160200,3.42116015625,0.19746685028076172,0.05094563961029053,0.1604565680027008
1771073761855100200,3.43110009765625,0.3139944076538086,0.006923198699951172,0.1418277621269226
1771073761865040000,3.441039794921875,0.2944679260253906,-0.036969542503356934,0.06251580268144608
1771073761874979800,3.450979736328125,0.21642780303955078,-0.08503854274749756,-0.04389090836048126
1771073761884919600,3.46091943359375,0.14204978942871094,-0.1418147087097168,-0.1452522575855255
1771073761894859500,3.470859619140625,0.09726619720458984,-0.13937628269195557,-0.17890658974647522
1771073761904799200,3.48079931640625,0.020442962646484375,-0.09559643268585205,-0.11838202178478241
1771073761914739200,3.4907392578125,-0.08788394927978516,-0.015880227088928223,-0.03639448061585426
1771073761924679000,3.500678955078125,-0.17549419403076172,0.05268597602844238,0.007490403950214386
1771073761934619000,3.510618896484375,-0.247528076171875,0.06841111183166504,0.03526509925723076
1771073761944558600,3.52055859375,-0.25725746154785156,0.0680924654006958,0.0844675749540329
1771073761954498600,3.53049853515625,-0.10925102233886719,0.06406831741333008,0.09002527594566345
1771073761964438300,3.540438232421875,-0.03443717956542969,0.06531715393066406,0.06198208034038544
1771073761974378200,3.550378173828125,-0.09993743896484375,0.034482359886169434,0.04800054058432579
1771073761984318000,3.56031787109375,-0.1433849334716797,-0.006309986114501953,-0.03746119141578674
1771073761994258000,3.5702578125,-0.2099437713623047,-0.05884385108947754,-0.09964382648468018
1771073762004197600,3.58019775390625,-0.2002849578857422,-0.08790707588195801,-0.13093939423561096
1771073762014137600,3.5901376953125,-0.0661325454711914,-0.06624042987823486,-0.11887042969465256
1771073762024077300,3.600077392578125,0.13180160522460938,-0.03601491451263428,-0.04515581205487251
1771073762034017300,3.610017333984375,0.25841522216796875,-0.007793426513671875,0.020367521792650223
1771073762043957000,3.61995703125,0.2913484573364258,0.001973390579223633,0.03176843747496605
1771073762053897000,3.62989697265625,0.2768888473510742,0.005365133285522461,0.0023561976850032806
1771073762063837000,3.6398369140625,0.1733999252319336,-0.008981823921203613,-0.031956203281879425
1771073762073776600,3.649776611328125,0.036437034606933594,0.018587470054626465,-0.046543411910533905
1771073762083716600,3.659716552734375,-0.05347442626953125,0.07610344886779785,-0.04004975035786629
1771073762093656300,3.66965625,-0.18193817138671875,0.13286089897155762,-0.002092462033033371
1771073762103596300,3.67959619140625,-0.21189403533935547,0.16377663612365723,0.05439768731594086
1771073762113536000,3.689535888671875,-0.1003408432006836,0.1768437623977661,0.06424595415592194
1771073762123476000,3.69947607421875,-0.0073108673095703125,0.16489624977111816,0.06018902733922005
1771073762133415700,3.709415771484375,0.06048774719238281,0.13511395454406738,0.047551192343235016
1771073762143355600,3.719355712890625,0.14829158782958984,0.08964836597442627,0.022351540625095367
1771073762153295400,3.72929541015625,0.17585468292236328,0.06562924385070801,0.03879842534661293
1771073762163235300,3.7392353515625,0.17719554901123047,0.060042619705200195,0.052884843200445175
1771073762173175000,3.749175048828125,0.19519615173339844,0.07688748836517334,0.01943354122340679
1771073762183115000,3.759114990234375,0.16365623474121094,0.05693352222442627,-0.027785848826169968
1771073762193054700,3.7690546875,0.08811378479003906,0.012565255165100098,-0.05131027102470398
1771073762202994700,3.77899462890625,0.05634498596191406,-0.015385150909423828,-0.05444178730249405
1771073762212934400,3.788934326171875,0.06048774719238281,-0.017373323440551758,-0.04150938242673874
1771073762222874400,3.798874267578125,0.0080413818359375,-0.00745546817779541,-0.014130744151771069
1771073762232814300,3.808814453125,-0.024781227111816406,0.016925811767578125,0.013243712484836578
1771073762242754000,3.818754150390625,-0.0006380081176757812,0.03434038162231445,0.047710344195365906
1771073762252694000,3.828694091796875,-0.026353836059570312,0.03743934631347656,0.07046747207641602
1771073762262634000,3.838634033203125,-0.0705099105834961,0.03126966953277588,0.05055219307541847
1771073762272574000,3.848573974609375,-0.0621337890625,0.01578545570373535,0.011599247343838215
1771073762282513700,3.858513671875,-0.05623435974121094,-0.01837468147277832,-0.027039414271712303
1771073762292453600,3.86845361328125,-0.09042167663574219,-0.02862250804901123,-0.004793448373675346
1771073762302393600,3.8783935546875,-0.05579662322998047,-0.017310023307800293,0.05354596674442291
1771073762312333300,3.888333251953125,0.011194229125976562,0.00803983211517334,0.07357935607433319
1771073762322273300,3.898273193359375,0.02525615692138672,0.007169485092163086,0.10368400812149048
1771073762332213200,3.908213134765625,0.02494049072265625,-0.005357980728149414,0.06832084059715271
1771073762342153200,3.9181533203125,-0.015377044677734375,-0.034256935119628906,-0.00811058096587658
1771073762352093000,3.928093017578125,-0.06676006317138672,-0.05581104755401611,-0.09452199190855026
1771073762371972900,3.947972900390625,-0.24648094177246094,0.031154274940490723,-0.05325861647725105
1771073762381912600,3.95791259765625,-0.29649925231933594,0.13644707202911377,0.047181639820337296
1771073762391852500,3.9678525390625,-0.2563896179199219,0.19625592231750488,0.14397980272769928
1771073762401792500,3.97779248046875,-0.12531757354736328,0.19495642185211182,0.17872698605060577
1771073762411732500,3.987732421875,0.02223682403564453,0.12640130519866943,0.13063302636146545
1771073762421672200,3.997672119140625,0.18140792846679688,0.021617650985717773,0.06784612685441971
1771073762431612200,4.007612060546875,0.276763916015625,-0.060530900955200195,-0.003915347158908844
1771073762441552100,4.01755224609375,0.2764749526977539,-0.09963178634643555,-0.053962334990501404
1771073762451491800,4.027491943359375,0.25278282165527344,-0.1223992109298706,-0.1185377985239029
1771073762461431800,4.037431884765625,0.18727779388427734,-0.10811853408813477,-0.13643698394298553
1771073762471371800,4.047371826171875,0.08304405212402344,-0.08350777626037598,-0.08913860470056534
1771073762481311700,4.057311767578125,0.016013145446777344,-0.02254188060760498,-0.04186426103115082
1771073762491251500,4.06725146484375,0.013802528381347656,0.024832963943481445,0.010262463241815567
1771073762501191400,4.07719140625,-0.02358531951904297,0.0543360710144043,0.06557680666446686
1771073762511131400,4.08713134765625,-0.06739425659179688,0.08324694633483887,0.09153515845537186
1771073762521071000,4.097071044921875,-0.11529827117919922,0.0817728042602539,0.08894570916891098
1771073762531011000,4.107010986328125,-0.1226348876953125,0.06299412250518799,0.054244719445705414
1771073762540951000,4.116950927734375,-0.11597919464111328,0.029553532600402832,-0.0022162622772157192
1771073762550891000,4.12689111328125,-0.13782310485839844,0.004536151885986328,-0.0406220480799675
1771073762560830700,4.136830810546875,-0.11700916290283203,-0.007790803909301758,-0.048435237258672714
1771073762570770700,4.146770751953125,-0.07296466827392578,-0.010695815086364746,-0.022208282724022865
1771073762580710700,4.156710693359375,-0.010700225830078125,-0.0024832487106323242,-0.018994316458702087
1771073762590650600,4.166650634765625,0.052982330322265625,-0.0020726919174194336,-0.01904006116092205
1771073762600590300,4.17659033203125,0.08034133911132812,-0.01609623432159424,-0.05398181453347206
1771073762610530300,4.1865302734375,0.06484794616699219,-0.05568289756774902,-0.08712239563465118
1771073762620470300,4.19647021484375,0.049510955810546875,-0.07752728462219238,-0.09743700176477432
1771073762630410000,4.206409912109375,0.07673931121826172,-0.06564545631408691,-0.10190294682979584
1771073762640350000,4.216349853515625,0.05647850036621094,-0.051908016204833984,-0.10542594641447067
1771073762650290000,4.2262900390625,0.010794639587402344,-0.03213942050933838,-0.07179033756256104
1771073762660230000,4.23622998046875,0.010805130004882812,0.002575397491455078,-0.03090369701385498
1771073762670169600,4.246169677734375,-0.03369712829589844,0.037761807441711426,0.0033388424199074507
1771073762680109600,4.256109619140625,-0.12687969207763672,0.06284463405609131,0.021899495273828506
1771073762690049500,4.266049560546875,-0.11981391906738281,0.05094444751739502,-0.02105889655649662
1771073762699989200,4.2759892578125,-0.12726211547851562,0.024367213249206543,-0.038905803114175797
1771073762709929200,4.28592919921875,-0.09722232818603516,0.004746556282043457,-0.001671934500336647
1771073762719869200,4.295869140625,0.019189834594726562,0.029233694076538086,0.00966259278357029
1771073762729809200,4.30580908203125,0.13591384887695312,0.028017282485961914,-0.0011803281959146261
1771073762739748900,4.315748779296875,0.1519317626953125,0.00022292137145996094,-0.034114524722099304
1771073762749688800,4.325688720703125,0.14906978607177734,-0.04489123821258545,-0.0876045897603035
1771073762759628800,4.33562890625,0.1324310302734375,-0.07222473621368408,-0.12429158389568329
1771073762769568500,4.345568603515625,0.05753135681152344,-0.0821758508682251,-0.11907710880041122
1771073762779508500,4.355508544921875,0.0076084136962890625,-0.062459468841552734,-0.06154078245162964
1771073762789448400,4.365448486328125,0.012697219848632812,-0.0362093448638916,-0.022815153002738953
1771073762799388400,4.375388427734375,0.07173442840576172,-0.028528451919555664,0.006450188811868429
1771073762809328000,4.385328125,0.09428882598876953,-0.04812312126159668,0.020838815718889236
1771073762819268000,4.39526806640625,0.09270858764648438,-0.06608617305755615,0.037715427577495575
1771073762829207800,4.405207763671875,0.039160728454589844,-0.12963008880615234,-0.06141147017478943
1771073762839147800,4.415147705078125,0.04752540588378906,-0.20739126205444336,-0.2061842530965805
1771073762849087500,4.42508740234375,-0.0713815689086914,-0.25315773487091064,-0.2691265344619751
1771073762859027500,4.43502734375,-0.29665565490722656,-0.21772778034210205,-0.23946689069271088
1771073762868967200,4.44496728515625,-0.4217977523803711,-0.13491380214691162,-0.17270338535308838
1771073762878907100,4.4549072265625,-0.44861698150634766,-0.023532509803771973,-0.14041706919670105
1771073762888846800,4.464846923828125,-0.4022998809814453,0.07356727123260498,-0.11865562945604324
1771073762898786800,4.474786865234375,-0.2486572265625,0.04537355899810791,-0.09348280727863312
1771073762908726500,4.4847265625,-0.041068077087402344,-0.03188824653625488,-0.08321938663721085
1771073762918666500,4.49466650390625,0.19152355194091797,-0.11622440814971924,-0.08875145018100739
1771073762928606200,4.504606201171875,0.34753990173339844,-0.15612518787384033,-0.13647958636283875
1771073762938546200,4.514546142578125,0.45661067962646484,-0.17883479595184326,-0.19811129570007324
1771073762948486100,4.524486083984375,0.4159727096557617,-0.15669739246368408,-0.1860981285572052
1771073762958425900,4.53442578125,0.27040767669677734,-0.09466969966888428,-0.10781630873680115
1771073762968365800,4.54436572265625,0.19336509704589844,0.009948134422302246,0.06295005232095718
1771073762978305500,4.554305419921875,0.1859302520751953,0.12665259838104248,0.19798609614372253
1771073762988245500,4.56424560546875,0.2021656036376953,0.21552610397338867,0.2840893566608429
1771073762998185200,4.574185302734375,0.24172496795654297,0.23906290531158447,0.3572697341442108
1771073763008125200,4.584125244140625,0.2665519714355469,0.21247518062591553,0.4299348294734955
1771073763018065000,4.59406494140625,0.232177734375,0.18829023838043213,0.4652140438556671
1771073763028004900,4.6040048828125,0.16296958923339844,0.1486356258392334,0.4100567698478699
1771073763037944600,4.613944580078125,0.10181522369384766,0.077689528465271,0.30870699882507324
1771073763047884500,4.623884521484375,0.0015277862548828125,0.0110856294631958,0.2203267514705658
1771073763057824300,4.63382421875,-0.0948629379272461,-0.03947639465332031,0.1573488563299179
1771073763067764200,4.64376416015625,-0.14025402069091797,-0.06535077095031738,0.12116651237010956
1771073763077704000,4.653703857421875,-0.1636648178100586,-0.08393287658691406,0.12749424576759338
1771073763087644000,4.663643798828125,-0.17245864868164062,-0.0604325532913208,0.12853756546974182
1771073763097583600,4.67358349609375,-0.20683670043945312,-0.05245709419250488,0.1365254521369934
1771073763107523600,4.683523681640625,-0.35344886779785156,-0.036404967308044434,0.212670236825943
1771073763117463300,4.69346337890625,-0.5068864822387695,0.011438250541687012,0.2627250552177429
1771073763127403300,4.7034033203125,-0.6530485153198242,0.06780862808227539,0.3376474678516388
1771073763137343000,4.713343017578125,-0.7122945785522461,0.1648775339126587,0.440300315618515
1771073763147283000,4.723282958984375,-0.6039152145385742,0.2375410795211792,0.4190743565559387
1771073763157222700,4.73322265625,-0.42968082427978516,0.19732999801635742,0.3420061767101288
1771073763167162600,4.74316259765625,-0.24942779541015625,0.07602453231811523,0.26495400071144104
1771073763177102300,4.753102294921875,-0.04422187805175781,-0.010861754417419434,0.16698893904685974
1771073763187042300,4.763042236328125,0.05862140655517578,-0.08883941173553467,0.05893930792808533
1771073763196982000,4.77298193359375,0.05854034423828125,-0.12088286876678467,-0.041025735437870026
1771073763206922000,4.782921875,0.03257274627685547,-0.14296913146972656,-0.16268981993198395
1771073763216861700,4.79286181640625,0.05413532257080078,-0.15290915966033936,-0.23432043194770813
1771073763226801700,4.8028017578125,0.1789712905883789,-0.139335036277771,-0.24021682143211365
1771073763236741600,4.81274169921875,0.2948026657104492,-0.08205056190490723,-0.18322941660881042
1771073763246681300,4.822681396484375,0.4042062759399414,-0.0340803861618042,-0.1388295441865921
1771073763256621300,4.832621337890625,0.4932260513305664,-0.030985593795776367,-0.1315746158361435
1771073763266561300,4.842561279296875,0.4798460006713867,-0.02994382381439209,-0.16553623974323273
1771073763276501200,4.852501220703125,0.39395713806152344,-0.0399395227432251,-0.2624976933002472
1771073763286441000,4.86244091796875,0.33795738220214844,-0.04401075839996338,-0.3395203948020935
1771073763306321000,4.88232080078125,0.16606426239013672,-0.04087185859680176,-0.3213095963001251
1771073763316260600,4.892260498046875,0.1589488983154297,-0.00016164779663085938,-0.2757622003555298
1771073763326200600,4.90220068359375,0.2132577896118164,0.034555792808532715,-0.25486689805984497
1771073763336140500,4.912140625,0.1891317367553711,0.048851847648620605,-0.21008920669555664
1771073763346080500,4.92208056640625,0.1065988540649414,0.039064764976501465,-0.13979601860046387
1771073763356020200,4.932020263671875,0.09372138977050781,0.052983880043029785,-0.1288963407278061
1771073763365960200,4.941960205078125,0.03397846221923828,0.06902515888214111,-0.13363561034202576
1771073763375900200,4.951900146484375,0.015228271484375,0.05674922466278076,-0.12815794348716736
1771073763385839900,4.96183984375,0.010905265808105469,0.03300750255584717,-0.10321633517742157
1771073763395779800,4.97177978515625,-0.04513263702392578,0.014370083808898926,-0.08474642038345337
1771073763405719800,4.9817197265625,-0.0885009765625,0.010473251342773438,-0.06983509659767151
1771073763415659800,4.99165966796875,-0.17358112335205078,0.02823662757873535,-0.04957812279462814
1771073763425599500,5.001599609375,-0.2715616226196289,0.04456496238708496,-0.06032130867242813
1771073763435539500,5.01153955078125,-0.2999143600463867,0.027024507522583008,-0.10472358763217926
1771073763445479400,5.0214794921875,-0.26211071014404297,-0.04531383514404297,-0.16138499975204468
1771073763455419100,5.031419189453125,-0.1615285873413086,-0.1579211950302124,-0.2045341432094574
1771073763465359000,5.041359130859375,-0.013190269470214844,-0.23805510997772217,-0.21047961711883545
1771073763475299000,5.051299072265625,0.1375274658203125,-0.25184905529022217,-0.16278943419456482
1771073763485239000,5.061239013671875,0.25072669982910156,-0.22966492176055908,-0.09705184400081635
1771073763495178800,5.0711787109375,0.3200235366821289,-0.17946481704711914,-0.00819096714258194
1771073763505118700,5.08111865234375,0.29670238494873047,-0.14399003982543945,0.01963893324136734
1771073763515058700,5.09105859375,0.1752166748046875,-0.122794508934021,0.013570249080657959
1771073763524998400,5.100998291015625,-0.02405071258544922,-0.1127861738204956,0.029615432024002075
1771073763534938400,5.1109384765625,-0.23402786254882812,-0.07294845581054688,0.04653971269726753
1771073763544878300,5.12087841796875,-0.3510770797729492,0.01812291145324707,0.08652690052986145
1771073763554818300,5.130818359375,-0.3769102096557617,0.13233458995819092,0.16338643431663513
1771073763564758000,5.140758056640625,-0.44274139404296875,0.2352985143661499,0.2563387453556061
1771073763574698000,5.150697998046875,-0.3950662612915039,0.2907372713088989,0.314395546913147
1771073763584638000,5.160637939453125,-0.28522682189941406,0.3018920421600342,0.3464570641517639
1771073763594577700,5.17057763671875,-0.14471912384033203,0.2709465026855469,0.31999608874320984
1771073763604517600,5.180517578125,-0.009202003479003906,0.20701301097869873,0.26398786902427673
1771073763614457600,5.19045751953125,0.12397384643554688,0.12817049026489258,0.23455794155597687
1771073763624397600,5.2003974609375,0.30211639404296875,0.0782938003540039,0.2141806036233902
1771073763644277200,5.22027734375,0.5308723449707031,0.014777064323425293,0.17586594820022583
1771073763654217200,5.23021728515625,0.4728202819824219,-0.02926945686340332,0.15938855707645416
1771073763664157200,5.2401572265625,0.31738853454589844,-0.028716444969177246,0.16065602004528046
1771073763674097000,5.250096923828125,0.11078453063964844,0.014242887496948242,0.14839936792850494
1771073763684036900,5.260036865234375,-0.12993907928466797,0.058237433433532715,0.09146717190742493
1771073763693976800,5.269976806640625,-0.3126487731933594,0.06473767757415771,0.02309500053524971
1771073763703916500,5.27991650390625,-0.43841552734375,0.049097299575805664,0.013951204717159271
1771073763713856500,5.2898564453125,-0.4965028762817383,0.05927419662475586,0.016046905890107155
1771073763723796500,5.29979638671875,-0.48804283142089844,0.06658470630645752,0.002981320023536682
1771073763733736400,5.309736328125,-0.3763246536254883,0.04662787914276123,-0.034474942833185196
1771073763743676200,5.31967626953125,-0.3348655700683594,0.013580083847045898,-0.07465961575508118
1771073763753616100,5.3296162109375,-0.29894351959228516,-0.025179386138916016,-0.13846604526042938
1771073763763556000,5.33955615234375,-0.21671772003173828,-0.09044599533081055,-0.2038133442401886
1771073763773495800,5.349495849609375,-0.16898822784423828,-0.1371476650238037,-0.25348129868507385
1771073763783435800,5.359435791015625,-0.12224006652832031,-0.18197357654571533,-0.27450647950172424
1771073763793375700,5.369375732421875,0.01770496368408203,-0.21308422088623047,-0.29828885197639465
1771073763803315700,5.379315673828125,0.2353200912475586,-0.2622140645980835,-0.31486472487449646
1771073763813255400,5.38925537109375,0.4094419479370117,-0.27375996112823486,-0.27623221278190613
1771073763823195400,5.3991953125,0.5009059906005859,-0.28446292877197266,-0.22483426332473755
1771073763833135400,5.40913525390625,0.5088958740234375,-0.2576737403869629,-0.17919515073299408
1771073763843075000,5.419074951171875,0.345367431640625,-0.20599353313446045,-0.10951395332813263
1771073763853015000,5.42901513671875,0.18956470489501953,-0.1146080493927002,-0.041343122720718384
1771073763862954800,5.438954833984375,0.09303855895996094,-0.016433358192443848,0.025036495178937912
1771073763872894700,5.448894775390625,-0.004164695739746094,0.05616188049316406,0.08556392788887024
1771073763882834400,5.45883447265625,-0.08805370330810547,0.11628305912017822,0.12220332026481628
1771073763892774400,5.4687744140625,-0.1848773956298828,0.13904428482055664,0.13116370141506195
1771073763902714000,5.478714111328125,-0.29216575622558594,0.16098392009735107,0.11790020018815994
1771073763912654000,5.488654052734375,-0.36742305755615234,0.16593515872955322,0.09355093538761139
1771073763922593800,5.49859375,-0.4065103530883789,0.17792248725891113,0.09987576305866241
1771073763932534000,5.508533935546875,-0.33471202850341797,0.18280136585235596,0.1335582286119461
1771073763942474000,5.518473876953125,-0.17026805877685547,0.17783331871032715,0.15011177957057953
1771073763952413700,5.52841357421875,-0.011126518249511719,0.15542006492614746,0.11767806112766266
1771073763962353700,5.538353759765625,0.14301586151123047,0.08630049228668213,0.0700501948595047
1771073763972293400,5.54829345703125,0.21942424774169922,0.0008580684661865234,-0.028115730732679367
1771073763982233300,5.5582333984375,0.2712554931640625,-0.06337130069732666,-0.13102364540100098
1771073763992173000,5.568173095703125,0.22835350036621094,-0.08360445499420166,-0.1753561645746231
1771073764002113000,5.578113037109375,0.12753868103027344,-0.06017804145812988,-0.1442558467388153
1771073764012052700,5.588052734375,0.08972454071044922,0.004528045654296875,-0.08668716251850128
1771073764021992700,5.59799267578125,0.08793067932128906,0.07000529766082764,-0.026352927088737488
1771073764031932400,5.607932373046875,0.11683082580566406,0.09632158279418945,0.034627579152584076
1771073764041872400,5.617872314453125,0.15237045288085938,0.09825754165649414,0.05616818368434906
1771073764051812000,5.62781201171875,0.20624542236328125,0.09720873832702637,0.0580938383936882
1771073764061752000,5.637751953125,0.2287311553955078,0.06486999988555908,0.034524597227573395
1771073764071691800,5.64769189453125,0.1520843505859375,0.011177301406860352,0.02420990541577339
1771073764081631700,5.6576318359375,0.06731891632080078,-0.018179774284362793,0.009829714894294739
1771073764091571500,5.667571533203125,0.014576911926269531,-0.025862812995910645,-0.013305485248565674
1771073764101511400,5.677511474609375,-0.030237197875976562,-0.016843199729919434,-0.028903894126415253
1771073764111451100,5.687451171875,-0.109619140625,-0.007978200912475586,-0.028044164180755615
1771073764121391000,5.69739111328125,-0.183013916015625,-0.0037692785263061523,-0.0073336586356163025
1771073764131330800,5.707330810546875,-0.1752481460571289,0.0009726285934448242,0.002408050000667572
1771073764141270800,5.717270751953125,-0.11117744445800781,-0.008088350296020508,0.004522576928138733
1771073764151210500,5.72721044921875,-0.07403755187988281,-0.01249074935913086,0.02789103239774704
1771073764161150500,5.737150390625,-0.07281303405761719,-0.016918420791625977,0.030014917254447937
1771073764171090200,5.747090087890625,-0.135162353515625,-0.01901531219482422,0.041267670691013336
1771073764181030100,5.757030029296875,-0.17065811157226562,-0.02057337760925293,0.04735533893108368
1771073764190969900,5.766969970703125,-0.13741779327392578,-0.004819750785827637,0.048580918461084366
1771073764200909800,5.776909912109375,-0.12364768981933594,-0.007659912109375,0.07080617547035217
1771073764210849800,5.786849853515625,-0.05840873718261719,-0.002783656120300293,0.08322363346815109
1771073764220789500,5.79678955078125,0.017534255981445312,-0.0004392862319946289,0.015969417989253998
1771073764230729500,5.8067294921875,0.007519721984863281,-0.03139305114746094,-0.07687902450561523
1771073764240669200,5.816669189453125,-0.1318225860595703,-0.06879806518554688,-0.13000580668449402
1771073764250609200,5.826609130859375,-0.2406768798828125,-0.04387497901916504,-0.12669119238853455
1771073764260548900,5.836548828125,-0.2820405960083008,0.05030655860900879,-0.04555603116750717
1771073764270488800,5.84648876953125,-0.15587997436523438,0.12834596633911133,0.029947318136692047
1771073764280428500,5.856428466796875,0.029181480407714844,0.13341176509857178,0.07773582637310028
1771073764290368500,5.866368408203125,0.16399765014648438,0.07533693313598633,0.056392818689346313
1771073764300308200,5.87630810546875,0.3484678268432617,-0.008260369300842285,0.019448578357696533
1771073764310248200,5.886248291015625,0.4524087905883789,-0.0989307165145874,-0.05289477854967117
1771073764320188000,5.89618798828125,0.4325227737426758,-0.17126762866973877,-0.12268548458814621
1771073764330128000,5.9061279296875,0.4227333068847656,-0.16928505897521973,-0.1320328563451767
1771073764340067600,5.916067626953125,0.3545999526977539,-0.10128629207611084,-0.10994536429643631
1771073764350007600,5.926007568359375,0.20308685302734375,-0.052417755126953125,-0.05702313035726547
1771073764359947300,5.935947265625,0.08244132995605469,-0.021450161933898926,-0.04296894371509552
1771073764369887200,5.94588720703125,0.0014905929565429688,0.008895039558410645,-0.06238847225904465
1771073764379827200,5.9558271484375,-0.122833251953125,0.005665421485900879,-0.05867075175046921
1771073764389767000,5.965766845703125,-0.212249755859375,0.024378657341003418,-0.031008735299110413
1771073764399707000,5.975706787109375,-0.17321300506591797,0.06262052059173584,-0.00043895840644836426
1771073764409646800,5.985646728515625,-0.13728809356689453,0.08209621906280518,0.032176773995161057
1771073764419586800,5.9955869140625,-0.11388301849365234,0.08813214302062988,0.076686330139637
1771073764429526500,6.005526611328125,-0.11688041687011719,0.09016776084899902,0.07453683018684387
1771073764439466500,6.015466552734375,-0.15291976928710938,0.09307897090911865,0.06644397974014282
1771073764449406500,6.025406494140625,-0.19794940948486328,0.08292555809020996,0.008923053741455078
1771073764459346200,6.03534619140625,-0.14820384979248047,0.038532137870788574,-0.06499205529689789
1771073764469286100,6.0452861328125,-0.06636524200439453,-0.01669633388519287,-0.10332652181386948
1771073764479226000,6.05522607421875,0.023584365844726562,-0.04080629348754883,-0.0854303166270256
1771073764489166000,6.065166015625,0.12160396575927734,-0.032561421394348145,-0.02611882984638214
1771073764499105800,6.075105712890625,0.1757974624633789,-0.011532306671142578,0.022485658526420593
1771073764509045800,6.085045654296875,0.20097923278808594,-0.020005106925964355,0.021202590316534042
1771073764518985700,6.09498583984375,0.21406936645507812,-0.04306530952453613,-0.016839034855365753
1771073764528925400,6.104925537109375,0.18463802337646484,-0.06850111484527588,-0.054968394339084625
1771073764538865400,6.114865478515625,0.15343093872070312,-0.06812512874603271,-0.04869864135980606
1771073764548805400,6.124805419921875,0.09694385528564453,-0.01892375946044922,-0.018463194370269775
1771073764558745300,6.134745361328125,-0.0009441375732421875,0.05750691890716553,0.011469371616840363
1771073764568685000,6.14468505859375,-0.04776287078857422,0.09029042720794678,0.03598392754793167
1771073764578625000,6.154625,-0.10797691345214844,0.09929203987121582,0.017517562955617905
1771073764588565000,6.16456494140625,-0.15317249298095703,0.08060050010681152,-0.0009672045707702637
1771073764598504700,6.174504638671875,-0.10357093811035156,0.060674190521240234,-0.029002733528614044
1771073764608444700,6.184444580078125,-0.026558876037597656,0.0388261079788208,-0.03753570467233658
1771073764618384600,6.194384521484375,-0.016672134399414062,0.026257038116455078,-0.01049601286649704
1771073764628324600,6.20432470703125,-0.06810665130615234,0.027625441551208496,-0.0035535022616386414
1771073764638264300,6.214264404296875,-0.06457328796386719,0.012695670127868652,-0.025821343064308167
1771073764648204300,6.224204345703125,-0.023474693298339844,-0.006392002105712891,-0.026328198611736298
1771073764658144300,6.234144287109375,-0.013757705688476562,-0.024559855461120605,-0.01949310302734375
1771073764668084000,6.244083984375,0.08044719696044922,-0.04172337055206299,-0.04517520219087601
1771073764678024000,6.25402392578125,0.16607379913330078,-0.07067716121673584,-0.05535949766635895
1771073764687964000,6.2639638671875,0.16563987731933594,-0.07866835594177246,-0.021665021777153015
1771073764697903900,6.27390380859375,0.10885810852050781,-0.06860113143920898,-0.025340668857097626
1771073764707843600,6.283843505859375,-0.008001327514648438,-0.06226778030395508,-0.02429243177175522
1771073764717783600,6.293783447265625,-0.13225173950195312,-0.030747413635253906,-0.010746754705905914
1771073764727723500,6.3037236328125,-0.17203426361083984,0.00014841556549072266,0.007436789572238922
1771073764737663500,6.31366357421875,-0.18301010131835938,0.012300848960876465,0.02597656100988388
1771073764747603200,6.323603271484375,-0.14455509185791016,0.008980751037597656,0.06226864829659462
1771073764757543200,6.333543212890625,-0.04580497741699219,-0.004241943359375,0.08212635666131973
1771073764767483100,6.343483154296875,0.06288528442382812,-0.020645499229431152,0.06824908405542374
1771073764777422800,6.3534228515625,0.10849189758300781,-0.038629770278930664,0.044881485402584076
1771073764787362800,6.36336279296875,0.08986282348632812,-0.04740118980407715,0.04917890578508377
1771073764797302800,6.373302734375,0.055233001708984375,-0.02652883529663086,0.05081980675458908
1771073764807242800,6.38324267578125,0.037883758544921875,0.006612420082092285,0.05378246679902077
1771073764817182500,6.393182373046875,-0.054291725158691406,0.040047645568847656,0.08119992166757584
1771073764827122400,6.403122314453125,-0.11423206329345703,0.07458186149597168,0.09221559017896652
1771073764837062400,6.4130625,-0.07431602478027344,0.0945206880569458,0.09485504776239395
1771073764847002000,6.423002197265625,-0.06337356567382812,0.09569931030273438,0.10036934912204742
1771073764856942000,6.432942138671875,-0.0715799331665039,0.08128511905670166,0.11399127542972565
1771073764866882000,6.442882080078125,-0.07979869842529297,0.08695328235626221,0.14020945131778717
1771073764876822000,6.452822021484375,-0.0762643814086914,0.09589099884033203,0.1452128142118454
1771073764886761700,6.46276171875,-0.049323081970214844,0.09812355041503906,0.11482729017734528
1771073764896701700,6.47270166015625,-0.03460979461669922,0.08384227752685547,0.10758024454116821
1771073764906641700,6.4826416015625,-0.006053924560546875,0.05823171138763428,0.09678691625595093
1771073764916581400,6.492581298828125,0.1326465606689453,0.03560495376586914,0.08613540232181549
1771073764926521300,6.502521240234375,0.2032337188720703,0.005589127540588379,0.0561961755156517
1771073764936461300,6.51246142578125,0.1385517120361328,-0.012756705284118652,0.019078830257058144
1771073764946401300,6.5224013671875,0.0420684814453125,-0.045426368713378906,-0.021571755409240723
1771073764956341000,6.532341064453125,-0.0386810302734375,-0.0445941686630249,-0.03103259578347206
1771073764966281000,6.542281005859375,-0.11347007751464844,-0.03140294551849365,0.008639641106128693
1771073764976220700,6.552220703125,-0.10007667541503906,-0.02203536033630371,0.04260891303420067
1771073764986160600,6.56216064453125,-0.039910316467285156,-0.005157947540283203,0.07641389220952988
1771073764996100400,6.572100341796875,-0.05381965637207031,0.007335066795349121,0.07736034691333771
1771073765006040300,6.582040283203125,-0.1219167709350586,0.0237884521484375,0.03939665108919144
1771073765015980000,6.59197998046875,-0.1044158935546875,-0.03100454807281494,-0.06653884053230286
1771073765025920000,6.601919921875,-0.1627969741821289,-0.08543872833251953,-0.14537200331687927
1771073765035859700,6.611859619140625,-0.2605438232421875,-0.009630799293518066,-0.10286000370979309
1771073765045799700,6.621799560546875,-0.20392608642578125,0.06692147254943848,-0.041145190596580505
1771073765055739400,6.631739501953125,-0.07780075073242188,0.09632289409637451,-0.001082777976989746
1771073765065679400,6.641679443359375,0.08861637115478516,0.07099533081054688,0.02251097559928894
1771073765075619000,6.651619140625,0.25483036041259766,-0.009554266929626465,-0.0010286346077919006
1771073765085559000,6.66155908203125,0.4280967712402344,-0.09627687931060791,-0.018910862505435944
1771073765095498800,6.671498779296875,0.5778665542602539,-0.1267176866531372,-0.03283996880054474
1771073765105438700,6.681438720703125,0.6175384521484375,-0.15206730365753174,-0.06316503137350082
1771073765115378400,6.69137841796875,0.6101541519165039,-0.19596660137176514,-0.10013724118471146
1771073765125318400,6.701318359375,0.4834918975830078,-0.2273164987564087,-0.13190296292304993
1771073765135258000,6.711258056640625,0.2723731994628906,-0.1441868543624878,-0.11882976442575455
1771073765145198000,6.721197998046875,0.010873794555664062,-0.0970301628112793,-0.11325862258672714
1771073765155137800,6.7311376953125,-0.22510719299316406,-0.08567488193511963,-0.0728902816772461
1771073765165077800,6.741077880859375,-0.37973499298095703,-0.051401734352111816,-0.04338410496711731
1771073765175017500,6.751017578125,-0.44507408142089844,0.03918027877807617,0.07184068858623505
1771073765184957400,6.76095751953125,-0.3803110122680664,0.13149333000183105,0.1755862534046173
1771073765194897200,6.770897216796875,-0.29347991943359375,0.1614391803741455,0.21465188264846802
1771073765204837000,6.780837158203125,-0.20362281799316406,0.12659037113189697,0.19986622035503387
1771073765214776800,6.79077685546875,-0.1271219253540039,0.06232917308807373,0.11285974085330963
1771073765224716800,6.800716796875,-0.08717823028564453,0.006004214286804199,0.02014680951833725
1771073765234656800,6.81065673828125,-0.08543109893798828,-0.017326951026916504,-0.05258822813630104
1771073765244596500,6.820596435546875,-0.1142425537109375,-0.03370952606201172,-0.0401906780898571
1771073765254536400,6.830536376953125,-0.11667823791503906,-0.014503717422485352,0.00316697359085083
1771073765264476200,6.84047607421875,-0.010894775390625,0.002833127975463867,0.009947344660758972
1771073765274416000,6.850416015625,0.12596893310546875,-0.005211949348449707,0.020005326718091965
1771073765284355800,6.86035595703125,0.19928455352783203,-0.050390005111694336,0.022217195481061935
1771073765294295800,6.8702958984375,0.2761211395263672,-0.09030818939208984,0.004795834422111511
1771073765304235500,6.880235595703125,0.26941585540771484,-0.10221564769744873,-0.041030578315258026
1771073765314175500,6.890175537109375,0.18294525146484375,-0.11267828941345215,-0.08204333484172821
1771073765324115200,6.900115234375,0.06980228424072266,-0.11916506290435791,-0.11928929388523102
1771073765334055200,6.91005517578125,-0.06485652923583984,-0.08878207206726074,-0.11616969853639603
1771073765343995000,6.919994873046875,-0.1383523941040039,-0.031055927276611328,-0.09089921414852142
1771073765353934800,6.929934814453125,-0.14941120147705078,0.01158440113067627,-0.0649268627166748
1771073765363874600,6.93987451171875,-0.16028308868408203,0.03232753276824951,-0.03550621494650841
1771073765373814500,6.949814453125,-0.17578887939453125,0.027534127235412598,-0.023935992270708084
1771073765383754500,6.95975439453125,-0.09706592559814453,-0.011185288429260254,-0.06682862341403961
1771073765393694500,6.969694580078125,-0.08579158782958984,-0.08552062511444092,-0.15970315039157867
1771073765403634200,6.97963427734375,-0.0890817642211914,-0.05577421188354492,-0.07816962897777557
1771073765413574100,6.98957421875,-0.08551979064941406,-0.07660925388336182,-0.03648601099848747
1771073765423514000,6.99951416015625,-0.01863574981689453,-0.10059952735900879,-0.09575013071298599
1771073765433453800,7.009453857421875,0.025885581970214844,-0.11437094211578369,-0.15127937495708466
1771073765443393800,7.019393798828125,0.07434272766113281,-0.0735635757446289,-0.11277084797620773
1771073765453333800,7.029333740234375,0.14327526092529297,-0.05758237838745117,-0.08241527527570724
1771073765463273700,7.039273681640625,0.14761924743652344,-0.061506032943725586,-0.10360181331634521
1771073765473213400,7.04921337890625,0.06969070434570312,-0.08550643920898438,-0.11220651865005493
1771073765483153400,7.0591533203125,-0.025666236877441406,-0.0839148759841919,-0.10935965925455093
1771073765493093400,7.06909326171875,-0.08887577056884766,-0.05144381523132324,-0.07939094305038452
1771073765503033000,7.079033203125,-0.056954383850097656,-0.004786372184753418,-0.06502887606620789
1771073765512973000,7.08897314453125,0.03087329864501953,0.006179451942443848,-0.05180203169584274
1771073765522913000,7.0989130859375,0.09369659423828125,-0.011289715766906738,-0.01326088234782219
1771073765532853000,7.10885302734375,0.18144607543945312,-0.026615500450134277,0.01325366459786892
1771073765542792700,7.118792724609375,0.2231740951538086,-0.035729408264160156,0.009997798129916191
1771073765552732700,7.128732666015625,0.14673614501953125,-0.03688490390777588,0.002877410501241684
1771073765562672600,7.138672607421875,0.08828258514404297,-0.025406360626220703,-0.04212627559900284
1771073765572612400,7.1486123046875,0.02161407470703125,-0.015630125999450684,-0.049951471388339996
1771073765582552300,7.15855224609375,-0.10266304016113281,-0.002214193344116211,-0.028513574972748756
1771073765592492300,7.1684921875,-0.1448822021484375,0.01609194278717041,0.0029970817267894745
1771073765602432300,7.178432373046875,-0.13943195343017578,0.03254687786102295,0.007805170025676489
1771073765612372000,7.1883720703125,-0.1224374771118164,0.07317984104156494,0.0642797201871872
1771073765622312000,7.19831201171875,-0.0846567153930664,0.1021726131439209,0.09413090348243713
1771073765632252000,7.208251953125,-0.06406116485595703,0.10529124736785889,0.11484760046005249
1771073765642192000,7.21819189453125,-0.08152294158935547,0.09689044952392578,0.10739278048276901
1771073765652131600,7.228131591796875,-0.08464336395263672,0.08677971363067627,0.12318010628223419
1771073765662071600,7.238071533203125,-0.021883010864257812,0.10569345951080322,0.10562129318714142
1771073765672011500,7.248011474609375,0.009161949157714844,0.11056971549987793,0.09623708575963974
1771073765681951200,7.257951171875,0.0019578933715820312,0.08751583099365234,0.10863079130649567
1771073765691891200,7.26789111328125,0.03962230682373047,0.06945490837097168,0.06414492428302765
1771073765701831200,7.2778310546875,0.07909297943115234,0.04883885383605957,0.04395872354507446
1771073765711771100,7.287771240234375,0.04976081848144531,0.04895186424255371,0.045095864683389664
1771073765721710800,7.2977109375,0.025661468505859375,0.06298720836639404,0.06694692373275757
1771073765731650800,7.30765087890625,0.07967281341552734,0.07904183864593506,0.09339039027690887
1771073765741590800,7.3175908203125,0.07390308380126953,0.08315563201904297,0.08791898190975189
1771073765751530500,7.327530517578125,0.02113819122314453,0.04717516899108887,0.07185181975364685
1771073765761470500,7.337470458984375,-0.042565345764160156,0.01915717124938965,0.025494243949651718
1771073765771410400,7.347410400390625,-0.025155067443847656,-0.008394956588745117,0.00012456253170967102
1771073765781350400,7.357350341796875,0.08386611938476562,-0.005383014678955078,-0.04879935085773468
1771073765791290000,7.3672900390625,0.10182380676269531,0.012653827667236328,-0.0675143301486969
1771073765801230000,7.37722998046875,-0.09457015991210938,0.0527271032333374,-0.012162424623966217
1771073765811170000,7.387170166015625,-0.2736349105834961,0.11381924152374268,0.02247125282883644
1771073765821109800,7.39710986328125,-0.3699960708618164,0.13597428798675537,0.026762545108795166
1771073765831049700,7.4070498046875,-0.22743701934814453,0.1160351037979126,0.017149709165096283
1771073765840989700,7.41698974609375,0.07956790924072266,0.05144774913787842,-0.011621244251728058
1771073765850929700,7.4269296875,0.3319540023803711,-0.032944440841674805,-0.00282181054353714
1771073765860869400,7.436869384765625,0.46028709411621094,-0.08447206020355225,0.008592583239078522
1771073765870809300,7.446809326171875,0.4126415252685547,-0.12117242813110352,-0.04063347354531288
1771073765880749300,7.456749267578125,0.21076393127441406,-0.13132095336914062,-0.12709669768810272
1771073765890689000,7.46668896484375,-0.02280426025390625,-0.11229825019836426,-0.2052157074213028
1771073765900629000,7.47662890625,-0.20997238159179688,-0.06839203834533691,-0.19919924437999725
1771073765910569000,7.48656884765625,-0.30455780029296875,-0.015692710876464844,-0.13935771584510803
1771073765920509000,7.496509033203125,-0.33176326751708984,0.048706889152526855,-0.07547871768474579
1771073765930448600,7.50644873046875,-0.3045015335083008,0.06585168838500977,-0.004672884941101074
1771073765940388600,7.516388671875,-0.2095775604248047,0.06487917900085449,0.041022997349500656
1771073765950328600,7.52632861328125,-0.1705322265625,0.06953096389770508,0.0746186152100563
1771073765960268300,7.536268310546875,-0.10173225402832031,0.054115891456604004,0.08043745905160904
1771073765970208300,7.546208251953125,-0.02248096466064453,0.004641294479370117,0.04775581508874893
1771073765980148000,7.55614794921875,-0.036510467529296875,-0.04791581630706787,-0.02749168500304222
1771073765990088000,7.566087890625,-0.055085182189941406,-0.0944821834564209,-0.10305129736661911
1771073766000027600,7.576027587890625,-0.0710611343383789,-0.09277880191802979,-0.1304287165403366
1771073766009967600,7.585967529296875,-0.060882568359375,-0.06274616718292236,-0.09464803338050842
1771073766019907300,7.5959072265625,-0.0013790130615234375,-0.019388914108276367,-0.018104631453752518
1771073766029847300,7.605847412109375,0.09258270263671875,0.008315324783325195,0.04004629701375961
1771073766039787000,7.615787109375,0.16162776947021484,0.02493441104888916,0.0669037252664566
1771073766049727000,7.62572705078125,0.14026451110839844,-0.00005435943603515625,0.04948139935731888
1771073766059666700,7.635666748046875,0.04402923583984375,-0.02062201499938965,0.011995922774076462
1771073766069606700,7.645606689453125,-0.07655048370361328,-0.028774023056030273,-0.017617441713809967
1771073766079546400,7.65554638671875,-0.13410282135009766,-0.019103169441223145,-0.030221963301301003
1771073766089486300,7.665486328125,-0.12732315063476562,-0.0013234615325927734,-0.02182624861598015
1771073766099426000,7.675426025390625,-0.050202369689941406,0.02903735637664795,0.02351585403084755
1771073766109366000,7.685365966796875,0.08683204650878906,0.054283976554870605,0.07691804319620132
1771073766119305700,7.6953056640625,0.2029094696044922,0.07574999332427979,0.10852320492267609
1771073766129245700,7.70524560546875,0.2043018341064453,0.07170534133911133,0.12129804491996765
1771073766139185400,7.715185302734375,0.16356945037841797,0.056599974632263184,0.07992500066757202
1771073766149125400,7.72512548828125,0.10018348693847656,0.04043936729431152,0.027703486382961273
1771073766159065000,7.735065185546875,-0.05623340606689453,0.04288053512573242,0.030183807015419006
1771073766169005000,7.745005126953125,-0.1253948211669922,0.06011092662811279,0.04592899978160858
1771073766178944800,7.75494482421875,-0.1300821304321289,0.09975004196166992,0.06600367277860641
1771073766188884700,7.764884765625,-0.09731864929199219,0.13817942142486572,0.10491204261779785
1771073766198824400,7.774824462890625,0.0005359649658203125,0.14941954612731934,0.12234996259212494
1771073766208764400,7.784764404296875,0.13668251037597656,0.1375269889831543,0.13528859615325928
1771073766218704100,7.7947041015625,0.25185108184814453,0.11325442790985107,0.1394961178302765
1771073766228644000,7.80464404296875,0.26181888580322266,0.09924578666687012,0.1396433711051941
1771073766238584000,7.814583984375,0.2296428680419922,0.06892728805541992,0.1276644468307495
1771073766248523800,7.824523681640625,0.1559467315673828,0.06780469417572021,0.08684717863798141
1771073766258463700,7.834463623046875,0.09545707702636719,0.07019853591918945,0.055710725486278534
1771073766268403500,7.844403564453125,0.03362560272216797,0.05371558666229248,0.027400411665439606
1771073766278343400,7.854343505859375,0.02921295166015625,0.01937544345855713,0.006963104009628296
1771073766288283100,7.864283203125,0.02004528045654297,-0.03252220153808594,-0.047641340643167496
1771073766298223000,7.87422314453125,0.01563549041748047,-0.10884678363800049,-0.07720469683408737
1771073766308162800,7.884162841796875,0.030117034912109375,-0.17437493801116943,-0.15092308819293976
1771073766318102800,7.894102783203125,0.049098968505859375,-0.20839667320251465,-0.17622743546962738
1771073766328042500,7.90404248046875,0.03729248046875,-0.19791507720947266,-0.1678665280342102
1771073766337982500,7.913982421875,-0.0943002700805664,-0.14337420463562012,-0.13348060846328735
1771073766347922200,7.923922119140625,-0.2309112548828125,-0.09354352951049805,-0.1325788050889969
1771073766357862100,7.933862060546875,-0.31846141815185547,-0.07569217681884766,-0.16737695038318634
1771073766367802000,7.943802001953125,-0.31308650970458984,-0.07721567153930664,-0.15585081279277802
1771073766377741800,7.953741943359375,-0.2114887237548828,-0.07034456729888916,-0.12754085659980774
1771073766387681800,7.963681884765625,-0.05985450744628906,-0.06083214282989502,-0.04497147351503372
1771073766397621800,7.973621826171875,0.13409042358398438,-0.0638512372970581,0.02805650793015957
1771073766407561500,7.9835615234375,0.2049703598022461,-0.06586933135986328,0.02711801417171955
1771073766417501400,7.99350146484375,0.2018880844116211,-0.08082866668701172,0.02394028753042221
1771073766427441400,8.00344140625,0.2460784912109375,-0.09163236618041992,0.0024481751024723053
1771073766437381400,8.01338134765625,0.21198654174804688,-0.09844779968261719,0.01581096649169922
1771073766447321000,8.023321044921875,0.1008310317993164,-0.05140054225921631,0.0706455186009407
1771073766457261000,8.033260986328125,-0.04612541198730469,0.018305182456970215,0.10690192878246307
1771073766467201000,8.043200927734375,-0.1765766143798828,0.08018743991851807,0.13153433799743652
1771073766477141000,8.05314111328125,-0.29084205627441406,0.12761342525482178,0.1270357072353363
1771073766487080700,8.063080810546875,-0.2714576721191406,0.1630793809890747,0.10470955073833466
1771073766497020700,8.073020751953125,-0.311248779296875,0.18382763862609863,0.10304247587919235
1771073766506960600,8.082960693359375,-0.36925220489501953,0.21865534782409668,0.13484998047351837
1771073766516900400,8.092900390625,-0.30634307861328125,0.25840866565704346,0.19834497570991516
1771073766526840300,8.10284033203125,-0.09396076202392578,0.2820110321044922,0.2446514368057251
1771073766536780300,8.1127802734375,0.1619415283203125,0.24890387058258057,0.25740623474121094
1771073766546720300,8.12272021484375,0.3194923400878906,0.1475600004196167,0.2715587019920349
1771073766556660000,8.132659912109375,0.32615089416503906,0.047492146492004395,0.21495112776756287
1771073766566600000,8.142599853515625,0.29032039642333984,-0.025118231773376465,0.12860050797462463
1771073766576540000,8.152539794921875,0.2291727066040039,-0.06120264530181885,0.050149574875831604
1771073766586479600,8.162479736328125,0.1972827911376953,-0.08726060390472412,-0.018666543066501617
1771073766596419600,8.172419677734375,0.14955711364746094,-0.09709429740905762,-0.047772739082574844
1771073766606359600,8.182359619140625,0.0273895263671875,-0.06733584403991699,-0.021664146333932877
1771073766616299500,8.192299560546875,-0.1091156005859375,-0.0269014835357666,0.004193030297756195
1771073766626239200,8.2022392578125,-0.28810691833496094,0.015412211418151855,0.00811690092086792
1771073766636179200,8.21217919921875,-0.3913116455078125,0.05341339111328125,0.001058422029018402
1771073766646119200,8.222119140625,-0.4365425109863281,0.05461382865905762,-0.03605043888092041
1771073766656059000,8.232058837890625,-0.37304019927978516,0.050631165504455566,-0.03690395504236221
1771073766665998800,8.241998779296875,-0.24257850646972656,0.012898802757263184,-0.06462296098470688
1771073766675938800,8.251938720703125,-0.09793281555175781,-0.05175662040710449,-0.10358710587024689
1771073766685878800,8.261878662109375,0.0042743682861328125,-0.09414255619049072,-0.14815419912338257
1771073766695818500,8.271818603515625,0.015415191650390625,-0.09874749183654785,-0.19130295515060425
1771073766705758500,8.281758544921875,-0.06307601928710938,-0.07511734962463379,-0.21699345111846924
1771073766715698400,8.291698486328125,-0.08384323120117188,-0.05608201026916504,-0.25645628571510315
1771073766725638100,8.30163818359375,-0.09026908874511719,-0.03891026973724365,-0.2563468813896179
1771073766735578000,8.311578125,0.016359329223632812,-0.014555692672729492,-0.22956040501594543
1771073766745518000,8.32151806640625,0.1307201385498047,-0.0028725862503051758,-0.19896665215492249
1771073766755458000,8.3314580078125,0.19626426696777344,0.0005549192428588867,-0.1339033544063568
1771073766765397800,8.341397705078125,0.27037620544433594,0.0048787593841552734,-0.11512348800897598
1771073766775337700,8.351337646484374,0.3482532501220703,-0.011405587196350098,-0.15529873967170715
1771073766785277700,8.361277587890624,0.3074350357055664,-0.0622786283493042,-0.1679932177066803
1771073766795217400,8.371217529296874,0.19214725494384766,-0.07573437690734863,-0.15202832221984863
1771073766805157400,8.381157470703124,0.1494274139404297,-0.049039483070373535,-0.12005369365215302
1771073766815097300,8.391097412109374,0.13092517852783203,-0.003750324249267578,-0.1116572767496109
1771073766825037300,8.401037353515624,0.11736869812011719,0.02706015110015869,-0.07456579804420471
1771073766834977000,8.41097705078125,0.1109762191772461,0.02745187282562256,-0.04687444865703583
1771073766844917000,8.4209169921875,0.12581825256347656,0.006949424743652344,-0.027858424931764603
1771073766854857000,8.43085693359375,0.07446861267089844,0.00572359561920166,-0.001010015606880188
1771073766864797000,8.440796875,0.035744667053222656,0.009225010871887207,0.018562979996204376
1771073766874736600,8.450736572265624,0.00003719329833984375,0.005501747131347656,0.03552410751581192
1771073766884676600,8.460676513671874,-0.009157180786132812,0.006445884704589844,0.07315874099731445
1771073766894616600,8.470616455078124,0.014826774597167969,0.0069686174392700195,0.09419086575508118
1771073766904556300,8.480556396484374,-0.04866600036621094,0.009632468223571777,0.08740971982479095
1771073766914496300,8.490496337890624,-0.13942527770996094,0.012649178504943848,0.07889227569103241
1771073766924436200,8.500436279296874,-0.1699533462524414,-0.011835813522338867,0.05195169895887375
1771073766934376200,8.510376220703124,-0.18598365783691406,-0.013921380043029785,0.05351027101278305
1771073766944316000,8.52031591796875,-0.16656780242919922,0.015436649322509766,0.08738324046134949
1771073766954256000,8.530255859375,-0.07462882995605469,0.035687923431396484,0.10631664097309113
1771073766964195600,8.540195556640626,-0.033720970153808594,0.032357096672058105,0.08596568554639816
1771073766974135600,8.550135498046876,-0.08766841888427734,0.007891178131103516,0.05238114297389984
1771073766984075500,8.560075439453126,-0.1266040802001953,-0.020775556564331055,0.01640021800994873
1771073766994015200,8.57001513671875,-0.15079021453857422,-0.01815652847290039,-0.015427108854055405
1771073767003955200,8.579955078125,-0.08042430877685547,-0.008314013481140137,0.003046039491891861
1771073767013895000,8.58989501953125,0.04533576965332031,0.010483026504516602,0.06418849527835846
1771073767023835000,8.5998349609375,0.15261077880859375,0.01434028148651123,0.116547591984272
1771073767033774600,8.609774658203126,0.20174789428710938,0.003103494644165039,0.1685028374195099
1771073767043714600,8.619714599609376,0.2336864471435547,-0.010904431343078613,0.17552977800369263
1771073767053654300,8.629654296875,0.2675361633300781,-0.004091858863830566,0.14412084221839905
1771073767063594200,8.63959423828125,0.21619319915771484,-0.01938450336456299,0.11699435114860535
1771073767073534000,8.649533935546875,0.13995838165283203,-0.023554563522338867,0.08150546997785568
1771073767083474000,8.659473876953125,0.0651998519897461,-0.02650594711303711,0.03258301317691803
1771073767093413600,8.66941357421875,-0.10241127014160156,-0.013329148292541504,0.03830642253160477
1771073767103353600,8.679353515625,-0.2178821563720703,0.026128649711608887,0.049892738461494446
1771073767113293300,8.689293212890625,-0.2421855926513672,0.07094204425811768,0.05373845994472504
1771073767123233300,8.6992333984375,-0.26409244537353516,0.07944440841674805,0.06453469395637512
1771073767133173000,8.709173095703125,-0.19181060791015625,0.06861698627471924,0.09201852232217789
1771073767143113000,8.719113037109375,-0.12089824676513672,0.0635756254196167,0.10836140066385269
1771073767153052700,8.729052734375,-0.1124582290649414,0.033113837242126465,0.07880371809005737
1771073767162992600,8.73899267578125,-0.13714313507080078,0.010316133499145508,-0.010534502565860748
1771073767172932400,8.748932373046875,-0.1754283905029297,0.006130576133728027,-0.09208938479423523
1771073767182872300,8.758872314453125,-0.1799783706665039,0.02485787868499756,-0.12722070515155792
1771073767192812000,8.76881201171875,-0.14200115203857422,0.04297184944152832,-0.07283584773540497
1771073767202752000,8.778751953125,0.022542953491210938,0.0439988374710083,-0.023927997797727585
1771073767212691700,8.788691650390625,0.2056560516357422,0.013695120811462402,-0.020347263664007187
1771073767222631700,8.798631591796875,0.2869443893432617,-0.06624984741210938,-0.04339168593287468
1771073767232571400,8.8085712890625,0.310516357421875,-0.15753328800201416,-0.11158841848373413
1771073767242511400,8.818511474609375,0.3244180679321289,-0.20345711708068848,-0.17005428671836853
1771073767252451000,8.828451171875,0.24405574798583984,-0.21654558181762695,-0.1787109375
1771073767262391000,8.83839111328125,0.08743858337402344,-0.17350542545318604,-0.14426489174365997
1771073767272330800,8.848330810546875,0.008807182312011719,-0.11489784717559814,-0.10386792570352554
1771073767282270700,8.858270751953125,-0.05436420440673828,-0.06442844867706299,-0.08363214880228043
1771073767292210400,8.86821044921875,-0.1447458267211914,-0.061786532402038574,-0.050577208399772644
1771073767302150400,8.878150390625,-0.1536693572998047,-0.06094241142272949,-0.06148553639650345
1771073767312090000,8.888090087890625,-0.1154623031616211,-0.07834267616271973,-0.06059233099222183
1771073767322030000,8.898030029296875,-0.15096473693847656,-0.07611370086669922,-0.042434774339199066
1771073767331970000,8.907969970703125,-0.20488452911376953,-0.05172932147979736,0.00637517124414444
1771073767341909800,8.91790966796875,-0.19217300415039062,-0.017233729362487793,0.05657672882080078
1771073767351849700,8.927849609375,-0.1233224868774414,0.0011065006256103516,0.056252118200063705
1771073767361789400,8.93778955078125,-0.09583091735839844,-0.048030734062194824,-0.026218557730317116
1771073767371729400,8.9477294921875,-0.0805959701538086,-0.013743281364440918,-0.04994659870862961
1771073767381669400,8.95766943359375,-0.025732040405273438,0.016060590744018555,0.10883958637714386
1771073767391609000,8.967609130859374,-0.014171600341796875,-0.04399979114532471,0.01507662981748581
1771073767401549000,8.977549072265624,0.07016181945800781,-0.0229111909866333,-0.018016651272773743
1771073767411489000,8.987489013671874,0.09421062469482422,-0.03738367557525635,-0.03301181644201279
1771073767421428700,8.9974287109375,0.08969306945800781,-0.014441370964050293,0.025358770042657852
1771073767431368700,9.00736865234375,0.10889625549316406,0.026352882385253906,0.0897035077214241
1771073767441308700,9.01730859375,0.06912422180175781,0.05584514141082764,0.11552578210830688
1771073767451248600,9.02724853515625,-0.0004367828369140625,0.07687580585479736,0.13814730942249298
1771073767461188400,9.037188232421874,-0.03581047058105469,0.059480905532836914,0.09190131723880768
1771073767471128300,9.04712841796875,-0.08945751190185547,0.05669891834259033,0.04347126558423042
1771073767481068300,9.057068359375,-0.1165628433227539,0.07900607585906982,0.05420556291937828
1771073767491008000,9.067008056640624,-0.023471832275390625,0.055757999420166016,-0.00965835154056549
1771073767500948000,9.076947998046874,0.01369476318359375,0.0035958290100097656,-0.05187113210558891
1771073767510888000,9.086887939453124,0.04309558868408203,-0.05190134048461914,-0.07636663317680359
1771073767520828000,9.096827880859376,0.07444953918457031,-0.05517590045928955,-0.09819981455802917
1771073767530767600,9.106767578125,0.08424758911132812,-0.0475238561630249,-0.08746020495891571
1771073767540707600,9.11670751953125,0.12467765808105469,-0.02226579189300537,-0.06873488426208496
1771073767550647600,9.1266474609375,0.20237255096435547,0.01038503646850586,-0.02103583887219429
1771073767560587300,9.136587158203126,0.23195266723632812,0.01969730854034424,0.00412687286734581
1771073767570527200,9.14652734375,0.1858816146850586,-0.009920716285705566,0.0033891089260578156
1771073767580467200,9.15646728515625,0.12883663177490234,-0.04160165786743164,-0.048077572137117386
1771073767590407200,9.1664072265625,0.07970333099365234,-0.06744229793548584,-0.11197450757026672
1771073767600347000,9.176346923828126,0.02417469024658203,-0.07781898975372314,-0.12474427372217178
1771073767610286800,9.186286865234376,0.02826690673828125,-0.06347286701202393,-0.07869239151477814
1771073767620226800,9.196226806640626,0.0887289047241211,-0.02777397632598877,-0.03587708622217178
1771073767630166500,9.20616650390625,0.15299129486083984,-0.00033593177795410156,0.008278222754597664
1771073767640106500,9.2161064453125,0.20936870574951172,-0.0031147003173828125,0.027316436171531677
1771073767650046500,9.22604638671875,0.22277545928955078,-0.03150177001953125,0.00841790996491909
1771073767659986400,9.235986328125,0.1350851058959961,-0.04279446601867676,0.0038429126143455505
1771073767669926100,9.245926025390625,0.03498363494873047,-0.029510855674743652,0.005601933225989342
1771073767679866000,9.2558662109375,0.00023937225341796875,0.02287125587463379,0.008947974070906639
1771073767689806000,9.26580615234375,-0.08097362518310547,0.05770063400268555,0.0544973760843277
1771073767699745800,9.275745849609375,-0.11384105682373047,0.07607376575469971,0.1109241470694542
1771073767709685800,9.285685791015625,-0.1132965087890625,0.08297240734100342,0.11268049478530884
1771073767719625700,9.295625732421875,-0.1411600112915039,0.07653343677520752,0.09347155690193176
1771073767729565700,9.305565673828125,-0.1310749053955078,0.04540896415710449,0.03496342524886131
1771073767739505400,9.31550537109375,-0.13074493408203125,0.004037022590637207,-0.028946030884981155
1771073767749445400,9.3254453125,-0.13765430450439453,-0.01444995403289795,-0.004984082654118538
1771073767759385300,9.33538525390625,-0.08579349517822266,0.015662550926208496,0.027560263872146606
1771073767769325300,9.3453251953125,-0.011495590209960938,0.03961491584777832,0.03693937882781029
1771073767779265000,9.35526513671875,0.030798912048339844,0.019339323043823242,0.008045453578233719
1771073767789205000,9.365205078125,0.0017213821411132812,-0.023939847946166992,-0.002816963940858841
1771073767799145000,9.37514501953125,-0.02209186553955078,-0.03864741325378418,-0.011344647966325283
1771073767809084700,9.385084716796875,-0.03598499298095703,-0.03016841411590576,-0.05157428979873657
1771073767819024600,9.395024658203125,0.016411781311035156,-0.022631168365478516,-0.09947006404399872
1771073767828964600,9.404964599609375,0.03280830383300781,0.02605581283569336,-0.019789107143878937
1771073767838904600,9.414904541015625,-0.04266357421875,0.09852242469787598,0.11057743430137634
1771073767848844300,9.42484423828125,-0.1851329803466797,0.12259161472320557,0.1374414563179016
1771073767858784300,9.4347841796875,-0.2642183303833008,0.1286252737045288,0.12263819575309753
1771073767868724200,9.44472412109375,-0.1658191680908203,0.11106431484222412,0.05053073912858963
1771073767878664000,9.454663818359375,0.0012617111206054688,0.03438758850097656,-0.0014568865299224854
1771073767888604000,9.46460400390625,0.11594486236572266,-0.014111161231994629,0.02095421403646469
1771073767898543900,9.4745439453125,0.1957559585571289,-0.05238354206085205,0.013386797159910202
1771073767908483800,9.48448388671875,0.2272329330444336,-0.08816325664520264,0.007230784744024277
1771073767918423600,9.494423583984375,0.2748842239379883,-0.15760815143585205,-0.044672876596450806
1771073767928363500,9.504363525390625,0.14777565002441406,-0.14970505237579346,-0.09026847034692764
1771073767938303500,9.514303466796875,0.029952049255371094,-0.12840759754180908,-0.11947859823703766
1771073767948243200,9.5242431640625,-0.02935028076171875,-0.08657550811767578,-0.12594911456108093
1771073767958183200,9.53418310546875,-0.050029754638671875,-0.07348954677581787,-0.09512966126203537
1771073767968123100,9.544123046875,-0.0656900405883789,-0.053357481956481934,-0.024316072463989258
1771073767978063000,9.55406298828125,-0.13762664794921875,-0.007463335990905762,0.02483152598142624
1771073767988002800,9.5640029296875,-0.1895618438720703,0.042574286460876465,0.05175395682454109
1771073767997942800,9.57394287109375,-0.21712207794189453,0.07549738883972168,0.07962906360626221
1771073768007882500,9.583882568359375,-0.19957256317138672,0.0777660608291626,0.0865677148103714
1771073768017822500,9.593822509765625,-0.11649513244628906,0.07117986679077148,0.05740908533334732
1771073768027762200,9.60376220703125,-0.056090354919433594,0.039406776428222656,0.03387996554374695
1771073768037702100,9.6137021484375,-0.04858970642089844,0.0017015933990478516,0.004599062725901604
1771073768047641900,9.623641845703125,-0.02007579803466797,-0.011531591415405273,-0.02810073271393776
1771073768057581800,9.633581787109375,0.04092216491699219,-0.019835352897644043,-0.05250796675682068
1771073768067521500,9.643521484375,0.042148590087890625,-0.02389240264892578,-0.06244959309697151
1771073768077461500,9.65346142578125,0.07174015045166016,-0.002785921096801758,-0.03570981323719025
1771073768087401200,9.663401123046874,0.14345169067382812,0.0401078462600708,0.02008694037795067
1771073768097341200,9.673341064453124,0.15774822235107422,0.05939221382141113,0.06276370584964752
1771073768107281000,9.683281005859374,0.12963199615478516,0.05125081539154053,0.041563913226127625
1771073768117220900,9.693220947265624,0.08797454833984375,0.007226228713989258,-0.016666516661643982
1771073768127160600,9.70316064453125,0.03285503387451172,0.004158973693847656,-0.036173414438962936
1771073768137100500,9.7131005859375,0.03969573974609375,0.01156461238861084,-0.03598518669605255
1771073768147040300,9.723040283203124,0.05092811584472656,0.041240572929382324,-0.0252285897731781
1771073768156980200,9.732980224609374,0.059447288513183594,0.03611147403717041,-0.03465200960636139
1771073768166920000,9.742919921875,0.044198036193847656,0.022153019905090332,-0.04800759628415108
1771073768176860000,9.75285986328125,0.015027999877929688,-0.014814138412475586,-0.05649864673614502
1771073768186799600,9.762799560546876,0.07585811614990234,-0.018505454063415527,-0.0911640152335167
1771073768196739600,9.772739501953126,0.12166690826416016,-0.006356954574584961,-0.10201013088226318
1771073768206679300,9.78267919921875,0.15280532836914062,-0.007487654685974121,-0.06856288760900497
1771073768216619300,9.792619384765626,0.1672496795654297,-0.026888012886047363,-0.05736367031931877
1771073768226559000,9.80255908203125,0.11586952209472656,-0.05032968521118164,-0.06076102331280708
1771073768236499000,9.8124990234375,-0.038071632385253906,-0.06967747211456299,-0.07627467811107635
1771073768246438700,9.822438720703126,-0.12357425689697266,-0.07192015647888184,-0.10669369250535965
1771073768256378600,9.832378662109376,-0.07599639892578125,-0.05653882026672363,-0.10929302871227264
1771073768266318600,9.842318603515626,0.005969047546386719,-0.050026893615722656,-0.04335964843630791
1771073768276258300,9.85225830078125,0.011164665222167969,-0.04086732864379883,0.024781959131360054
1771073768286198300,9.8621982421875,-0.023850440979003906,-0.03361189365386963,0.05048275366425514
1771073768296138000,9.872137939453125,-0.049002647399902344,-0.03979969024658203,0.02040766552090645
1771073768306078000,9.882077880859375,-0.10911750793457031,-0.03841972351074219,-0.025178782641887665
1771073768316017700,9.892017578125,-0.16362476348876953,-0.02704334259033203,-0.024009404703974724
1771073768325957600,9.90195751953125,-0.11138248443603516,-0.010545969009399414,0.004336865618824959
1771073768335897300,9.9118974609375,-0.07657814025878906,-0.0055931806564331055,0.03915613517165184
1771073768345837300,9.92183740234375,-0.04707908630371094,0.00173187255859375,0.06222553551197052
1771073768355777000,9.931777099609375,-0.06984901428222656,0.013543367385864258,0.0662277340888977
1771073768365717000,9.941717041015625,-0.07333755493164062,0.024757027626037598,0.0508958101272583
1771073768375656700,9.95165673828125,-0.08379650115966797,0.021457672119140625,0.04223169386386871
1771073768385596700,9.9615966796875,-0.07527923583984375,0.03724825382232666,0.021456357091665268
1771073768395536600,9.97153662109375,-0.043396949768066406,0.04355931282043457,0.038727741688489914
1771073768405476400,9.981476318359375,-0.033267974853515625,0.05938303470611572,0.105352021753788
1771073768415416300,9.991416259765625,-0.016295433044433594,0.08466064929962158,0.13862735033035278
1771073768425356300,10.001356201171875,-0.042037010192871094,0.07921087741851807,0.11777199804782867
1771073768435296000,10.0112958984375,-0.008542060852050781,0.06708872318267822,0.05225205421447754
1771073768445236000,10.021236083984375,0.04089164733886719,0.04094254970550537,-0.007467266172170639
1771073768455176000,10.031176025390625,0.06604290008544922,0.019440531730651855,-0.018824735656380653
1771073768465116000,10.041115966796875,0.060324668884277344,0.03741812705993652,-0.008655287325382233
1771073768475055600,10.0510556640625,0.00304412841796875,0.07783675193786621,0.011380717158317566
1771073768484995600,10.06099560546875,-0.14743614196777344,0.12454402446746826,0.024324001744389534
1771073768494935600,10.070935546875,-0.20135498046875,0.1664654016494751,0.01942407339811325
1771073768504875500,10.08087548828125,-0.1769237518310547,0.15964996814727783,0.03862105682492256
1771073768514815200,10.090815185546875,-0.04716205596923828,0.1235421895980835,0.04209229350090027
1771073768524755200,10.100755126953125,0.13437938690185547,0.06569254398345947,0.042954809963703156
1771073768534695200,10.110695068359375,0.3505287170410156,-0.009827733039855957,0.007752472534775734
1771073768544635000,10.120634765625,0.4502372741699219,-0.09215152263641357,-0.0545332208275795
1771073768554574800,10.130574951171875,0.37676143646240234,-0.14920854568481445,-0.09445880353450775
1771073768564514800,10.140514892578125,0.23422622680664062,-0.18613088130950928,-0.16120299696922302
1771073768574454800,10.150454833984375,0.07320785522460938,-0.18196725845336914,-0.21572181582450867
1771073768584394500,10.16039453125,-0.08491802215576172,-0.12963831424713135,-0.17749302089214325
1771073768594334500,10.17033447265625,-0.1744537353515625,-0.05248451232910156,-0.10762045532464981
1771073768604274400,10.1802744140625,-0.15674209594726562,0.003300905227661133,-0.05908643454313278
1771073768614214100,10.190214111328125,-0.11841297149658203,0.012677550315856934,-0.006050361320376396
1771073768624154000,10.200154052734375,-0.09039688110351562,-0.004848122596740723,0.0008217860013246536
1771073768634094000,10.210093994140625,-0.09371376037597656,-0.02763986587524414,0.011756587773561478
1771073768644034000,10.220033935546875,-0.09236907958984375,-0.030615806579589844,0.00479528121650219
1771073768653973800,10.229973876953125,-0.11929798126220703,-0.012354135513305664,-0.03257305920124054
1771073768663913700,10.239913818359375,-0.1433391571044922,-0.011378884315490723,-0.04913288354873657
1771073768673853700,10.249853759765625,-0.12685394287109375,-0.025147676467895508,-0.05565031245350838
1771073768683793400,10.25979345703125,-0.09636402130126953,-0.01604616641998291,-0.049972131848335266
1771073768693733400,10.2697333984375,-0.08045768737792969,-0.01210486888885498,-0.02233094722032547
1771073768703673300,10.27967333984375,-0.013124465942382812,-0.017044782638549805,-0.03038160130381584
1771073768713613300,10.28961328125,0.04360198974609375,-0.03327286243438721,-0.04140741005539894
1771073768723553000,10.299552978515624,-0.006646156311035156,-0.03224945068359375,0.003398615401238203
1771073768733493000,10.309492919921874,-0.06791496276855469,-0.00013625621795654297,0.05487003177404404
1771073768743433000,10.319432861328124,-0.05765342712402344,0.03920602798461914,0.09120965749025345
1771073768753372700,10.32937255859375,-0.024054527282714844,0.06632208824157715,0.09555736929178238
1771073768763312600,10.339312744140624,0.05378532409667969,0.029020071029663086,0.07761126011610031
1771073768773252600,10.349252685546874,0.1728801727294922,-0.011015653610229492,0.06358803063631058
1771073768783192600,10.359192626953124,0.2737874984741211,-0.026089191436767578,0.07058544456958771
1771073768793132300,10.36913232421875,0.3144845962524414,-0.01221001148223877,0.07581190019845963
1771073768803072300,10.379072265625,0.2582521438598633,0.011604070663452148,0.06605670601129532
1771073768813012200,10.38901220703125,0.09950733184814453,0.013028621673583984,0.07157450914382935
1771073768822952000,10.398951904296876,-0.047153472900390625,0.03787195682525635,0.06051914766430855
1771073768832892000,10.408891845703126,-0.18442344665527344,0.07006752490997314,0.07250511646270752
1771073768842832000,10.418831787109376,-0.24437999725341797,0.1058875322341919,0.11434747278690338
1771073768852771800,10.428771728515626,-0.23551559448242188,0.13665366172790527,0.14567960798740387
1771073768862711600,10.438711669921876,-0.10950660705566406,0.1457679271697998,0.13448375463485718
1771073768872651500,10.448651611328126,0.025941848754882812,0.1301344633102417,0.13392898440361023
1771073768882591500,10.458591552734376,0.12151336669921875,0.10739576816558838,0.1530245989561081
1771073768892531500,10.468531494140626,0.20161056518554688,0.08598315715789795,0.13470976054668427
1771073768902471200,10.47847119140625,0.17952346801757812,0.058010101318359375,0.0887724757194519
1771073768912411100,10.4884111328125,0.11109256744384766,0.051938414573669434,0.03834409639239311
1771073768922351000,10.49835107421875,0.05352592468261719,0.06780683994293213,-0.002981744706630707
1771073768932290800,10.508290771484376,0.02301788330078125,0.07995414733886719,0.01194755733013153
1771073768942230800,10.518230712890626,-0.039864540100097656,0.0962061882019043,0.028582725673913956
1771073768952170800,10.528170654296876,-0.09470081329345703,0.1055227518081665,0.06142960116267204
1771073768962110700,10.53811083984375,-0.09463691711425781,0.09675168991088867,0.035711877048015594
1771073768972050400,10.548050537109376,-0.10888004302978516,0.08677470684051514,0.032333068549633026
1771073768981990400,10.557990478515626,-0.16073322296142578,0.08502829074859619,0.03611116111278534
1771073768991930400,10.567930419921876,-0.12246990203857422,0.06803023815155029,0.02038262039422989
1771073769001870000,10.5778701171875,-0.06617355346679688,0.00983726978302002,-0.032697051763534546
1771073769011810000,10.58781005859375,-0.008553504943847656,-0.04688310623168945,-0.11054295301437378
1771073769021749800,10.597749755859375,0.012808799743652344,-0.09568929672241211,-0.14232276380062103
1771073769031689700,10.607689697265625,0.052684783935546875,-0.10149967670440674,-0.1053433045744896
1771073769041629400,10.61762939453125,0.1225738525390625,-0.06052517890930176,-0.059535495936870575
1771073769051569400,10.6275693359375,0.15377140045166016,-0.03516077995300293,-0.039987966418266296
1771073769061509400,10.63750927734375,0.13747024536132812,-0.03907310962677002,-0.01572081819176674
1771073769071449000,10.647448974609375,0.07917118072509766,-0.062357425689697266,-0.0362527035176754
1771073769081389000,10.65738916015625,0.007733345031738281,-0.1041865348815918,-0.08179251104593277
1771073769091328800,10.667328857421875,-0.08848285675048828,-0.13785147666931152,-0.12656374275684357
1771073769101268700,10.677268798828125,-0.1244049072265625,-0.13002479076385498,-0.14682669937610626
1771073769111208400,10.68720849609375,-0.16695690155029297,-0.07668960094451904,-0.11014805734157562
1771073769121148400,10.6971484375,-0.1595001220703125,0.016581177711486816,-0.020569199696183205
1771073769131088100,10.707088134765625,-0.14044570922851562,0.07798850536346436,0.052534591406583786
1771073769141028000,10.717028076171875,-0.11944007873535156,0.07765495777130127,0.07401442527770996
1771073769150967800,10.7269677734375,-0.054119110107421875,0.021217703819274902,0.039904411882162094
1771073769160907800,10.73690771484375,0.005337715148925781,-0.057424187660217285,0.0010263174772262573
1771073769170847500,10.746847412109375,0.15783023834228516,-0.11511754989624023,-0.023005403578281403
1771073769180787500,10.756787353515625,0.2724752426147461,-0.13662803173065186,-0.03982607647776604
1771073769190727200,10.76672705078125,0.23937416076660156,-0.13032281398773193,-0.03786374628543854
1771073769200667100,10.776667236328125,0.17874813079833984,-0.11570286750793457,-0.0537913553416729
1771073769210606800,10.78660693359375,0.10527515411376953,-0.07928431034088135,-0.06435041129589081
1771073769250366200,10.8263662109375,-0.2495584487915039,0.12277936935424805,0.1061876118183136
1771073769260306200,10.83630615234375,-0.19122791290283203,0.11128544807434082,0.1299172341823578
1771073769270246000,10.846245849609375,-0.09180641174316406,0.09932577610015869,0.13564524054527283
1771073769280185900,10.856185791015625,-0.008337974548339844,0.08375394344329834,0.10029169917106628
1771073769290125600,10.86612548828125,0.03604412078857422,0.0426410436630249,0.03150380402803421
1771073769300065500,10.8760654296875,0.04924583435058594,0.008376479148864746,-0.019975945353507996
1771073769310005200,10.886005126953124,0.04128074645996094,-0.0195540189743042,-0.050427913665771484
1771073769319945200,10.8959453125,-0.0016613006591796875,-0.029284119606018066,-0.03432337939739227
1771073769329885000,10.905885009765624,-0.08151435852050781,0.008031606674194336,0.00430934876203537
1771073769339825000,10.915824951171874,-0.021366119384765625,0.013064026832580566,0.01850961148738861
1771073769349764600,10.9257646484375,0.10822105407714844,0.011949777603149414,0.00532221794128418
1771073769359704600,10.93570458984375,0.1508617401123047,-0.010232925415039062,0.0037368610501289368
1771073769369644300,10.945644287109374,0.09631061553955078,-0.05824410915374756,0.0035153552889823914
1771073769379584300,10.955584228515624,0.06161022186279297,-0.07545256614685059,-0.05026065558195114
1771073769389524000,10.96552392578125,0.025298118591308594,-0.08150136470794678,-0.11536651849746704
1771073769399464000,10.9754638671875,-0.033820152282714844,-0.06460237503051758,-0.11694864928722382
1771073769409404000,10.98540380859375,-0.05188560485839844,-0.04347491264343262,-0.07041998207569122
1771073769419343600,10.995343505859376,-0.0014085769653320312,-0.02014482021331787,-0.020458776503801346
1771073769429283600,11.00528369140625,-0.008334159851074219,-0.011029958724975586,-0.010716523975133896
1771073769439223600,11.0152236328125,0.0012254714965820312,-0.013239383697509766,-0.02177071012556553
1771073769449163500,11.02516357421875,0.02703094482421875,-0.040907979011535645,-0.05775497108697891
1771073769459103200,11.035103271484376,0.01712512969970703,-0.04241597652435303,-0.0832936242222786
1771073769469043200,11.045043212890626,-0.049137115478515625,-0.055568575859069824,-0.10365183651447296
1771073769478983200,11.054983154296876,-0.06487083435058594,-0.0589827299118042,-0.10991736501455307
1771073769488923000,11.0649228515625,-0.0709238052368164,-0.045857906341552734,-0.11872287094593048
1771073769498862800,11.07486279296875,-0.07924556732177734,-0.025786757469177246,-0.09287554025650024
1771073769508802800,11.084802734375,-0.04738426208496094,0.0009135007858276367,-0.04947907477617264
1771073769518742800,11.09474267578125,-0.0019073486328125,0.03648543357849121,-0.00503411702811718
1771073769528682500,11.1046826171875,0.049963951110839844,0.03564870357513428,0.012826506048440933
1771073769538622500,11.11462255859375,0.025722503662109375,0.020198583602905273,0.009354494512081146
1771073769548562400,11.1245625,0.011266708374023438,0.0004968643188476562,0.001267559826374054
1771073769558502100,11.134502197265626,-0.01720142364501953,-0.0016952753067016602,-0.0038477741181850433
1771073769568442000,11.144442138671875,-0.01953601837158203,-0.004902482032775879,-0.024328600615262985
1771073769578382000,11.154382080078125,-0.012594223022460938,-0.014115571975708008,-0.05330982059240341
1771073769588322000,11.164322021484375,0.036556243896484375,-0.020519018173217773,-0.05159136652946472
1771073769598261800,11.17426171875,0.10383319854736328,-0.022706031799316406,-0.05314525216817856
1771073769608201700,11.18420166015625,0.18675708770751953,-0.03116583824157715,-0.02492135763168335
1771073769618141700,11.1941416015625,0.19810009002685547,-0.02776169776916504,0.03976396843791008
1771073769628081700,11.20408154296875,0.19316959381103516,0.015758037567138672,0.07016293704509735
1771073769638021400,11.214021484375,0.1085977554321289,0.05674636363983154,0.09122692793607712
1771073769647961300,11.22396142578125,-0.07336997985839844,0.06604135036468506,0.09580244868993759
1771073769657901300,11.2339013671875,-0.21256351470947266,0.04146885871887207,0.06471207737922668
1771073769667841000,11.243841064453125,-0.15210819244384766,0.012649059295654297,0.024722866714000702
1771073769687721000,11.263720947265625,-0.007079124450683594,-0.0327073335647583,0.035671498626470566
1771073769697661000,11.273660888671875,-0.0022344589233398438,-0.0369952917098999,0.04778275638818741
1771073769707600600,11.2836005859375,-0.006801605224609375,-0.03229677677154541,0.0064986832439899445
1771073769717540600,11.29354052734375,-0.1547985076904297,-0.021213531494140625,-0.02401570975780487
1771073769727480600,11.30348046875,-0.31924915313720703,0.044333815574645996,0.010815173387527466
1771073769737420300,11.313420166015625,-0.3329010009765625,0.12205958366394043,0.07137000560760498
1771073769747360300,11.3233603515625,-0.24060726165771484,0.1550525426864624,0.09370143711566925
1771073769757300200,11.33330029296875,-0.07937908172607422,0.09657037258148193,0.11928877234458923
1771073769767240200,11.343240234375,0.10500621795654297,0.006396770477294922,0.10712579637765884
1771073769777180000,11.353179931640625,0.241668701171875,-0.06158578395843506,0.05951221287250519
1771073769787119900,11.363119873046875,0.21140003204345703,-0.06576740741729736,0.03646106272935867
1771073769797059800,11.373059814453125,0.1392841339111328,-0.05595242977142334,0.006277311593294144
1771073769806999600,11.38299951171875,0.0070953369140625,-0.03893423080444336,-0.06876003742218018
1771073769816939500,11.392939453125,-0.13005828857421875,-0.04042840003967285,-0.11188476532697678
1771073769826879500,11.40287939453125,-0.18972206115722656,-0.022260189056396484,-0.10165143013000488
1771073769836819500,11.4128193359375,-0.17548561096191406,-0.0015398263931274414,-0.06774667650461197
1771073769846759200,11.42275927734375,-0.0908498764038086,0.023542165756225586,-0.010374482721090317
1771073769856699100,11.43269921875,0.025343894958496094,0.052912235260009766,0.039739787578582764
1771073769866639000,11.44263916015625,0.18197917938232422,0.04412078857421875,0.06563527882099152
1771073769876578800,11.452578857421875,0.2702054977416992,-0.009957194328308105,0.04530112445354462
1771073769886518800,11.462518798828125,0.32888317108154297,-0.07826006412506104,-0.02545345202088356
1771073769896458800,11.472458740234375,0.382171630859375,-0.11887228488922119,-0.09184445440769196
1771073769906398700,11.482398681640625,0.3501853942871094,-0.142073392868042,-0.14195919036865234
1771073769916338400,11.49233837890625,0.22020339965820312,-0.12215876579284668,-0.12509264051914215
1771073769926278400,11.5022783203125,0.07847881317138672,-0.0614018440246582,-0.0925336480140686
1771073769936218400,11.51221826171875,-0.018484115600585938,-0.02530038356781006,-0.0796055719256401
1771073769946158000,11.522157958984375,-0.10209274291992188,-0.013142108917236328,-0.055759407579898834
1771073769956098000,11.53209814453125,-0.08076763153076172,-0.007947206497192383,-0.014716042205691338
1771073769966038000,11.5420380859375,-0.036197662353515625,0.02275872230529785,0.029431167989969254
1771073769975978000,11.55197802734375,-0.027608871459960938,0.029009461402893066,0.0632782131433487
1771073769985917700,11.561917724609375,-0.08269023895263672,0.03730940818786621,0.09196016937494278
1771073769995857700,11.571857666015624,-0.11812496185302734,0.03430008888244629,0.08479376137256622
1771073770005797600,11.581797607421874,-0.09664535522460938,0.022925853729248047,0.017491444945335388
1771073770015737600,11.591737548828124,-0.1039571762084961,-0.003735065460205078,-0.0032467395067214966
1771073770025677300,11.60167724609375,-0.10893821716308594,0.006165146827697754,0.02113792672753334
1771073770035617300,11.6116171875,-0.08331966400146484,0.02817213535308838,0.06819489598274231
1771073770045557200,11.62155712890625,-0.02285003662109375,0.04294860363006592,0.06012773886322975
1771073770055497000,11.6314970703125,0.03197765350341797,0.019408464431762695,0.01940806210041046
1771073770065437000,11.64143701171875,0.027199745178222656,-0.014057755470275879,0.007355226203799248
1771073770075376600,11.651376708984374,-0.041007041931152344,-0.033141374588012695,0.015728149563074112
1771073770085316600,11.661316650390624,-0.011640548706054688,-0.030217766761779785,-0.006743904203176498
1771073770095256300,11.67125634765625,0.0029973983764648438,-0.014969587326049805,0.005028063431382179
1771073770105196300,11.6811962890625,0.012571334838867188,0.0006254911422729492,0.03139350563287735
1771073770115136000,11.691135986328124,0.0666799545288086,0.006743311882019043,0.04361240565776825
1771073770125076000,11.701075927734376,0.08466148376464844,0.012257575988769531,0.053847357630729675
1771073770135016000,11.711015869140626,0.05546092987060547,0.016577959060668945,0.04752402380108833
1771073770144955600,11.72095556640625,0.03168201446533203,0.00785207748413086,0.02579035609960556
1771073770154895600,11.7308955078125,0.048492431640625,0.0007238388061523438,0.019873183220624924
1771073770164835300,11.74083544921875,0.06754779815673828,0.004584193229675293,0.016165873035788536
1771073770174775300,11.750775390625,0.05112266540527344,-0.008901476860046387,0.012540997937321663
1771073770184715000,11.760715087890626,0.02320384979248047,-0.01980900764465332,-0.0023550670593976974
1771073770194655000,11.770655029296876,-0.07024288177490234,-0.03719663619995117,-0.03062603250145912
1771073770204594700,11.7805947265625,-0.19301700592041016,-0.07162582874298096,-0.06083446741104126
1771073770214534700,11.79053466796875,-0.17992401123046875,-0.07287108898162842,-0.08791553229093552
1771073770224474400,11.800474365234376,-0.134429931640625,-0.0581667423248291,-0.06014660745859146
1771073770234414300,11.810414306640626,-0.0474853515625,-0.007491588592529297,-0.007037270814180374
1771073770244354000,11.82035400390625,0.04034423828125,0.02831268310546875,0.03638801723718643
1771073770254294000,11.8302939453125,-0.005001068115234375,0.04869353771209717,0.08431068807840347
1771073770264233700,11.840233642578125,-0.03297710418701172,0.04919755458831787,0.08387491106987
1771073770274173700,11.850173583984375,0.0031585693359375,0.03045654296875,0.037885408848524094
1771073770284113400,11.860113525390625,0.02701568603515625,-0.002598404884338379,-0.012407281436026096
1771073770294053400,11.870053466796875,0.03401374816894531,-0.03049302101135254,-0.04523751139640808
1771073770303993000,11.8799931640625,0.06449222564697266,-0.051157355308532715,-0.10215027630329132
1771073770313933000,11.88993310546875,-0.03728675842285156,-0.017825007438659668,-0.11450743675231934
1771073770323872800,11.899872802734375,-0.18680667877197266,0.045560359954833984,-0.09893880039453506
1771073770333812700,11.909812744140625,-0.2844657897949219,0.14125049114227295,-0.022142231464385986
1771073770343752400,11.91975244140625,-0.2441883087158203,0.21780896186828613,0.0668129250407219
1771073770353692400,11.9296923828125,-0.044806480407714844,0.22415482997894287,0.13567978143692017
1771073770363632000,11.939632080078125,0.25700855255126953,0.193717360496521,0.14730650186538696
1771073770373572000,11.949572021484375,0.4596538543701172,0.11178863048553467,0.10983367264270782
1771073770383511800,11.95951171875,0.5037546157836914,0.03708803653717041,0.07151028513908386
1771073770393451800,11.96945166015625,0.4226980209350586,-0.026494264602661133,-0.020214829593896866
1771073770403391500,11.9793916015625,0.22565746307373047,-0.058054327964782715,-0.09100716561079025
1771073770413331500,11.98933154296875,0.02268218994140625,-0.033582210540771484,-0.09617042541503906
1771073770423271200,11.999271240234375,-0.04502296447753906,0.01618218421936035,-0.07010270655155182
1771073770433211100,12.009211181640625,-0.06692218780517578,0.05129396915435791,-0.033454567193984985
1771073770443151000,12.019151123046875,-0.0908651351928711,0.05080687999725342,0.011540189385414124
1771073770453090800,12.0290908203125,-0.07210540771484375,0.024831056594848633,0.03423693776130676
1771073770463030800,12.03903076171875,-0.07011795043945312,-0.0008124113082885742,0.04967213049530983
1771073770472970800,12.048970703125,-0.0893716812133789,-0.009449005126953125,0.07043837755918503
1771073770482910700,12.05891064453125,-0.1460123062133789,-0.015387892723083496,0.07783176004886627
1771073770492850400,12.068850341796875,-0.24652099609375,-0.02789020538330078,0.07686367630958557
1771073770502790400,12.078790283203125,-0.3714475631713867,-0.029766559600830078,0.07210058718919754
1771073770512730400,12.08873046875,-0.5063562393188477,-0.034821152687072754,0.041436463594436646
1771073770522670000,12.098670166015625,-0.5405645370483398,-0.03524184226989746,0.017364202067255974
1771073770532610000,12.108610107421875,-0.5016469955444336,-0.04759037494659424,-0.02634209394454956
1771073770542550000,12.118550048828125,-0.38605308532714844,-0.0790320634841919,-0.04623981565237045
1771073770552490000,12.128489990234375,-0.25150299072265625,-0.10129690170288086,-0.06343791633844376
1771073770562429700,12.1384296875,-0.17592430114746094,-0.13141393661499023,-0.09596088528633118
1771073770572369700,12.14836962890625,-0.13714218139648438,-0.157478928565979,-0.14341339468955994
1771073770582309600,12.1583095703125,-0.06627941131591797,-0.15826952457427979,-0.1916772723197937
1771073770592249300,12.168249267578124,0.012798309326171875,-0.15884339809417725,-0.24841095507144928
1771073770602189300,12.178189208984374,0.09541606903076172,-0.16245388984680176,-0.25506582856178284
1771073770612129300,12.18812939453125,0.10871219635009766,-0.14650440216064453,-0.23392155766487122
1771073770622069200,12.1980693359375,0.13868236541748047,-0.08356916904449463,-0.20264028012752533
1771073770632009000,12.208009033203124,0.09789752960205078,-0.01661098003387451,-0.17247113585472107
