time,seconds_elapsed,z,y,x
1771073758515300600,0.091300537109375,-0.010253162123262882,0.03701791167259216,0.09720530360937119
1771073758535178500,0.111178466796875,0.009986846707761288,0.03169159218668938,0.13768532872200012
1771073758545117400,0.121117431640625,0.017443692311644554,0.007190529722720385,0.1483379602432251
1771073758555057000,0.131056884765625,0.020639482885599136,-0.011984216049313545,0.14194637537002563
1771073758564996400,0.140996337890625,0.024900536984205246,-0.019441060721874237,0.12809795141220093
1771073758574935800,0.150935791015625,0.025965800508856773,-0.027963170781731606,0.10998847335577011
1771073758584875800,0.160875732421875,0.02277000993490219,-0.0354200154542923,0.09507478028535843
1771073758594815700,0.170815673828125,0.020639482885599136,-0.03328948840498924,0.0918789878487587
1771073758604756000,0.180755859375,0.0153131652623415,-0.031158961355686188,0.10146636515855789
1771073758614696200,0.1906962890625,0.007856319658458233,-0.019441060721874237,0.11638005077838898
1771073758624636700,0.20063671875,0.0003994738799519837,0.0007989477599039674,0.1291632205247879
1771073758634577200,0.2105771484375,-0.008122635073959827,0.010386320762336254,0.13022847473621368
1771073758644517600,0.220517578125,-0.010253162123262882,0.012516847811639309,0.12064110487699509
1771073758654458400,0.230458251953125,-0.0070573715493083,0.014647374860942364,0.10359688848257065
1771073758664398800,0.24039892578125,0.0003994738799519837,0.01784316636621952,0.08442214131355286
1771073758674339600,0.250339599609375,0.005725792143493891,0.02636527456343174,0.06311687082052231
1771073758684279600,0.260279541015625,0.007856319658458233,0.04554001986980438,0.040746334940195084
1771073758704159200,0.2801591796875,0.006791055668145418,0.09880319982767105,0.013049479573965073
1771073758714099200,0.29009912109375,0.007856319658458233,0.09880319982767105,0.0023968431632965803
1771073758724039000,0.300038818359375,0.00892158318310976,0.07962846010923386,-0.012516847811639309
1771073758733979000,0.309978759765625,0.011052110232412815,0.060453712940216064,-0.03382211923599243
1771073758743918600,0.319918701171875,0.011052110232412815,0.04554001986980438,-0.05193160101771355
1771073758753858600,0.329858642578125,0.006791055668145418,0.04127896577119827,-0.06151897460222244
1771073758763798300,0.33979833984375,0.0003994738799519837,0.03914843872189522,-0.05832318589091301
1771073758773738200,0.34973828125,-0.005992108024656773,0.04127896577119827,-0.048735812306404114
1771073758783678000,0.359677978515625,-0.010253162123262882,0.05086633935570717,-0.03488738462328911
1771073758793618000,0.369617919921875,-0.009187898598611355,0.056192658841609955,-0.027430538088083267
1771073758803557600,0.3795576171875,-0.008122635073959827,0.05512739345431328,-0.029561065137386322
1771073758813497600,0.38949755859375,-0.004926844500005245,0.04340949282050133,-0.03701791167259216
1771073758823437300,0.399437255859375,0.005725792143493891,0.03169159218668938,-0.04127896577119827
1771073758833377300,0.409377197265625,0.017443692311644554,0.025300011038780212,-0.03914843872189522
1771073758843317000,0.41931689453125,0.028096329420804977,0.02210422046482563,-0.03382211923599243
1771073758853257000,0.429257080078125,0.03129211813211441,0.01784316636621952,-0.02636527456343174
1771073758863197000,0.439197021484375,0.029161592945456505,0.010386320762336254,-0.019973693415522575
1771073758873136600,0.44913671875,0.028096329420804977,0.016777902841567993,-0.016777902841567993
1771073758883076600,0.45907666015625,0.03129211813211441,0.027430538088083267,-0.011451584286987782
1771073758893016300,0.469016357421875,0.03235738351941109,0.025300011038780212,-0.007190529722720385
1771073758902956300,0.478956298828125,0.028096329420804977,0.011451584286987782,-0.010386320762336254
1771073758912896000,0.48889599609375,0.021704746410250664,0.0018642114009708166,-0.025300011038780212
1771073758922836000,0.4988359375,0.01957421936094761,0.0007989477599039674,-0.03808317333459854
1771073758932775700,0.508775634765625,0.020639482885599136,0.0018642114009708166,-0.044474758207798004
1771073758942715600,0.518715576171875,0.02383527345955372,0.014647374860942364,-0.03701791167259216
1771073758952655400,0.5286552734375,0.0270310640335083,0.03914843872189522,-0.018908429890871048
1771073758962595300,0.53859521484375,0.0270310640335083,0.05299686640501022,0.0002663159102667123
1771073758972535000,0.54853515625,0.028096329420804977,0.04767054691910744,0.016245270147919655
1771073758982475000,0.55847509765625,0.02383527345955372,0.029561065137386322,0.023702116683125496
1771073758992414700,0.568414794921875,0.017443692311644554,-0.0023968431632965803,0.019441060721874237
1771073759002354700,0.578354736328125,0.012117373757064342,-0.03861580789089203,0.005592633970081806
1771073759012294400,0.58829443359375,0.009986846707761288,-0.06311687082052231,-0.00612526573240757
1771073759022234400,0.598234375,0.012117373757064342,-0.07483477145433426,-0.013582111336290836
1771073759032174000,0.608174072265625,0.012117373757064342,-0.06524740159511566,-0.015712639316916466
1771073759042114000,0.618114013671875,0.014247900806367397,-0.04394212365150452,-0.00612526573240757
1771073759052053800,0.6280537109375,0.009986846707761288,-0.026897907257080078,0.008788425475358963
1771073759061993700,0.63799365234375,0.005725792143493891,-0.016245270147919655,0.02583264373242855
1771073759071933700,0.64793359375,0.005725792143493891,-0.007723161485046148,0.03968106955289841
1771073759081873400,0.657873291015625,0.009986846707761288,-0.001331579522229731,0.03968106955289841
1771073759091813400,0.6678134765625,0.02383527345955372,0.012516847811639309,0.03009369783103466
1771073759101753300,0.67775341796875,0.03981423005461693,0.027430538088083267,0.0141147430986166
1771073759111693300,0.687693359375,0.0504668653011322,0.03488738462328911,-0.0007989477599039674
1771073759121633000,0.697633056640625,0.05153212696313858,0.028495801612734795,-0.009321057237684727
1771073759131573000,0.707572998046875,0.04727107286453247,0.016777902841567993,-0.010386320762336254
1771073759141513000,0.717512939453125,0.040879491716623306,0.010386320762336254,-0.003994738683104515
1771073759151452700,0.72745263671875,0.03129211813211441,0.010386320762336254,0.001331579522229731
1771073759161392600,0.737392578125,0.01957421936094761,0.002929474925622344,0.0002663159102667123
1771073759171332600,0.74733251953125,0.012117373757064342,-0.005592633970081806,-0.007190529722720385
1771073759181272600,0.7572724609375,0.012117373757064342,-0.007723161485046148,-0.02210422046482563
1771073759191212300,0.76721240234375,0.0153131652623415,-0.010918952524662018,-0.03808317333459854
1771073759201152300,0.77715234375,0.01957421936094761,-0.001331579522229731,-0.04767054691910744
1771073759211092200,0.78709228515625,0.01850895583629608,0.013582111336290836,-0.05086633935570717
1771073759221032000,0.797031982421875,0.016378428786993027,0.023169483989477158,-0.05193160101771355
1771073759230972000,0.806971923828125,0.012117373757064342,0.02210422046482563,-0.05512739345431328
1771073759240912000,0.816911865234375,0.01318263728171587,0.012516847811639309,-0.056192658841609955
1771073759250851800,0.826851806640625,0.0153131652623415,0.010386320762336254,-0.04340949282050133
1771073759260791600,0.83679150390625,0.016378428786993027,0.021038956940174103,-0.02636527456343174
1771073759270731500,0.8467314453125,0.01318263728171587,0.027430538088083267,-0.013582111336290836
1771073759280671500,0.85667138671875,0.009986846707761288,0.02210422046482563,-0.00612526573240757
1771073759290611500,0.866611572265625,0.009986846707761288,0.016777902841567993,-0.003994738683104515
1771073759300551200,0.87655126953125,0.009986846707761288,0.01784316636621952,0.0002663159102667123
1771073759310491100,0.8864912109375,0.009986846707761288,0.024234747514128685,0.005592633970081806
1771073759320431000,0.89643115234375,0.004660528618842363,0.014647374860942364,0.010918952524662018
1771073759330370800,0.906370849609375,0.0003994738799519837,0.0050600022077560425,0.016245270147919655
1771073759340310800,0.916310791015625,-0.0006657897611148655,-0.004527370445430279,0.020506324246525764
1771073759350250800,0.926250732421875,-0.0017310534603893757,-0.0141147430986166,0.01837579719722271
1771073759360190700,0.936190673828125,-0.003861580742523074,-0.010918952524662018,0.015180006623268127
1771073759370130400,0.94613037109375,-0.004926844500005245,0.010386320762336254,0.01837579719722271
1771073759380070400,0.9560703125,-0.011318426579236984,0.023169483989477158,0.020506324246525764
1771073759390010400,0.96601025390625,-0.01771000772714615,0.016777902841567993,0.016245270147919655
1771073759399950000,0.9759501953125,-0.019840534776449203,0.002929474925622344,0.007723161485046148
1771073759409890000,0.98589013671875,-0.012383690103888512,-0.005592633970081806,-0.0018642114009708166
1771073759419830000,0.995830078125,-0.004926844500005245,-0.00985368900001049,-0.00612526573240757
1771073759429770000,1.00577001953125,0.0003994738799519837,-0.0023968431632965803,-0.00612526573240757
1771073759439709700,1.015709716796875,0.004660528618842363,0.010386320762336254,0.001331579522229731
1771073759449649700,1.025649658203125,0.0035952648613601923,0.018908429890871048,0.0141147430986166
1771073759459589600,1.035589599609375,-0.0006657897611148655,0.02636527456343174,0.026897907257080078
1771073759469529300,1.045529296875,-0.0070573715493083,0.030626330524683,0.03755054250359535
1771073759479469300,1.05546923828125,-0.013448953628540039,0.027430538088083267,0.04394212365150452
1771073759489409300,1.0654091796875,-0.01664474420249462,0.02210422046482563,0.0492684431374073
1771073759499349200,1.075349365234375,-0.01771000772714615,0.018908429890871048,0.05566002428531647
1771073759509289000,1.0852890625,-0.013448953628540039,0.013582111336290836,0.0588558167219162
1771073759519229000,1.09522900390625,-0.008122635073959827,-0.0002663159102667123,0.0588558167219162
1771073759529169000,1.1051689453125,-0.008122635073959827,-0.016245270147919655,0.05139897018671036
1771073759539108600,1.115108642578125,-0.01771000772714615,-0.029028434306383133,0.036485280841588974
1771073759549048600,1.125048583984375,-0.03368896245956421,-0.04287686198949814,0.013049479573965073
1771073759558988500,1.134988525390625,-0.051798444241285324,-0.04394212365150452,-0.016777902841567993
1771073759568928500,1.144928466796875,-0.06564687192440033,-0.0354200154542923,-0.04554001986980438
1771073759578868200,1.1548681640625,-0.06671213358640671,-0.019441060721874237,-0.06258423626422882
1771073759588808200,1.16480810546875,-0.0624510794878006,-0.00985368900001049,-0.06471476703882217
1771073759598748200,1.174748046875,-0.06138581782579422,-0.004527370445430279,-0.056192658841609955
1771073759608687900,1.18468798828125,-0.06564687192440033,-0.0023968431632965803,-0.04127896577119827
1771073759618627800,1.1946279296875,-0.06884266436100006,-0.0141147430986166,-0.02636527456343174
1771073759628567800,1.20456787109375,-0.06351634114980698,-0.024767380207777023,-0.018908429890871048
1771073759638507800,1.2145078125,-0.05392897129058838,-0.027963170781731606,-0.021038956940174103
1771073759648447500,1.224447509765625,-0.04540686309337616,-0.031158961355686188,-0.027430538088083267
1771073759658387500,1.234387451171875,-0.03795001655817032,-0.02263685315847397,-0.03382211923599243
1771073759668327400,1.244327392578125,-0.035819489508867264,-0.0023968431632965803,-0.03382211923599243
1771073759678267400,1.254267333984375,-0.03795001655817032,0.013582111336290836,-0.03914843872189522
1771073759688207000,1.26420703125,-0.03795001655817032,0.030626330524683,-0.05299686640501022
1771073759698147000,1.27414697265625,-0.03795001655817032,0.04980107396841049,-0.0679105594754219
1771073759708087000,1.284087158203125,-0.04008054360747337,0.07536740601062775,-0.07217161357402802
1771073759718026800,1.29402685546875,-0.04434159770607948,0.08282424509525299,-0.07536740601062775
1771073759727966700,1.303966796875,-0.04860265180468559,0.06578002870082855,-0.07856319099664688
1771073759737906700,1.31390673828125,-0.05392897129058838,0.05193160101771355,-0.0774979293346405
1771073759747846700,1.3238466796875,-0.054994236677885056,0.03808317333459854,-0.06578002870082855
1771073759757786400,1.333786376953125,-0.05712476372718811,0.012516847811639309,-0.04980107396841049
1771073759767726300,1.343726318359375,-0.06032055243849754,-0.00985368900001049,-0.029561065137386322
1771073759777666000,1.353666015625,-0.059255290776491165,-0.026897907257080078,-0.011451584286987782
1771073759787606000,1.36360595703125,-0.05819002538919449,-0.03435475379228592,0.0002663159102667123
1771073759797546000,1.3735458984375,-0.056059498339891434,-0.031158961355686188,0.0034621069207787514
1771073759807485700,1.383485595703125,-0.052863709628582,-0.01837579719722271,-0.002929474925622344
1771073759817425700,1.39342578125,-0.04540686309337616,-0.0023968431632965803,-0.014647374860942364
1771073759827365400,1.403365478515625,-0.03368896245956421,0.015712639316916466,-0.02636527456343174
1771073759837305300,1.413305419921875,-0.023036325350403786,0.024234747514128685,-0.03275685757398605
1771073759847245000,1.4232451171875,-0.015579480677843094,0.02636527456343174,-0.03275685757398605
1771073759857185000,1.43318505859375,-0.012383690103888512,0.008255792781710625,-0.027430538088083267
1771073759867124700,1.443124755859375,-0.009187898598611355,-0.011984216049313545,-0.02210422046482563
1771073759877064700,1.453064697265625,-0.004926844500005245,-0.029028434306383133,-0.023169483989477158
1771073759887004400,1.46300439453125,-0.0070573715493083,-0.04394212365150452,-0.03808317333459854
1771073759896944400,1.4729443359375,-0.011318426579236984,-0.036485280841588974,-0.05832318589091301
1771073759906884000,1.482884033203125,-0.014514217153191566,-0.013049479573965073,-0.07430213689804077
1771073759916824000,1.492823974609375,-0.018775271251797676,0.00612526573240757,-0.08388951420783997
1771073759926763800,1.502763671875,-0.01664474420249462,0.003994738683104515,-0.0870852991938591
1771073759936703700,1.512703857421875,-0.010253162123262882,-0.0034621069207787514,-0.08388951420783997
1771073759946643500,1.5226435546875,0.0003994738799519837,-0.0023968431632965803,-0.0732368752360344
1771073759956583400,1.53258349609375,0.00892158318310976,0.003994738683104515,-0.05832318589091301
1771073759966523100,1.542523193359375,0.014247900806367397,0.009321057237684727,-0.03914843872189522
1771073759976463000,1.552463134765625,0.017443692311644554,0.00612526573240757,-0.019973693415522575
1771073759986402800,1.56240283203125,0.01957421936094761,-0.0002663159102667123,-0.002929474925622344
1771073759996342800,1.5723427734375,0.01957421936094761,-0.005592633970081806,0.0023968431632965803
1771073760006282500,1.582282470703125,0.021704746410250664,-0.00985368900001049,0.001331579522229731
1771073760016222500,1.592222412109375,0.024900536984205246,-0.007723161485046148,-0.003994738683104515
1771073760026162200,1.602162109375,0.030226856470108032,-0.001331579522229731,-0.009321057237684727
1771073760036102100,1.61210205078125,0.03448791056871414,0.007190529722720385,-0.011451584286987782
1771073760046041900,1.622041748046875,0.03448791056871414,0.012516847811639309,-0.007190529722720385
1771073760055981800,1.63198193359375,0.029161592945456505,0.007190529722720385,-0.003994738683104515
1771073760065921500,1.641921630859375,0.024900536984205246,-0.004527370445430279,0.0034621069207787514
1771073760075861500,1.651861572265625,0.025965800508856773,-0.007723161485046148,0.019441060721874237
1771073760085801200,1.66180126953125,0.024900536984205246,0.003994738683104515,0.03861580789089203
1771073760095741200,1.6717412109375,0.02277000993490219,0.011451584286987782,0.05352949723601341
1771073760105681000,1.681680908203125,0.017443692311644554,-0.0002663159102667123,0.05139897018671036
1771073760115620900,1.691620849609375,0.012117373757064342,-0.019441060721874237,0.03755054250359535
1771073760125560800,1.701560791015625,0.005725792143493891,-0.036485280841588974,0.008788425475358963
1771073760135500500,1.71150048828125,0.001464737462811172,-0.04181159660220146,-0.023169483989477158
1771073760145440500,1.7214404296875,-0.004926844500005245,-0.036485280841588974,-0.05086633935570717
1771073760155380200,1.731380126953125,-0.0070573715493083,-0.023702116683125496,-0.06684529036283493
1771073760165320200,1.7413203125,-0.003861580742523074,-0.0034621069207787514,-0.07217161357402802
1771073760175260200,1.75126025390625,0.004660528618842363,0.016777902841567993,-0.06471476703882217
1771073760185199900,1.761199951171875,0.012117373757064342,0.03275685757398605,-0.05193160101771355
1771073760195139800,1.771139892578125,0.0153131652623415,0.04554001986980438,-0.03169159218668938
1771073760205079800,1.781079833984375,0.01957421936094761,0.04234423115849495,-0.012516847811639309
1771073760215019800,1.791019775390625,0.024900536984205246,0.013582111336290836,-0.0018642114009708166
1771073760224959500,1.80095947265625,0.0270310640335083,-0.00985368900001049,0.0034621069207787514
1771073760234899500,1.8108994140625,0.0366184376180172,-0.01837579719722271,0.004527370445430279
1771073760244839400,1.82083935546875,0.03235738351941109,-0.027963170781731606,0.0002663159102667123
1771073760254779100,1.830779052734375,0.02277000993490219,-0.016245270147919655,-0.00612526573240757
1771073760264719000,1.840718994140625,0.016378428786993027,0.007190529722720385,-0.010386320762336254
1771073760274659000,1.8506591796875,0.011052110232412815,0.02636527456343174,-0.014647374860942364
1771073760284599000,1.86059912109375,0.007856319658458233,0.029561065137386322,-0.021038956940174103
1771073760304478700,1.880478759765625,0.00892158318310976,0.025300011038780212,-0.04340949282050133
1771073760314418700,1.890418701171875,0.01318263728171587,0.02636527456343174,-0.04660528525710106
1771073760324358400,1.9003583984375,0.014247900806367397,0.021038956940174103,-0.04127896577119827
1771073760334298400,1.91029833984375,0.014247900806367397,0.01784316636621952,-0.027430538088083267
1771073760344238300,1.92023828125,0.01318263728171587,0.015712639316916466,-0.012516847811639309
1771073760354178300,1.93017822265625,0.01850895583629608,0.010386320762336254,-0.0050600022077560425
1771073760364118000,1.940117919921875,0.025965800508856773,0.011451584286987782,-0.002929474925622344
1771073760374058000,1.95005810546875,0.03235738351941109,0.018908429890871048,-0.002929474925622344
1771073760383998000,1.959998046875,0.03129211813211441,0.024234747514128685,0.0034621069207787514
1771073760393937700,1.969937744140625,0.0270310640335083,0.02636527456343174,0.013049479573965073
1771073760403877600,1.979877685546875,0.021704746410250664,0.023169483989477158,0.02583264373242855
1771073760413817600,1.989817626953125,0.017443692311644554,0.013582111336290836,0.031158961355686188
1771073760423757600,1.999757568359375,0.0153131652623415,0.00612526573240757,0.0354200154542923
1771073760433697300,2.009697265625,0.011052110232412815,-0.005592633970081806,0.03435475379228592
1771073760443637200,2.01963720703125,0.001464737462811172,-0.015180006623268127,0.03009369783103466
1771073760453577200,2.0295771484375,-0.0070573715493083,-0.019441060721874237,0.024767380207777023
1771073760463517200,2.03951708984375,-0.011318426579236984,-0.01837579719722271,0.02583264373242855
1771073760473457000,2.049456787109375,-0.014514217153191566,-0.011984216049313545,0.03328948840498924
1771073760483396900,2.05939697265625,-0.02197106182575226,-0.005592633970081806,0.048203181475400925
1771073760493336800,2.0693369140625,-0.028362644836306572,-0.0023968431632965803,0.06524740159511566
1771073760503276500,2.079276611328125,-0.03262370079755783,-0.011984216049313545,0.08655267208814621
1771073760513216500,2.089216552734375,-0.03688475489616394,-0.01837579719722271,0.0918789878487587
1771073760523156500,2.099156494140625,-0.0294279083609581,-0.031158961355686188,0.07057371735572815
1771073760533096400,2.109096435546875,-0.0070573715493083,-0.03328948840498924,0.0354200154542923
1771073760543036200,2.1190361328125,0.017443692311644554,-0.02157158963382244,-0.0050600022077560425
1771073760552976100,2.12897607421875,0.03448791056871414,-0.010918952524662018,-0.03808317333459854
1771073760562916000,2.138916015625,0.03874896466732025,0.007190529722720385,-0.05299686640501022
1771073760572855800,2.148855712890625,0.03235738351941109,0.029561065137386322,-0.04980107396841049
1771073760582795800,2.158795654296875,0.025965800508856773,0.035952646285295486,-0.035952646285295486
1771073760592735700,2.16873583984375,0.016378428786993027,0.024234747514128685,-0.021038956940174103
1771073760602675700,2.17867578125,0.00892158318310976,0.003994738683104515,-0.011451584286987782
1771073760612615400,2.188615478515625,0.0035952648613601923,-0.006657897960394621,-0.00612526573240757
1771073760622555400,2.198555419921875,0.001464737462811172,-0.0034621069207787514,-0.0007989477599039674
1771073760632495400,2.208495361328125,0.0003994738799519837,0.0050600022077560425,0.0034621069207787514
1771073760642435000,2.21843505859375,0.0003994738799519837,0.010386320762336254,0.00985368900001049
1771073760652375000,2.228375,0.004660528618842363,0.019973693415522575,0.015180006623268127
1771073760662315000,2.23831494140625,0.007856319658458233,0.019973693415522575,0.011984216049313545
1771073760672255000,2.2482548828125,0.006791055668145418,0.007190529722720385,0.0034621069207787514
1771073760682194700,2.258194580078125,0.0003994738799519837,-0.00985368900001049,-0.007190529722720385
1771073760692134700,2.268134765625,-0.015579480677843094,-0.027963170781731606,-0.016777902841567993
1771073760702074600,2.27807470703125,-0.03262370079755783,-0.04181159660220146,-0.027430538088083267
1771073760712014300,2.288014404296875,-0.04540686309337616,-0.040746334940195084,-0.03701791167259216
1771073760721954300,2.297954345703125,-0.04860265180468559,-0.03009369783103466,-0.04340949282050133
1771073760731894300,2.307894287109375,-0.04647212475538254,-0.017310533672571182,-0.04127896577119827
1771073760741834200,2.317834228515625,-0.04114580899477005,-0.004527370445430279,-0.03275685757398605
1771073760751774000,2.32777392578125,-0.031558435410261154,0.0018642114009708166,-0.016777902841567993
1771073760761714000,2.3377138671875,-0.015579480677843094,0.014647374860942364,0.0002663159102667123
1771073760771654000,2.34765380859375,-0.0006657897611148655,0.015712639316916466,0.0141147430986166
1771073760781593900,2.35759375,0.007856319658458233,-0.001331579522229731,0.020506324246525764
1771073760791533600,2.367533447265625,0.009986846707761288,-0.010918952524662018,0.023702116683125496
1771073760801473500,2.3774736328125,0.00892158318310976,-0.008788425475358963,0.026897907257080078
1771073760811413200,2.387413330078125,0.0003994738799519837,-0.0141147430986166,0.024767380207777023
1771073760821353200,2.397353271484375,-0.004926844500005245,-0.0141147430986166,0.019441060721874237
1771073760831293000,2.40729296875,-0.0017310534603893757,-0.0034621069207787514,0.011984216049313545
1771073760841233000,2.41723291015625,0.0035952648613601923,0.0050600022077560425,0.001331579522229731
1771073760851172600,2.427172607421875,0.005725792143493891,0.009321057237684727,-0.007190529722720385
1771073760861112600,2.437112548828125,0.004660528618842363,0.013582111336290836,-0.014647374860942364
1771073760871052300,2.44705224609375,-0.0006657897611148655,0.008255792781710625,-0.014647374860942364
1771073760880992300,2.4569921875,-0.005992108024656773,-0.001331579522229731,-0.011451584286987782
1771073760890932000,2.466931884765625,-0.009187898598611355,-0.00985368900001049,-0.007190529722720385
1771073760900872000,2.476871826171875,-0.0070573715493083,-0.008788425475358963,-0.002929474925622344
1771073760910811600,2.486811767578125,-0.0017310534603893757,-0.0023968431632965803,0.001331579522229731
1771073760920751600,2.496751708984375,0.0025300011038780212,0.00612526573240757,0.004527370445430279
1771073760930691300,2.50669140625,0.0035952648613601923,0.013582111336290836,0.00985368900001049
1771073760940631300,2.51663134765625,0.005725792143493891,0.015712639316916466,0.013049479573965073
1771073760950571000,2.526571044921875,0.009986846707761288,0.013582111336290836,0.010918952524662018
1771073760960511000,2.536510986328125,0.0153131652623415,0.008255792781710625,0.005592633970081806
1771073760970450700,2.54645068359375,0.01957421936094761,0.002929474925622344,-0.0018642114009708166
1771073760980390700,2.556390625,0.01957421936094761,-0.0002663159102667123,-0.009321057237684727
1771073760990330400,2.566330322265625,0.014247900806367397,0.00612526573240757,-0.015712639316916466
1771073761000270300,2.576270263671875,0.005725792143493891,0.014647374860942364,-0.016777902841567993
1771073761010210000,2.5862099609375,-0.0017310534603893757,0.009321057237684727,-0.015712639316916466
1771073761020150000,2.59614990234375,-0.008122635073959827,0.002929474925622344,-0.01784316636621952
1771073761030089700,2.60608984375,-0.003861580742523074,-0.0034621069207787514,-0.025300011038780212
1771073761040029700,2.61602978515625,0.005725792143493891,-0.00985368900001049,-0.03488738462328911
1771073761049969400,2.625969482421875,0.014247900806367397,-0.01837579719722271,-0.04127896577119827
1771073761059909400,2.635909423828125,0.017443692311644554,-0.019441060721874237,-0.04127896577119827
1771073761069849000,2.64584912109375,0.01850895583629608,-0.020506324246525764,-0.03382211923599243
1771073761079789000,2.6557890625,0.01957421936094761,-0.016245270147919655,-0.023169483989477158
1771073761089728800,2.665728759765625,0.0270310640335083,-0.004527370445430279,-0.012516847811639309
1771073761099668700,2.675668701171875,0.0366184376180172,0.0018642114009708166,-0.00612526573240757
1771073761109608400,2.6856083984375,0.045140545815229416,0.0007989477599039674,-0.003994738683104515
1771073761119548400,2.69554833984375,0.0504668653011322,0.0007989477599039674,-0.00612526573240757
1771073761129488400,2.70548828125,0.05579318478703499,-0.0002663159102667123,-0.007190529722720385
1771073761139428000,2.715427978515625,0.05792371183633804,-0.0034621069207787514,-0.011451584286987782
1771073761149368000,2.7253681640625,0.05898897349834442,-0.010918952524662018,-0.013582111336290836
1771073761159307800,2.735307861328125,0.05579318478703499,-0.020506324246525764,-0.015712639316916466
1771073761169247700,2.745247802734375,0.0504668653011322,-0.029028434306383133,-0.012516847811639309
1771073761179187500,2.7551875,0.04727107286453247,-0.032224226742982864,-0.003994738683104515
1771073761189127400,2.76512744140625,0.04833633825182915,-0.03861580789089203,0.006657897960394621
1771073761199067400,2.7750673828125,0.05579318478703499,-0.04607265070080757,0.013049479573965073
1771073761209007000,2.785007080078125,0.07070687413215637,-0.0588558167219162,0.017310533672571182
1771073761218947000,2.794947021484375,0.08775109052658081,-0.07057371735572815,0.015180006623268127
1771073761228887000,2.804886962890625,0.09840372949838638,-0.07590003311634064,0.0002663159102667123
1771073761238826800,2.81482666015625,0.09840372949838638,-0.08335687965154648,-0.02210422046482563
1771073761248766700,2.8247666015625,0.08135951310396194,-0.08868319541215897,-0.04660528525710106
1771073761258706700,2.834706787109375,0.05259739235043526,-0.08016108721494675,-0.06151897460222244
1771073761268646700,2.844646728515625,0.017443692311644554,-0.06311687082052231,-0.06258423626422882
1771073761278586400,2.85458642578125,-0.013448953628540039,-0.04181159660220146,-0.05725792050361633
1771073761288526300,2.8645263671875,-0.030493171885609627,-0.020506324246525764,-0.04234423115849495
1771073761298466300,2.87446630859375,-0.03262370079755783,0.0007989477599039674,-0.016777902841567993
1771073761308406000,2.884406005859375,-0.02516685426235199,0.021038956940174103,0.017310533672571182
1771073761318346000,2.894345947265625,-0.009187898598611355,0.030626330524683,0.04181159660220146
1771073761328286000,2.904285888671875,0.016378428786993027,0.03808317333459854,0.056725289672613144
1771073761338226000,2.914225830078125,0.04407528415322304,0.03808317333459854,0.05992107838392258
1771073761348165600,2.92416552734375,0.06644582003355026,0.024234747514128685,0.056725289672613144
1771073761358105600,2.934105712890625,0.07816372066736221,0.00612526573240757,0.05139897018671036
1771073761368045600,2.944045654296875,0.07496792823076248,-0.006657897960394621,0.05033370852470398
1771073761377985300,2.9539853515625,0.06218476593494415,-0.00985368900001049,0.052464235574007034
1771073761387925200,2.96392529296875,0.04301001876592636,-0.004527370445430279,0.05779055133461952
1771073761397865200,2.973865234375,0.0270310640335083,0.003994738683104515,0.06418213248252869
1771073761407805200,2.98380517578125,0.01318263728171587,-0.0023968431632965803,0.05779055133461952
1771073761417745000,2.993744873046875,0.007856319658458233,-0.013049479573965073,0.04394212365150452
1771073761427684900,3.003684814453125,0.00892158318310976,-0.02583264373242855,0.03328948840498924
1771073761437624800,3.013624755859375,0.009986846707761288,-0.03328948840498924,0.027963170781731606
1771073761447564500,3.023564453125,0.005725792143493891,-0.03861580789089203,0.026897907257080078
1771073761457504500,3.03350439453125,0.001464737462811172,-0.03435475379228592,0.023702116683125496
1771073761467444500,3.043444580078125,0.0003994738799519837,-0.020506324246525764,0.01837579719722271
1771073761477384400,3.053384521484375,0.00892158318310976,-0.011984216049313545,0.011984216049313545
1771073761487324200,3.06332421875,0.021704746410250664,-0.011984216049313545,0.001331579522229731
1771073761497264000,3.07326416015625,0.03555317223072052,-0.011984216049313545,-0.007190529722720385
1771073761507204000,3.0832041015625,0.04194475710391998,-0.0002663159102667123,-0.015712639316916466
1771073761517144000,3.09314404296875,0.040879491716623306,0.013582111336290836,-0.02210422046482563
1771073761527083800,3.103083740234375,0.0366184376180172,0.015712639316916466,-0.02210422046482563
1771073761537023700,3.113023681640625,0.033422645181417465,0.010386320762336254,-0.013582111336290836
1771073761546963700,3.122963623046875,0.03235738351941109,-0.0002663159102667123,0.0002663159102667123
1771073761556903400,3.1329033203125,0.029161592945456505,-0.015180006623268127,0.00985368900001049
1771073761566843400,3.142843505859375,0.02383527345955372,-0.029028434306383133,0.013049479573965073
1771073761576783400,3.152783447265625,0.020639482885599136,-0.026897907257080078,0.0141147430986166
1771073761586723300,3.162723388671875,0.02277000993490219,-0.02157158963382244,0.008788425475358963
1771073761596663000,3.1726630859375,0.025965800508856773,-0.008788425475358963,0.0002663159102667123
1771073761606603000,3.18260302734375,0.030226856470108032,0.009321057237684727,-0.007190529722720385
1771073761616543000,3.19254296875,0.03129211813211441,0.016777902841567993,-0.012516847811639309
1771073761626482700,3.202482666015625,0.03129211813211441,0.021038956940174103,-0.011451584286987782
1771073761636422700,3.212422607421875,0.033422645181417465,0.028495801612734795,-0.0050600022077560425
1771073761646362600,3.222362548828125,0.03555317223072052,0.027430538088083267,0.006657897960394621
1771073761656302600,3.232302490234375,0.0366184376180172,0.019973693415522575,0.01837579719722271
1771073761666242300,3.2422421875,0.03768370300531387,0.0050600022077560425,0.02583264373242855
1771073761676182300,3.252182373046875,0.03768370300531387,-0.004527370445430279,0.029028434306383133
1771073761686122200,3.262122314453125,0.0366184376180172,-0.011984216049313545,0.031158961355686188
1771073761696062000,3.27206201171875,0.03555317223072052,-0.00985368900001049,0.031158961355686188
1771073761706002000,3.282001953125,0.03448791056871414,0.0050600022077560425,0.031158961355686188
1771073761715942000,3.29194189453125,0.03235738351941109,0.016777902841567993,0.026897907257080078
1771073761725881900,3.3018818359375,0.028096329420804977,0.013582111336290836,0.017310533672571182
1771073761735821600,3.311821533203125,0.021704746410250664,0.00612526573240757,-0.0018642114009708166
1771073761745761500,3.321761474609375,0.01957421936094761,0.0050600022077560425,-0.01784316636621952
1771073761755701500,3.331701416015625,0.01850895583629608,0.010386320762336254,-0.023169483989477158
1771073761765641200,3.34164111328125,0.01957421936094761,0.012516847811639309,-0.019973693415522575
1771073761775581200,3.351581298828125,0.017443692311644554,0.019973693415522575,-0.00612526573240757
1771073761785521200,3.361521240234375,0.014247900806367397,0.024234747514128685,0.00985368900001049
1771073761795461000,3.371461181640625,0.01318263728171587,0.02636527456343174,0.019441060721874237
1771073761805400800,3.38140087890625,0.016378428786993027,0.015712639316916466,0.016245270147919655
1771073761815340800,3.3913408203125,0.014247900806367397,-0.017310533672571182,0.0034621069207787514
1771073761825280500,3.401280517578125,0.007856319658458233,-0.04394212365150452,-0.012516847811639309
1771073761835220500,3.411220458984375,-0.0006657897611148655,-0.05139897018671036,-0.019973693415522575
1771073761845160200,3.42116015625,-0.010253162123262882,-0.04394212365150452,-0.021038956940174103
1771073761855100200,3.43110009765625,-0.018775271251797676,-0.02263685315847397,-0.016777902841567993
1771073761865040000,3.441039794921875,-0.023036325350403786,0.003994738683104515,-0.010386320762336254
1771073761874979800,3.450979736328125,-0.02197106182575226,0.027430538088083267,-0.008255792781710625
1771073761884919600,3.46091943359375,-0.010253162123262882,0.03914843872189522,-0.007190529722720385
1771073761894859500,3.470859619140625,0.00892158318310976,0.04340949282050133,-0.0007989477599039674
1771073761904799200,3.48079931640625,0.024900536984205246,0.040213704109191895,0.00985368900001049
1771073761914739200,3.4907392578125,0.029161592945456505,0.029561065137386322,0.020506324246525764
1771073761924679000,3.500678955078125,0.02383527345955372,0.013582111336290836,0.024767380207777023
1771073761934619000,3.510618896484375,0.014247900806367397,-0.001331579522229731,0.023702116683125496
1771073761944558600,3.52055859375,0.004660528618842363,-0.020506324246525764,0.016245270147919655
1771073761954498600,3.53049853515625,-0.004926844500005245,-0.026897907257080078,0.005592633970081806
1771073761964438300,3.540438232421875,-0.011318426579236984,-0.008788425475358963,0.0002663159102667123
1771073761974378200,3.550378173828125,-0.018775271251797676,0.009321057237684727,-0.009321057237684727
1771073761984318000,3.56031787109375,-0.023036325350403786,0.02210422046482563,-0.023169483989477158
1771073761994258000,3.5702578125,-0.02090579830110073,0.029561065137386322,-0.04127896577119827
1771073762004197600,3.58019775390625,-0.011318426579236984,0.023169483989477158,-0.056192658841609955
1771073762014137600,3.5901376953125,0.0003994738799519837,0.0050600022077560425,-0.06471476703882217
1771073762024077300,3.600077392578125,0.007856319658458233,-0.011984216049313545,-0.05938844755291939
1771073762034017300,3.610017333984375,0.007856319658458233,-0.010918952524662018,-0.04340949282050133
1771073762043957000,3.61995703125,0.0003994738799519837,-0.0002663159102667123,-0.027430538088083267
1771073762053897000,3.62989697265625,-0.002796316985040903,0.01784316636621952,-0.011451584286987782
1771073762063837000,3.6398369140625,-0.0006657897611148655,0.035952646285295486,0.001331579522229731
1771073762073776600,3.649776611328125,0.004660528618842363,0.040213704109191895,0.008788425475358963
1771073762083716600,3.659716552734375,0.007856319658458233,0.03701791167259216,0.010918952524662018
1771073762093656300,3.66965625,0.006791055668145418,0.02210422046482563,0.008788425475358963
1771073762103596300,3.67959619140625,0.001464737462811172,-0.0002663159102667123,-0.0018642114009708166
1771073762113536000,3.689535888671875,-0.0070573715493083,-0.011984216049313545,-0.01784316636621952
1771073762123476000,3.69947607421875,-0.012383690103888512,-0.008788425475358963,-0.029561065137386322
1771073762133415700,3.709415771484375,-0.01664474420249462,-0.001331579522229731,-0.03808317333459854
1771073762143355600,3.719355712890625,-0.019840534776449203,0.012516847811639309,-0.04127896577119827
1771073762153295400,3.72929541015625,-0.019840534776449203,0.025300011038780212,-0.035952646285295486
1771073762163235300,3.7392353515625,-0.024101590737700462,0.027430538088083267,-0.027430538088083267
1771073762173175000,3.749175048828125,-0.0294279083609581,0.024234747514128685,-0.014647374860942364
1771073762183115000,3.759114990234375,-0.0294279083609581,0.02210422046482563,-0.0018642114009708166
1771073762193054700,3.7690546875,-0.027297381311655045,0.015712639316916466,0.010918952524662018
1771073762202994700,3.77899462890625,-0.02197106182575226,0.003994738683104515,0.019441060721874237
1771073762212934400,3.788934326171875,-0.01771000772714615,-0.0002663159102667123,0.023702116683125496
1771073762222874400,3.798874267578125,-0.013448953628540039,0.00612526573240757,0.02263685315847397
1771073762232814300,3.808814453125,-0.010253162123262882,0.011451584286987782,0.017310533672571182
1771073762242754000,3.818754150390625,-0.009187898598611355,0.016777902841567993,0.011984216049313545
1771073762252694000,3.828694091796875,-0.011318426579236984,0.023169483989477158,0.010918952524662018
1771073762262634000,3.838634033203125,-0.01664474420249462,0.023169483989477158,0.008788425475358963
1771073762272574000,3.848573974609375,-0.02090579830110073,0.016777902841567993,0.008788425475358963
1771073762282513700,3.858513671875,-0.018775271251797676,0.013582111336290836,0.00985368900001049
1771073762292453600,3.86845361328125,-0.014514217153191566,0.003994738683104515,0.011984216049313545
1771073762302393600,3.8783935546875,-0.014514217153191566,-0.008788425475358963,0.00985368900001049
1771073762312333300,3.888333251953125,-0.01664474420249462,-0.005592633970081806,0.008788425475358963
1771073762322273300,3.898273193359375,-0.02197106182575226,0.003994738683104515,0.007723161485046148
1771073762332213200,3.908213134765625,-0.02516685426235199,0.013582111336290836,0.006657897960394621
1771073762342153200,3.9181533203125,-0.026232117787003517,0.021038956940174103,0.007723161485046148
1771073762352093000,3.928093017578125,-0.02090579830110073,0.027430538088083267,0.00985368900001049
1771073762362033000,3.938032958984375,-0.011318426579236984,0.028495801612734795,0.00985368900001049
1771073762371972900,3.947972900390625,-0.002796316985040903,0.02210422046482563,0.008788425475358963
1771073762381912600,3.95791259765625,-0.005992108024656773,0.00612526573240757,0.001331579522229731
1771073762391852500,3.9678525390625,-0.02090579830110073,-0.017310533672571182,-0.009321057237684727
1771073762401792500,3.97779248046875,-0.04114580899477005,-0.03755054250359535,-0.021038956940174103
1771073762411732500,3.987732421875,-0.056059498339891434,-0.03861580789089203,-0.03169159218668938
1771073762421672200,3.997672119140625,-0.06138581782579422,-0.029028434306383133,-0.03488738462328911
1771073762431612200,4.007612060546875,-0.05819002538919449,-0.00985368900001049,-0.03169159218668938
1771073762441552100,4.01755224609375,-0.050733182579278946,0.009321057237684727,-0.024234747514128685
1771073762451491800,4.027491943359375,-0.039015281945466995,0.023169483989477158,-0.015712639316916466
1771073762461431800,4.037431884765625,-0.024101590737700462,0.03488738462328911,-0.0050600022077560425
1771073762471371800,4.047371826171875,-0.010253162123262882,0.02636527456343174,0.007723161485046148
1771073762481311700,4.057311767578125,-0.004926844500005245,0.010386320762336254,0.017310533672571182
1771073762491251500,4.06725146484375,-0.003861580742523074,-0.004527370445430279,0.02583264373242855
1771073762501191400,4.07719140625,-0.0070573715493083,-0.011984216049313545,0.032224226742982864
1771073762511131400,4.08713134765625,-0.014514217153191566,-0.015180006623268127,0.03328948840498924
1771073762521071000,4.097071044921875,-0.023036325350403786,-0.015180006623268127,0.02583264373242855
1771073762531011000,4.107010986328125,-0.0294279083609581,-0.007723161485046148,0.00985368900001049
1771073762540951000,4.116950927734375,-0.0294279083609581,0.0050600022077560425,-0.00612526573240757
1771073762550891000,4.12689111328125,-0.02516685426235199,0.012516847811639309,-0.014647374860942364
1771073762560830700,4.136830810546875,-0.02197106182575226,0.00612526573240757,-0.019973693415522575
1771073762570770700,4.146770751953125,-0.02197106182575226,-0.008788425475358963,-0.01784316636621952
1771073762580710700,4.156710693359375,-0.023036325350403786,-0.023702116683125496,-0.010386320762336254
1771073762590650600,4.166650634765625,-0.026232117787003517,-0.03328948840498924,-0.003994738683104515
1771073762600590300,4.17659033203125,-0.027297381311655045,-0.029028434306383133,-0.0007989477599039674
1771073762610530300,4.1865302734375,-0.02197106182575226,-0.015180006623268127,-0.0018642114009708166
1771073762620470300,4.19647021484375,-0.014514217153191566,-0.0023968431632965803,-0.008255792781710625
1771073762630410000,4.206409912109375,-0.005992108024656773,0.009321057237684727,-0.012516847811639309
1771073762640350000,4.216349853515625,0.0025300011038780212,0.019973693415522575,-0.009321057237684727
1771073762650290000,4.2262900390625,0.006791055668145418,0.014647374860942364,-0.0007989477599039674
1771073762660230000,4.23622998046875,0.006791055668145418,-0.0023968431632965803,0.011984216049313545
1771073762670169600,4.246169677734375,0.0035952648613601923,-0.016245270147919655,0.02583264373242855
1771073762680109600,4.256109619140625,-0.003861580742523074,-0.027963170781731606,0.026897907257080078
1771073762690049500,4.266049560546875,-0.010253162123262882,-0.029028434306383133,0.015180006623268127
1771073762699989200,4.2759892578125,-0.0070573715493083,-0.019441060721874237,-0.0018642114009708166
1771073762709929200,4.28592919921875,-0.002796316985040903,-0.011984216049313545,-0.021038956940174103
1771073762719869200,4.295869140625,-0.003861580742523074,-0.005592633970081806,-0.035952646285295486
1771073762729809200,4.30580908203125,-0.0070573715493083,0.010386320762336254,-0.04234423115849495
1771073762739748900,4.315748779296875,-0.011318426579236984,0.023169483989477158,-0.03488738462328911
1771073762749688800,4.325688720703125,-0.010253162123262882,0.024234747514128685,-0.021038956940174103
1771073762759628800,4.33562890625,-0.005992108024656773,0.018908429890871048,-0.0018642114009708166
1771073762769568500,4.345568603515625,-0.0006657897611148655,0.008255792781710625,0.01837579719722271
1771073762779508500,4.355508544921875,0.001464737462811172,-0.00985368900001049,0.03009369783103466
1771073762789448400,4.365448486328125,-0.0006657897611148655,-0.024767380207777023,0.032224226742982864
1771073762799388400,4.375388427734375,-0.0006657897611148655,-0.01837579719722271,0.024767380207777023
1771073762809328000,4.385328125,0.0003994738799519837,0.003994738683104515,0.013049479573965073
1771073762819268000,4.39526806640625,-0.0006657897611148655,0.03275685757398605,-0.0007989477599039674
1771073762829207800,4.405207763671875,-0.005992108024656773,0.05299686640501022,-0.013582111336290836
1771073762839147800,4.415147705078125,0.004660528618842363,0.0774979293346405,-0.02636527456343174
1771073762849087500,4.42508740234375,0.029161592945456505,0.09986846894025803,-0.027430538088083267
1771073762859027500,4.43502734375,0.05259739235043526,0.1009337306022644,-0.03169159218668938
1771073762868967200,4.44496728515625,0.06644582003355026,0.0774979293346405,-0.04127896577119827
1771073762878907100,4.4549072265625,0.06964161247015,0.048735812306404114,-0.05938844755291939
1771073762888846800,4.464846923828125,0.06431528925895691,0.016777902841567993,-0.0774979293346405
1771073762898786800,4.474786865234375,0.05685844644904137,-0.019441060721874237,-0.08921582996845245
1771073762908726500,4.4847265625,0.05153212696313858,-0.0492684431374073,-0.08815056830644608
1771073762918666500,4.49466650390625,0.05153212696313858,-0.06524740159511566,-0.07430213689804077
1771073762928606200,4.504606201171875,0.05898897349834442,-0.06311687082052231,-0.056192658841609955
1771073762938546200,4.514546142578125,0.0739026665687561,-0.04181159660220146,-0.03169159218668938
1771073762948486100,4.524486083984375,0.09520793706178665,-0.017310533672571182,-0.003994738683104515
1771073762958425900,4.53442578125,0.11225215345621109,-0.008788425475358963,0.01837579719722271
1771073762968365800,4.54436572265625,0.11757847666740417,-0.011984216049313545,0.03009369783103466
1771073762978305500,4.554305419921875,0.11225215345621109,-0.011984216049313545,0.03328948840498924
1771073762988245500,4.56424560546875,0.09840372949838638,-0.00985368900001049,0.03328948840498924
1771073762998185200,4.574185302734375,0.07922898232936859,-0.00985368900001049,0.036485280841588974
1771073763008125200,4.584125244140625,0.05898897349834442,-0.005592633970081806,0.03968106955289841
1771073763018065000,4.59406494140625,0.033422645181417465,0.00612526573240757,0.04394212365150452
1771073763028004900,4.6040048828125,0.009986846707761288,0.023169483989477158,0.03755054250359535
1771073763037944600,4.613944580078125,-0.003861580742523074,0.04554001986980438,0.026897907257080078
1771073763047884500,4.623884521484375,-0.0070573715493083,0.06471476703882217,0.01837579719722271
1771073763057824300,4.63382421875,-0.005992108024656773,0.06897582113742828,0.00985368900001049
1771073763067764200,4.64376416015625,-0.002796316985040903,0.0679105594754219,0.006657897960394621
1771073763077704000,4.653703857421875,0.001464737462811172,0.0636495053768158,0.008788425475358963
1771073763087644000,4.663643798828125,0.005725792143493891,0.05938844755291939,0.015180006623268127
1771073763097583600,4.67358349609375,0.012117373757064342,0.05938844755291939,0.02583264373242855
1771073763107523600,4.683523681640625,0.017443692311644554,0.060453712940216064,0.03861580789089203
1771073763117463300,4.69346337890625,0.0153131652623415,0.04660528525710106,0.048203181475400925
1771073763127403300,4.7034033203125,0.004660528618842363,0.01784316636621952,0.0492684431374073
1771073763137343000,4.713343017578125,-0.01664474420249462,-0.027963170781731606,0.032224226742982864
1771073763147283000,4.723282958984375,-0.04221107065677643,-0.05459476262331009,-0.0007989477599039674
1771073763157222700,4.73322265625,-0.06138581782579422,-0.05459476262331009,-0.040213704109191895
1771073763167162600,4.74316259765625,-0.07310371845960617,-0.04500738903880119,-0.07217161357402802
1771073763177102300,4.753102294921875,-0.0762995108962059,-0.031158961355686188,-0.0913463607430458
1771073763187042300,4.763042236328125,-0.07736477255821228,-0.005592633970081806,-0.09560741484165192
1771073763196982000,4.77298193359375,-0.0762995108962059,0.011451584286987782,-0.09454214572906494
1771073763206922000,4.782921875,-0.06884266436100006,0.014647374860942364,-0.09454214572906494
1771073763216861700,4.79286181640625,-0.05392897129058838,0.0018642114009708166,-0.09454214572906494
1771073763226801700,4.8028017578125,-0.035819489508867264,-0.00985368900001049,-0.09241162240505219
1771073763236741600,4.81274169921875,-0.024101590737700462,-0.016245270147919655,-0.08388951420783997
1771073763246681300,4.822681396484375,-0.019840534776449203,-0.0141147430986166,-0.07004108279943466
1771073763256621300,4.832621337890625,-0.024101590737700462,-0.001331579522229731,-0.05193160101771355
1771073763266561300,4.842561279296875,-0.0294279083609581,0.011451584286987782,-0.030626330524683
1771073763276501200,4.852501220703125,-0.0294279083609581,0.011451584286987782,-0.013582111336290836
1771073763286441000,4.86244091796875,-0.02197106182575226,0.007190529722720385,0.0002663159102667123
1771073763306321000,4.88232080078125,0.0035952648613601923,-0.006657897960394621,0.02157158963382244
1771073763316260600,4.892260498046875,0.009986846707761288,-0.02157158963382244,0.024767380207777023
1771073763326200600,4.90220068359375,0.01318263728171587,-0.024767380207777023,0.031158961355686188
1771073763336140500,4.912140625,0.014247900806367397,-0.017310533672571182,0.04181159660220146
1771073763346080500,4.92208056640625,0.009986846707761288,-0.0141147430986166,0.04500738903880119
1771073763356020200,4.932020263671875,0.007856319658458233,-0.007723161485046148,0.04500738903880119
1771073763365960200,4.941960205078125,0.006791055668145418,0.002929474925622344,0.04500738903880119
1771073763375900200,4.951900146484375,0.005725792143493891,0.010386320762336254,0.04287686198949814
1771073763385839900,4.96183984375,0.004660528618842363,0.01784316636621952,0.04181159660220146
1771073763395779800,4.97177978515625,0.004660528618842363,0.028495801612734795,0.04181159660220146
1771073763405719800,4.9817197265625,0.001464737462811172,0.04340949282050133,0.03861580789089203
1771073763415659800,4.99165966796875,-0.003861580742523074,0.05193160101771355,0.03435475379228592
1771073763425599500,5.001599609375,-0.013448953628540039,0.04980107396841049,0.02157158963382244
1771073763435539500,5.01153955078125,-0.02197106182575226,0.03914843872189522,0.0034621069207787514
1771073763445479400,5.0214794921875,-0.027297381311655045,0.025300011038780212,-0.011451584286987782
1771073763455419100,5.031419189453125,-0.024101590737700462,0.009321057237684727,-0.021038956940174103
1771073763465359000,5.041359130859375,-0.012383690103888512,-0.001331579522229731,-0.021038956940174103
1771073763475299000,5.051299072265625,0.001464737462811172,-0.005592633970081806,-0.011451584286987782
1771073763485239000,5.061239013671875,0.014247900806367397,-0.0034621069207787514,0.008788425475358963
1771073763495178800,5.0711787109375,0.02277000993490219,0.0050600022077560425,0.032224226742982864
1771073763505118700,5.08111865234375,0.025965800508856773,0.023169483989477158,0.05459476262331009
1771073763515058700,5.09105859375,0.028096329420804977,0.04340949282050133,0.07483477145433426
1771073763524998400,5.100998291015625,0.033422645181417465,0.05299686640501022,0.08974846452474594
1771073763534938400,5.1109384765625,0.03981423005461693,0.04127896577119827,0.09614004194736481
1771073763544878300,5.12087841796875,0.04194475710391998,0.014647374860942364,0.09507478028535843
1771073763554818300,5.130818359375,0.03981423005461693,-0.011984216049313545,0.08335687965154648
1771073763564758000,5.140758056640625,0.030226856470108032,-0.029028434306383133,0.05779055133461952
1771073763574698000,5.150697998046875,0.016378428786993027,-0.0354200154542923,0.019441060721874237
1771073763584638000,5.160637939453125,-0.0006657897611148655,-0.029028434306383133,-0.019973693415522575
1771073763594577700,5.17057763671875,-0.01771000772714615,-0.02263685315847397,-0.04980107396841049
1771073763604517600,5.180517578125,-0.031558435410261154,-0.01837579719722271,-0.06897582113742828
1771073763614457600,5.19045751953125,-0.04114580899477005,-0.02263685315847397,-0.07430213689804077
1771073763624397600,5.2003974609375,-0.04434159770607948,-0.032224226742982864,-0.0679105594754219
1771073763644277200,5.22027734375,-0.04008054360747337,-0.017310533672571182,-0.021038956940174103
1771073763654217200,5.23021728515625,-0.039015281945466995,-0.0002663159102667123,0.015180006623268127
1771073763664157200,5.2401572265625,-0.03795001655817032,0.010386320762336254,0.0492684431374073
1771073763674097000,5.250096923828125,-0.039015281945466995,0.016777902841567993,0.07376950979232788
1771073763684036900,5.260036865234375,-0.04221107065677643,0.014647374860942364,0.08016108721494675
1771073763693976800,5.269976806640625,-0.04114580899477005,0.008255792781710625,0.07057371735572815
1771073763703916500,5.27991650390625,-0.03688475489616394,0.0007989477599039674,0.05459476262331009
1771073763713856500,5.2898564453125,-0.03795001655817032,-0.006657897960394621,0.03328948840498924
1771073763723796500,5.29979638671875,-0.04434159770607948,-0.01837579719722271,0.011984216049313545
1771073763733736400,5.309736328125,-0.052863709628582,-0.031158961355686188,0.0002663159102667123
1771073763743676200,5.31967626953125,-0.059255290776491165,-0.04287686198949814,-0.007190529722720385
1771073763753616100,5.3296162109375,-0.0624510794878006,-0.05139897018671036,-0.015712639316916466
1771073763763556000,5.33955615234375,-0.059255290776491165,-0.05352949723601341,-0.027430538088083267
1771073763773495800,5.349495849609375,-0.050733182579278946,-0.04713791608810425,-0.03808317333459854
1771073763783435800,5.359435791015625,-0.04221107065677643,-0.05033370852470398,-0.04980107396841049
1771073763793375700,5.369375732421875,-0.03262370079755783,-0.056725289672613144,-0.06258423626422882
1771073763803315700,5.379315673828125,-0.01664474420249462,-0.056725289672613144,-0.06578002870082855
1771073763813255400,5.38925537109375,0.0035952648613601923,-0.04500738903880119,-0.056192658841609955
1771073763823195400,5.3991953125,0.020639482885599136,-0.024767380207777023,-0.03808317333459854
1771073763833135400,5.40913525390625,0.0366184376180172,0.0007989477599039674,-0.009321057237684727
1771073763843075000,5.419074951171875,0.04620581120252609,0.015712639316916466,0.02157158963382244
1771073763853015000,5.42901513671875,0.049401599913835526,0.012516847811639309,0.040746334940195084
1771073763862954800,5.438954833984375,0.04620581120252609,0.0050600022077560425,0.052464235574007034
1771073763872894700,5.448894775390625,0.04194475710391998,0.003994738683104515,0.056725289672613144
1771073763882834400,5.45883447265625,0.03129211813211441,0.009321057237684727,0.05139897018671036
1771073763892774400,5.4687744140625,0.01957421936094761,0.019973693415522575,0.03755054250359535
1771073763902714000,5.478714111328125,0.00892158318310976,0.03382211923599243,0.017310533672571182
1771073763912654000,5.488654052734375,-0.0017310534603893757,0.03701791167259216,-0.00612526573240757
1771073763922593800,5.49859375,-0.012383690103888512,0.03169159218668938,-0.03169159218668938
1771073763932534000,5.508533935546875,-0.026232117787003517,0.021038956940174103,-0.05832318589091301
1771073763942474000,5.518473876953125,-0.04008054360747337,0.01784316636621952,-0.07962846010923386
1771073763952413700,5.52841357421875,-0.054994236677885056,0.023169483989477158,-0.09347688406705856
1771073763962353700,5.538353759765625,-0.06458161026239395,0.029561065137386322,-0.09347688406705856
1771073763972293400,5.54829345703125,-0.06884266436100006,0.03382211923599243,-0.08282424509525299
1771073763982233300,5.5582333984375,-0.06138581782579422,0.04234423115849495,-0.0679105594754219
1771073763992173000,5.568173095703125,-0.04540686309337616,0.048735812306404114,-0.048735812306404114
1771073764002113000,5.578113037109375,-0.0294279083609581,0.044474758207798004,-0.03382211923599243
1771073764012052700,5.588052734375,-0.018775271251797676,0.03275685757398605,-0.02636527456343174
1771073764021992700,5.59799267578125,-0.013448953628540039,0.023169483989477158,-0.021038956940174103
1771073764031932400,5.607932373046875,-0.013448953628540039,0.015712639316916466,-0.016777902841567993
1771073764041872400,5.617872314453125,-0.01664474420249462,0.007190529722720385,-0.012516847811639309
1771073764051812000,5.62781201171875,-0.02197106182575226,0.0018642114009708166,-0.00612526573240757
1771073764061752000,5.637751953125,-0.024101590737700462,0.00612526573240757,0.001331579522229731
1771073764071691800,5.64769189453125,-0.023036325350403786,0.01784316636621952,0.008788425475358963
1771073764081631700,5.6576318359375,-0.02090579830110073,0.023169483989477158,0.00985368900001049
1771073764091571500,5.667571533203125,-0.015579480677843094,0.028495801612734795,0.00985368900001049
1771073764101511400,5.677511474609375,-0.008122635073959827,0.030626330524683,0.008788425475358963
1771073764111451100,5.687451171875,-0.002796316985040903,0.028495801612734795,0.008788425475358963
1771073764121391000,5.69739111328125,-0.0017310534603893757,0.014647374860942364,0.006657897960394621
1771073764131330800,5.707330810546875,-0.0017310534603893757,0.0018642114009708166,0.0002663159102667123
1771073764141270800,5.717270751953125,-0.0017310534603893757,-0.0023968431632965803,-0.003994738683104515
1771073764151210500,5.72721044921875,-0.0017310534603893757,-0.001331579522229731,-0.0018642114009708166
1771073764161150500,5.737150390625,-0.003861580742523074,0.0018642114009708166,-0.0007989477599039674
1771073764171090200,5.747090087890625,-0.0070573715493083,-0.001331579522229731,0.0002663159102667123
1771073764181030100,5.757030029296875,-0.009187898598611355,-0.004527370445430279,-0.0050600022077560425
1771073764190969900,5.766969970703125,-0.012383690103888512,-0.005592633970081806,-0.013582111336290836
1771073764200909800,5.776909912109375,-0.014514217153191566,-0.007723161485046148,-0.018908429890871048
1771073764210849800,5.786849853515625,-0.019840534776449203,-0.008788425475358963,-0.025300011038780212
1771073764220789500,5.79678955078125,-0.02516685426235199,-0.0034621069207787514,-0.024234747514128685
1771073764230729500,5.8067294921875,-0.027297381311655045,0.012516847811639309,-0.021038956940174103
1771073764240669200,5.816669189453125,-0.02090579830110073,0.018908429890871048,-0.02210422046482563
1771073764250609200,5.826609130859375,-0.011318426579236984,0.010386320762336254,-0.027430538088083267
1771073764260548900,5.836548828125,-0.0070573715493083,-0.011984216049313545,-0.04234423115849495
1771073764270488800,5.84648876953125,-0.012383690103888512,-0.03328948840498924,-0.06258423626422882
1771073764280428500,5.856428466796875,-0.02197106182575226,-0.040746334940195084,-0.07643266767263412
1771073764290368500,5.866368408203125,-0.031558435410261154,-0.04287686198949814,-0.08175898343324661
1771073764300308200,5.87630810546875,-0.04008054360747337,-0.03861580789089203,-0.07536740601062775
1771073764310248200,5.886248291015625,-0.03688475489616394,-0.020506324246525764,-0.060453712940216064
1771073764320188000,5.89618798828125,-0.026232117787003517,-0.004527370445430279,-0.03914843872189522
1771073764330128000,5.9061279296875,-0.0070573715493083,0.002929474925622344,-0.015712639316916466
1771073764340067600,5.916067626953125,0.00892158318310976,0.012516847811639309,0.007723161485046148
1771073764350007600,5.926007568359375,0.016378428786993027,0.019973693415522575,0.023702116683125496
1771073764359947300,5.935947265625,0.017443692311644554,0.016777902841567993,0.03009369783103466
1771073764369887200,5.94588720703125,0.02277000993490219,0.014647374860942364,0.031158961355686188
1771073764379827200,5.9558271484375,0.03129211813211441,0.008255792781710625,0.032224226742982864
1771073764389767000,5.965766845703125,0.0366184376180172,-0.010918952524662018,0.024767380207777023
1771073764399707000,5.975706787109375,0.03874896466732025,-0.024767380207777023,0.0141147430986166
1771073764409646800,5.985646728515625,0.03874896466732025,-0.02263685315847397,0.006657897960394621
1771073764419586800,5.9955869140625,0.03448791056871414,-0.016245270147919655,-0.003994738683104515
1771073764429526500,6.005526611328125,0.030226856470108032,-0.004527370445430279,-0.012516847811639309
1771073764439466500,6.015466552734375,0.024900536984205246,0.00612526573240757,-0.02210422046482563
1771073764449406500,6.025406494140625,0.01957421936094761,0.003994738683104515,-0.03382211923599243
1771073764459346200,6.03534619140625,0.017443692311644554,-0.005592633970081806,-0.04340949282050133
1771073764469286100,6.0452861328125,0.021704746410250664,-0.015180006623268127,-0.04554001986980438
1771073764479226000,6.05522607421875,0.029161592945456505,-0.023702116683125496,-0.04127896577119827
1771073764489166000,6.065166015625,0.033422645181417465,-0.03009369783103466,-0.030626330524683
1771073764499105800,6.075105712890625,0.033422645181417465,-0.03328948840498924,-0.01784316636621952
1771073764509045800,6.085045654296875,0.029161592945456505,-0.03009369783103466,-0.008255792781710625
1771073764518985700,6.09498583984375,0.030226856470108032,-0.020506324246525764,-0.0018642114009708166
1771073764528925400,6.104925537109375,0.03555317223072052,-0.0023968431632965803,0.0023968431632965803
1771073764538865400,6.114865478515625,0.04407528415322304,0.013582111336290836,0.007723161485046148
1771073764548805400,6.124805419921875,0.049401599913835526,0.019973693415522575,0.0141147430986166
1771073764558745300,6.134745361328125,0.049401599913835526,0.02210422046482563,0.016245270147919655
1771073764568685000,6.14468505859375,0.04301001876592636,0.018908429890871048,0.016245270147919655
1771073764578625000,6.154625,0.03555317223072052,0.015712639316916466,0.013049479573965073
1771073764588565000,6.16456494140625,0.030226856470108032,0.011451584286987782,0.005592633970081806
1771073764598504700,6.174504638671875,0.025965800508856773,0.00612526573240757,-0.002929474925622344
1771073764608444700,6.184444580078125,0.025965800508856773,0.008255792781710625,-0.003994738683104515
1771073764618384600,6.194384521484375,0.024900536984205246,0.009321057237684727,0.001331579522229731
1771073764628324600,6.20432470703125,0.01850895583629608,-0.0002663159102667123,0.005592633970081806
1771073764638264300,6.214264404296875,0.014247900806367397,-0.00985368900001049,0.0034621069207787514
1771073764648204300,6.224204345703125,0.014247900806367397,-0.007723161485046148,0.0002663159102667123
1771073764658144300,6.234144287109375,0.016378428786993027,-0.004527370445430279,-0.00612526573240757
1771073764668084000,6.244083984375,0.01957421936094761,0.0018642114009708166,-0.013582111336290836
1771073764678024000,6.25402392578125,0.02383527345955372,0.012516847811639309,-0.010386320762336254
1771073764687964000,6.2639638671875,0.029161592945456505,0.027430538088083267,-0.002929474925622344
1771073764697903900,6.27390380859375,0.03235738351941109,0.03701791167259216,0.006657897960394621
1771073764707843600,6.283843505859375,0.03555317223072052,0.03701791167259216,0.019441060721874237
1771073764717783600,6.293783447265625,0.03555317223072052,0.019973693415522575,0.02583264373242855
1771073764727723500,6.3037236328125,0.03448791056871414,-0.0034621069207787514,0.026897907257080078
1771073764737663500,6.31366357421875,0.033422645181417465,-0.02157158963382244,0.020506324246525764
1771073764747603200,6.323603271484375,0.03129211813211441,-0.03009369783103466,0.007723161485046148
1771073764757543200,6.333543212890625,0.028096329420804977,-0.023702116683125496,-0.011451584286987782
1771073764767483100,6.343483154296875,0.028096329420804977,-0.0034621069207787514,-0.025300011038780212
1771073764777422800,6.3534228515625,0.03235738351941109,0.018908429890871048,-0.030626330524683
1771073764787362800,6.36336279296875,0.03448791056871414,0.03382211923599243,-0.025300011038780212
1771073764797302800,6.373302734375,0.0366184376180172,0.03169159218668938,-0.013582111336290836
1771073764807242800,6.38324267578125,0.0366184376180172,0.021038956940174103,0.0023968431632965803
1771073764817182500,6.393182373046875,0.03555317223072052,0.00612526573240757,0.01837579719722271
1771073764827122400,6.403122314453125,0.029161592945456505,-0.0141147430986166,0.02583264373242855
1771073764837062400,6.4130625,0.02383527345955372,-0.026897907257080078,0.024767380207777023
1771073764847002000,6.423002197265625,0.01957421936094761,-0.02157158963382244,0.020506324246525764
1771073764856942000,6.432942138671875,0.017443692311644554,-0.00985368900001049,0.010918952524662018
1771073764866882000,6.442882080078125,0.014247900806367397,0.0007989477599039674,0.0002663159102667123
1771073764876822000,6.452822021484375,0.006791055668145418,0.003994738683104515,-0.010386320762336254
1771073764886761700,6.46276171875,-0.0006657897611148655,0.002929474925622344,-0.015712639316916466
1771073764896701700,6.47270166015625,-0.0070573715493083,-0.007723161485046148,-0.015712639316916466
1771073764906641700,6.4826416015625,-0.013448953628540039,-0.02263685315847397,-0.01784316636621952
1771073764916581400,6.492581298828125,-0.01771000772714615,-0.023702116683125496,-0.019973693415522575
1771073764926521300,6.502521240234375,-0.018775271251797676,-0.005592633970081806,-0.012516847811639309
1771073764936461300,6.51246142578125,-0.02090579830110073,0.012516847811639309,-0.00612526573240757
1771073764946401300,6.5224013671875,-0.01771000772714615,0.018908429890871048,-0.0007989477599039674
1771073764956341000,6.532341064453125,-0.011318426579236984,0.018908429890871048,-0.0007989477599039674
1771073764966281000,6.542281005859375,-0.0070573715493083,0.014647374860942364,-0.007190529722720385
1771073764976220700,6.552220703125,-0.004926844500005245,0.011451584286987782,-0.018908429890871048
1771073764986160600,6.56216064453125,-0.004926844500005245,0.015712639316916466,-0.025300011038780212
1771073764996100400,6.572100341796875,-0.009187898598611355,0.02210422046482563,-0.03169159218668938
1771073765006040300,6.582040283203125,-0.01771000772714615,0.03275685757398605,-0.05086633935570717
1771073765015980000,6.59197998046875,-0.018775271251797676,0.0540621280670166,-0.07217161357402802
1771073765025920000,6.601919921875,-0.003861580742523074,0.07536740601062775,-0.0913463607430458
1771073765035859700,6.611859619140625,0.005725792143493891,0.07643266767263412,-0.11478215456008911
1771073765045799700,6.621799560546875,0.0035952648613601923,0.06258423626422882,-0.13608743250370026
1771073765055739400,6.631739501953125,-0.004926844500005245,0.04234423115849495,-0.148870587348938
1771073765065679400,6.641679443359375,-0.014514217153191566,0.023169483989477158,-0.1478053331375122
1771073765075619000,6.651619140625,-0.02197106182575226,0.0007989477599039674,-0.13182637095451355
1771073765085559000,6.66155908203125,-0.023036325350403786,-0.01837579719722271,-0.10199899226427078
1771073765095498800,6.671498779296875,-0.019840534776449203,-0.029028434306383133,-0.05938844755291939
1771073765105438700,6.681438720703125,-0.01664474420249462,-0.03009369783103466,-0.008255792781710625
1771073765115378400,6.69137841796875,-0.010253162123262882,-0.03009369783103466,0.04287686198949814
1771073765125318400,6.701318359375,0.005725792143493891,-0.029028434306383133,0.0918789878487587
1771073765135258000,6.711258056640625,0.021704746410250664,-0.031158961355686188,0.13129374384880066
1771073765145198000,6.721197998046875,0.030226856470108032,-0.032224226742982864,0.1483379602432251
1771073765155137800,6.7311376953125,0.03874896466732025,-0.0354200154542923,0.14514216780662537
1771073765165077800,6.741077880859375,0.0504668653011322,-0.04181159660220146,0.1249021589756012
1771073765175017500,6.751017578125,0.05685844644904137,-0.05033370852470398,0.09614004194736481
1771073765184957400,6.76095751953125,0.05259739235043526,-0.052464235574007034,0.06205160543322563
1771073765194897200,6.770897216796875,0.03768370300531387,-0.048203181475400925,0.03328948840498924
1771073765204837000,6.780837158203125,0.020639482885599136,-0.040746334940195084,0.016245270147919655
1771073765214776800,6.79077685546875,0.005725792143493891,-0.03755054250359535,0.00985368900001049
1771073765224716800,6.800716796875,-0.0017310534603893757,-0.03968106955289841,0.011984216049313545
1771073765234656800,6.81065673828125,-0.0017310534603893757,-0.04394212365150452,0.02157158963382244
1771073765244596500,6.820596435546875,0.0003994738799519837,-0.052464235574007034,0.026897907257080078
1771073765254536400,6.830536376953125,-0.0006657897611148655,-0.07163897901773453,0.026897907257080078
1771073765264476200,6.84047607421875,-0.004926844500005245,-0.07803056389093399,0.01837579719722271
1771073765274416000,6.850416015625,-0.0070573715493083,-0.06737792491912842,0.00985368900001049
1771073765284355800,6.86035595703125,-0.009187898598611355,-0.0492684431374073,0.005592633970081806
1771073765294295800,6.8702958984375,-0.008122635073959827,-0.032224226742982864,0.007723161485046148
1771073765304235500,6.880235595703125,-0.008122635073959827,-0.011984216049313545,0.017310533672571182
1771073765314175500,6.890175537109375,-0.0070573715493083,0.00612526573240757,0.029028434306383133
1771073765324115200,6.900115234375,-0.0017310534603893757,0.014647374860942364,0.03861580789089203
1771073765334055200,6.91005517578125,0.0035952648613601923,0.012516847811639309,0.048203181475400925
1771073765343995000,6.919994873046875,0.005725792143493891,-0.001331579522229731,0.052464235574007034
1771073765353934800,6.929934814453125,0.0003994738799519837,-0.015180006623268127,0.052464235574007034
1771073765363874600,6.93987451171875,-0.004926844500005245,-0.024767380207777023,0.052464235574007034
1771073765373814500,6.949814453125,-0.013448953628540039,-0.0354200154542923,0.04500738903880119
1771073765383754500,6.95975439453125,-0.018775271251797676,-0.03755054250359535,0.031158961355686188
1771073765393694500,6.969694580078125,-0.011318426579236984,-0.024767380207777023,0.016245270147919655
1771073765403634200,6.97963427734375,-0.003861580742523074,-0.013049479573965073,-0.0007989477599039674
1771073765413574100,6.98957421875,-0.012383690103888512,0.0018642114009708166,-0.018908429890871048
1771073765423514000,6.99951416015625,-0.01771000772714615,0.011451584286987782,-0.03169159218668938
1771073765433453800,7.009453857421875,-0.010253162123262882,0.016777902841567993,-0.035952646285295486
1771073765443393800,7.019393798828125,0.0003994738799519837,0.007190529722720385,-0.03808317333459854
1771073765453333800,7.029333740234375,0.0035952648613601923,0.002929474925622344,-0.03169159218668938
1771073765463273700,7.039273681640625,0.006791055668145418,0.011451584286987782,-0.023169483989477158
1771073765473213400,7.04921337890625,0.009986846707761288,0.016777902841567993,-0.009321057237684727
1771073765483153400,7.0591533203125,0.014247900806367397,0.012516847811639309,-0.0018642114009708166
1771073765493093400,7.06909326171875,0.01957421936094761,0.0018642114009708166,-0.0050600022077560425
1771073765503033000,7.079033203125,0.024900536984205246,-0.007723161485046148,-0.011451584286987782
1771073765512973000,7.08897314453125,0.03129211813211441,-0.016245270147919655,-0.015712639316916466
1771073765522913000,7.0989130859375,0.03555317223072052,-0.019441060721874237,-0.015712639316916466
1771073765532853000,7.10885302734375,0.0366184376180172,-0.015180006623268127,-0.010386320762336254
1771073765542792700,7.118792724609375,0.03874896466732025,-0.001331579522229731,0.001331579522229731
1771073765552732700,7.128732666015625,0.03981423005461693,0.007190529722720385,0.01837579719722271
1771073765562672600,7.138672607421875,0.04194475710391998,0.003994738683104515,0.03435475379228592
1771073765572612400,7.1486123046875,0.04407528415322304,-0.008788425475358963,0.05033370852470398
1771073765582552300,7.15855224609375,0.04833633825182915,-0.023702116683125496,0.05992107838392258
1771073765592492300,7.1684921875,0.0504668653011322,-0.03755054250359535,0.05566002428531647
1771073765602432300,7.178432373046875,0.05579318478703499,-0.03968106955289841,0.04713791608810425
1771073765612372000,7.1883720703125,0.05898897349834442,-0.03968106955289841,0.03755054250359535
1771073765622312000,7.19831201171875,0.05792371183633804,-0.03755054250359535,0.029028434306383133
1771073765632252000,7.208251953125,0.05259739235043526,-0.03009369783103466,0.023702116683125496
1771073765642192000,7.21819189453125,0.04407528415322304,-0.026897907257080078,0.020506324246525764
1771073765652131600,7.228131591796875,0.03874896466732025,-0.032224226742982864,0.015180006623268127
1771073765662071600,7.238071533203125,0.033422645181417465,-0.03435475379228592,0.008788425475358963
1771073765672011500,7.248011474609375,0.03235738351941109,-0.02583264373242855,0.004527370445430279
1771073765681951200,7.257951171875,0.030226856470108032,-0.02157158963382244,0.0002663159102667123
1771073765691891200,7.26789111328125,0.028096329420804977,-0.023702116683125496,0.001331579522229731
1771073765701831200,7.2778310546875,0.0270310640335083,-0.023702116683125496,0.006657897960394621
1771073765711771100,7.287771240234375,0.0270310640335083,-0.02583264373242855,0.015180006623268127
1771073765721710800,7.2977109375,0.02383527345955372,-0.031158961355686188,0.017310533672571182
1771073765731650800,7.30765087890625,0.020639482885599136,-0.029028434306383133,0.01837579719722271
1771073765741590800,7.3175908203125,0.0153131652623415,-0.0141147430986166,0.017310533672571182
1771073765751530500,7.327530517578125,0.009986846707761288,-0.0034621069207787514,0.017310533672571182
1771073765761470500,7.337470458984375,0.006791055668145418,-0.0034621069207787514,0.0141147430986166
1771073765771410400,7.347410400390625,0.004660528618842363,-0.0141147430986166,0.0141147430986166
1771073765781350400,7.357350341796875,0.006791055668145418,-0.01837579719722271,0.019441060721874237
1771073765791290000,7.3672900390625,0.011052110232412815,-0.005592633970081806,0.03435475379228592
1771073765801230000,7.37722998046875,0.01318263728171587,0.002929474925622344,0.04713791608810425
1771073765811170000,7.387170166015625,0.0035952648613601923,-0.008788425475358963,0.04181159660220146
1771073765821109800,7.39710986328125,-0.009187898598611355,-0.026897907257080078,0.019441060721874237
1771073765831049700,7.4070498046875,-0.018775271251797676,-0.05033370852470398,-0.012516847811639309
1771073765840989700,7.41698974609375,-0.019840534776449203,-0.05566002428531647,-0.03488738462328911
1771073765850929700,7.4269296875,-0.011318426579236984,-0.0354200154542923,-0.03808317333459854
1771073765860869400,7.436869384765625,-0.008122635073959827,-0.005592633970081806,-0.02210422046482563
1771073765870809300,7.446809326171875,-0.008122635073959827,0.027430538088083267,0.004527370445430279
1771073765880749300,7.456749267578125,-0.004926844500005245,0.048735812306404114,0.029028434306383133
1771073765890689000,7.46668896484375,0.005725792143493891,0.048735812306404114,0.04607265070080757
1771073765900629000,7.47662890625,0.01957421936094761,0.030626330524683,0.05352949723601341
1771073765910569000,7.48656884765625,0.030226856470108032,0.0050600022077560425,0.052464235574007034
1771073765920509000,7.496509033203125,0.03129211813211441,-0.016245270147919655,0.04394212365150452
1771073765930448600,7.50644873046875,0.025965800508856773,-0.032224226742982864,0.03435475379228592
1771073765940388600,7.516388671875,0.01850895583629608,-0.03755054250359535,0.023702116683125496
1771073765950328600,7.52632861328125,0.009986846707761288,-0.03435475379228592,0.0141147430986166
1771073765960268300,7.536268310546875,0.001464737462811172,-0.024767380207777023,0.001331579522229731
1771073765970208300,7.546208251953125,-0.005992108024656773,-0.008788425475358963,-0.009321057237684727
1771073765980148000,7.55614794921875,-0.0070573715493083,0.008255792781710625,-0.01784316636621952
1771073765990088000,7.566087890625,0.0003994738799519837,0.01784316636621952,-0.02210422046482563
1771073766000027600,7.576027587890625,0.011052110232412815,0.01784316636621952,-0.02636527456343174
1771073766009967600,7.585967529296875,0.021704746410250664,0.010386320762336254,-0.027430538088083267
1771073766019907300,7.5959072265625,0.02277000993490219,-0.0002663159102667123,-0.024234747514128685
1771073766029847300,7.605847412109375,0.01850895583629608,-0.007723161485046148,-0.015712639316916466
1771073766039787000,7.615787109375,0.01318263728171587,-0.005592633970081806,-0.002929474925622344
1771073766049727000,7.62572705078125,0.006791055668145418,0.002929474925622344,0.010918952524662018
1771073766059666700,7.635666748046875,0.004660528618842363,0.011451584286987782,0.01837579719722271
1771073766069606700,7.645606689453125,0.005725792143493891,0.013582111336290836,0.015180006623268127
1771073766079546400,7.65554638671875,0.009986846707761288,0.014647374860942364,0.0023968431632965803
1771073766089486300,7.665486328125,0.016378428786993027,0.011451584286987782,-0.010386320762336254
1771073766099426000,7.675426025390625,0.021704746410250664,0.00612526573240757,-0.02210422046482563
1771073766109366000,7.685365966796875,0.021704746410250664,-0.0002663159102667123,-0.023169483989477158
1771073766119305700,7.6953056640625,0.016378428786993027,0.0018642114009708166,-0.012516847811639309
1771073766129245700,7.70524560546875,0.007856319658458233,0.00612526573240757,0.004527370445430279
1771073766139185400,7.715185302734375,0.0003994738799519837,0.007190529722720385,0.02263685315847397
1771073766149125400,7.72512548828125,-0.0017310534603893757,0.009321057237684727,0.036485280841588974
1771073766159065000,7.735065185546875,-0.0006657897611148655,0.00612526573240757,0.04181159660220146
1771073766169005000,7.745005126953125,0.0003994738799519837,-0.0023968431632965803,0.03435475379228592
1771073766178944800,7.75494482421875,0.001464737462811172,-0.0034621069207787514,0.01837579719722271
1771073766188884700,7.764884765625,-0.0006657897611148655,-0.0002663159102667123,-0.0007989477599039674
1771073766198824400,7.774824462890625,-0.004926844500005245,0.002929474925622344,-0.018908429890871048
1771073766208764400,7.784764404296875,-0.011318426579236984,0.007190529722720385,-0.025300011038780212
1771073766218704100,7.7947041015625,-0.01771000772714615,0.015712639316916466,-0.016777902841567993
1771073766228644000,7.80464404296875,-0.02516685426235199,0.02210422046482563,0.0034621069207787514
1771073766238584000,7.814583984375,-0.034754227846860886,0.016777902841567993,0.029028434306383133
1771073766248523800,7.824523681640625,-0.04221107065677643,0.007190529722720385,0.0492684431374073
1771073766258463700,7.834463623046875,-0.047537390142679214,0.0018642114009708166,0.06205160543322563
1771073766268403500,7.844403564453125,-0.050733182579278946,0.0007989477599039674,0.06205160543322563
1771073766278343400,7.854343505859375,-0.052863709628582,0.003994738683104515,0.05459476262331009
1771073766288283100,7.864283203125,-0.052863709628582,0.012516847811639309,0.04713791608810425
1771073766298223000,7.87422314453125,-0.051798444241285324,0.018908429890871048,0.040746334940195084
1771073766308162800,7.884162841796875,-0.04434159770607948,0.021038956940174103,0.03968106955289841
1771073766318102800,7.894102783203125,-0.031558435410261154,0.024234747514128685,0.04181159660220146
1771073766328042500,7.90404248046875,-0.01771000772714615,0.029561065137386322,0.05033370852470398
1771073766337982500,7.913982421875,-0.009187898598611355,0.03382211923599243,0.05566002428531647
1771073766347922200,7.923922119140625,-0.005992108024656773,0.03488738462328911,0.04607265070080757
1771073766357862100,7.933862060546875,-0.0017310534603893757,0.03169159218668938,0.026897907257080078
1771073766367802000,7.943802001953125,0.006791055668145418,0.018908429890871048,0.004527370445430279
1771073766377741800,7.953741943359375,0.016378428786993027,0.0007989477599039674,-0.009321057237684727
1771073766387681800,7.963681884765625,0.020639482885599136,-0.017310533672571182,-0.013582111336290836
1771073766397621800,7.973621826171875,0.020639482885599136,-0.029028434306383133,-0.007190529722720385
1771073766407561500,7.9835615234375,0.01850895583629608,-0.026897907257080078,0.007723161485046148
1771073766417501400,7.99350146484375,0.01850895583629608,-0.02583264373242855,0.020506324246525764
1771073766427441400,8.00344140625,0.020639482885599136,-0.020506324246525764,0.029028434306383133
1771073766437381400,8.01338134765625,0.03129211813211441,-0.0023968431632965803,0.03861580789089203
1771073766447321000,8.023321044921875,0.03981423005461693,0.016777902841567993,0.04287686198949814
1771073766457261000,8.033260986328125,0.04194475710391998,0.029561065137386322,0.04394212365150452
1771073766467201000,8.043200927734375,0.03874896466732025,0.03701791167259216,0.03968106955289841
1771073766477141000,8.05314111328125,0.030226856470108032,0.030626330524683,0.032224226742982864
1771073766487080700,8.063080810546875,0.024900536984205246,0.014647374860942364,0.02583264373242855
1771073766497020700,8.073020751953125,0.01850895583629608,0.003994738683104515,0.02583264373242855
1771073766506960600,8.082960693359375,0.009986846707761288,-0.017310533672571182,0.02263685315847397
1771073766516900400,8.092900390625,-0.002796316985040903,-0.052464235574007034,0.0141147430986166
1771073766526840300,8.10284033203125,-0.02090579830110073,-0.07696529477834702,0.0034621069207787514
1771073766536780300,8.1127802734375,-0.03795001655817032,-0.07803056389093399,0.001331579522229731
1771073766546720300,8.12272021484375,-0.050733182579278946,-0.06311687082052231,0.006657897960394621
1771073766556660000,8.132659912109375,-0.06032055243849754,-0.03861580789089203,0.010918952524662018
1771073766566600000,8.142599853515625,-0.06458161026239395,-0.015180006623268127,0.011984216049313545
1771073766576540000,8.152539794921875,-0.06138581782579422,0.003994738683104515,0.011984216049313545
1771073766586479600,8.162479736328125,-0.052863709628582,0.018908429890871048,0.011984216049313545
1771073766596419600,8.172419677734375,-0.04008054360747337,0.030626330524683,0.019441060721874237
1771073766606359600,8.182359619140625,-0.03262370079755783,0.03808317333459854,0.02583264373242855
1771073766616299500,8.192299560546875,-0.031558435410261154,0.040213704109191895,0.032224226742982864
1771073766626239200,8.2022392578125,-0.03688475489616394,0.035952646285295486,0.03009369783103466
1771073766636179200,8.21217919921875,-0.043276336044073105,0.018908429890871048,0.01837579719722271
1771073766646119200,8.222119140625,-0.04860265180468559,-0.0023968431632965803,0.0023968431632965803
1771073766656059000,8.232058837890625,-0.052863709628582,-0.024767380207777023,-0.01784316636621952
1771073766665998800,8.241998779296875,-0.05392897129058838,-0.0354200154542923,-0.03382211923599243
1771073766675938800,8.251938720703125,-0.051798444241285324,-0.03435475379228592,-0.04127896577119827
1771073766685878800,8.261878662109375,-0.04647212475538254,-0.024767380207777023,-0.04127896577119827
1771073766695818500,8.271818603515625,-0.039015281945466995,-0.016245270147919655,-0.03488738462328911
1771073766705758500,8.281758544921875,-0.030493171885609627,-0.011984216049313545,-0.03382211923599243
1771073766715698400,8.291698486328125,-0.019840534776449203,-0.010918952524662018,-0.03914843872189522
1771073766725638100,8.30163818359375,-0.0070573715493083,-0.020506324246525764,-0.04767054691910744
1771073766735578000,8.311578125,0.0035952648613601923,-0.0354200154542923,-0.05193160101771355
1771073766745518000,8.32151806640625,0.01318263728171587,-0.03861580789089203,-0.04660528525710106
1771073766755458000,8.3314580078125,0.0153131652623415,-0.04181159660220146,-0.035952646285295486
1771073766765397800,8.341397705078125,0.01318263728171587,-0.04713791608810425,-0.021038956940174103
1771073766775337700,8.351337646484374,0.012117373757064342,-0.04500738903880119,-0.002929474925622344
1771073766785277700,8.361277587890624,0.017443692311644554,-0.03435475379228592,0.017310533672571182
1771073766795217400,8.371217529296874,0.02383527345955372,-0.031158961355686188,0.029028434306383133
1771073766805157400,8.381157470703124,0.030226856470108032,-0.032224226742982864,0.03009369783103466
1771073766815097300,8.391097412109374,0.0366184376180172,-0.02583264373242855,0.027963170781731606
1771073766825037300,8.401037353515624,0.03768370300531387,-0.019441060721874237,0.023702116683125496
1771073766834977000,8.41097705078125,0.03555317223072052,-0.013049479573965073,0.016245270147919655
1771073766844917000,8.4209169921875,0.03555317223072052,-0.0002663159102667123,0.013049479573965073
1771073766854857000,8.43085693359375,0.0366184376180172,0.011451584286987782,0.011984216049313545
1771073766864797000,8.440796875,0.03448791056871414,0.013582111336290836,0.011984216049313545
1771073766874736600,8.450736572265624,0.030226856470108032,0.013582111336290836,0.013049479573965073
1771073766884676600,8.460676513671874,0.025965800508856773,0.010386320762336254,0.0141147430986166
1771073766894616600,8.470616455078124,0.01957421936094761,0.014647374860942364,0.01837579719722271
1771073766904556300,8.480556396484374,0.014247900806367397,0.02210422046482563,0.020506324246525764
1771073766914496300,8.490496337890624,0.007856319658458233,0.02636527456343174,0.016245270147919655
1771073766924436200,8.500436279296874,0.0035952648613601923,0.028495801612734795,0.007723161485046148
1771073766934376200,8.510376220703124,0.0035952648613601923,0.02636527456343174,-0.0007989477599039674
1771073766944316000,8.52031591796875,0.004660528618842363,0.019973693415522575,-0.009321057237684727
1771073766954256000,8.530255859375,0.001464737462811172,0.016777902841567993,-0.01784316636621952
1771073766964195600,8.540195556640626,-0.0017310534603893757,0.027430538088083267,-0.021038956940174103
1771073766974135600,8.550135498046876,-0.004926844500005245,0.03275685757398605,-0.021038956940174103
1771073766984075500,8.560075439453126,-0.004926844500005245,0.02636527456343174,-0.02210422046482563
1771073766994015200,8.57001513671875,-0.0017310534603893757,0.014647374860942364,-0.024234747514128685
1771073767003955200,8.579955078125,0.005725792143493891,-0.005592633970081806,-0.02636527456343174
1771073767013895000,8.58989501953125,0.00892158318310976,-0.023702116683125496,-0.023169483989477158
1771073767023835000,8.5998349609375,0.00892158318310976,-0.031158961355686188,-0.01784316636621952
1771073767033774600,8.609774658203126,0.004660528618842363,-0.026897907257080078,-0.008255792781710625
1771073767043714600,8.619714599609376,0.0003994738799519837,-0.020506324246525764,-0.0018642114009708166
1771073767053654300,8.629654296875,0.0003994738799519837,-0.0023968431632965803,0.004527370445430279
1771073767063594200,8.63959423828125,0.0003994738799519837,0.012516847811639309,0.013049479573965073
1771073767073534000,8.649533935546875,0.0003994738799519837,0.018908429890871048,0.02263685315847397
1771073767083474000,8.659473876953125,0.0003994738799519837,0.019973693415522575,0.0354200154542923
1771073767093413600,8.66941357421875,0.001464737462811172,0.016777902841567993,0.03968106955289841
1771073767103353600,8.679353515625,0.001464737462811172,0.0050600022077560425,0.03328948840498924
1771073767113293300,8.689293212890625,0.0003994738799519837,-0.0002663159102667123,0.019441060721874237
1771073767123233300,8.6992333984375,-0.002796316985040903,-0.001331579522229731,-0.002929474925622344
1771073767133173000,8.709173095703125,-0.008122635073959827,0.0018642114009708166,-0.024234747514128685
1771073767143113000,8.719113037109375,-0.013448953628540039,0.012516847811639309,-0.03382211923599243
1771073767153052700,8.729052734375,-0.023036325350403786,0.02636527456343174,-0.03808317333459854
1771073767162992600,8.73899267578125,-0.031558435410261154,0.03488738462328911,-0.03914843872189522
1771073767172932400,8.748932373046875,-0.03368896245956421,0.02636527456343174,-0.03275685757398605
1771073767182872300,8.758872314453125,-0.03262370079755783,0.0050600022077560425,-0.025300011038780212
1771073767192812000,8.76881201171875,-0.03368896245956421,-0.02583264373242855,-0.02210422046482563
1771073767202752000,8.778751953125,-0.039015281945466995,-0.05033370852470398,-0.018908429890871048
1771073767212691700,8.788691650390625,-0.04647212475538254,-0.0492684431374073,-0.011451584286987782
1771073767222631700,8.798631591796875,-0.051798444241285324,-0.032224226742982864,-0.003994738683104515
1771073767232571400,8.8085712890625,-0.04860265180468559,-0.015180006623268127,0.005592633970081806
1771073767242511400,8.818511474609375,-0.03795001655817032,0.002929474925622344,0.015180006623268127
1771073767252451000,8.828451171875,-0.02197106182575226,0.024234747514128685,0.024767380207777023
1771073767262391000,8.83839111328125,-0.008122635073959827,0.03275685757398605,0.031158961355686188
1771073767272330800,8.848330810546875,0.0003994738799519837,0.028495801612734795,0.03328948840498924
1771073767282270700,8.858270751953125,0.0035952648613601923,0.02210422046482563,0.03435475379228592
1771073767292210400,8.86821044921875,0.001464737462811172,0.011451584286987782,0.03328948840498924
1771073767302150400,8.878150390625,-0.002796316985040903,-0.0002663159102667123,0.026897907257080078
1771073767312090000,8.888090087890625,0.0003994738799519837,-0.001331579522229731,0.020506324246525764
1771073767322030000,8.898030029296875,0.006791055668145418,0.008255792781710625,0.015180006623268127
1771073767331970000,8.907969970703125,0.009986846707761288,0.012516847811639309,0.004527370445430279
1771073767341909800,8.91790966796875,0.006791055668145418,0.010386320762336254,-0.007190529722720385
1771073767351849700,8.927849609375,0.0035952648613601923,0.007190529722720385,-0.016777902841567993
1771073767361789400,8.93778955078125,0.006791055668145418,0.010386320762336254,-0.028495801612734795
1771073767371729400,8.9477294921875,0.01850895583629608,-0.0034621069207787514,-0.030626330524683
1771073767381669400,8.95766943359375,0.009986846707761288,0.003994738683104515,-0.03914843872189522
1771073767391609000,8.967609130859374,0.0003994738799519837,-0.001331579522229731,-0.040213704109191895
1771073767401549000,8.977549072265624,0.0035952648613601923,0.0018642114009708166,-0.04127896577119827
1771073767411489000,8.987489013671874,0.012117373757064342,0.014647374860942364,-0.04234423115849495
1771073767421428700,8.9974287109375,0.02277000993490219,0.01784316636621952,-0.03701791167259216
1771073767431368700,9.00736865234375,0.02383527345955372,0.016777902841567993,-0.030626330524683
1771073767441308700,9.01730859375,0.016378428786993027,0.01784316636621952,-0.01784316636621952
1771073767451248600,9.02724853515625,0.004660528618842363,0.011451584286987782,-0.008255792781710625
1771073767461188400,9.037188232421874,-0.0070573715493083,0.007190529722720385,-0.003994738683104515
1771073767471128300,9.04712841796875,-0.013448953628540039,-0.0002663159102667123,-0.00612526573240757
1771073767481068300,9.057068359375,-0.019840534776449203,-0.006657897960394621,-0.02210422046482563
1771073767491008000,9.067008056640624,-0.02090579830110073,0.002929474925622344,-0.04234423115849495
1771073767500948000,9.076947998046874,-0.01771000772714615,0.02210422046482563,-0.056192658841609955
1771073767510888000,9.086887939453124,-0.013448953628540039,0.028495801612734795,-0.06151897460222244
1771073767520828000,9.096827880859376,-0.0070573715493083,0.028495801612734795,-0.056192658841609955
1771073767530767600,9.106767578125,-0.003861580742523074,0.021038956940174103,-0.04660528525710106
1771073767540707600,9.11670751953125,-0.0006657897611148655,0.008255792781710625,-0.03488738462328911
1771073767550647600,9.1266474609375,0.0003994738799519837,-0.005592633970081806,-0.01784316636621952
1771073767560587300,9.136587158203126,-0.002796316985040903,-0.011984216049313545,-0.0007989477599039674
1771073767570527200,9.14652734375,-0.010253162123262882,-0.008788425475358963,0.010918952524662018
1771073767580467200,9.15646728515625,-0.013448953628540039,0.0018642114009708166,0.013049479573965073
1771073767590407200,9.1664072265625,-0.009187898598611355,0.011451584286987782,0.006657897960394621
1771073767600347000,9.176346923828126,0.0025300011038780212,0.019973693415522575,-0.002929474925622344
1771073767610286800,9.186286865234376,0.012117373757064342,0.018908429890871048,-0.013582111336290836
1771073767620226800,9.196226806640626,0.01957421936094761,0.018908429890871048,-0.01784316636621952
1771073767630166500,9.20616650390625,0.01957421936094761,0.015712639316916466,-0.011451584286987782
1771073767640106500,9.2161064453125,0.0153131652623415,0.00612526573240757,0.004527370445430279
1771073767650046500,9.22604638671875,0.012117373757064342,0.00612526573240757,0.026897907257080078
1771073767659986400,9.235986328125,0.01318263728171587,0.0050600022077560425,0.05033370852470398
1771073767669926100,9.245926025390625,0.01318263728171587,-0.0034621069207787514,0.06631266325712204
1771073767679866000,9.2558662109375,0.0153131652623415,-0.010918952524662018,0.07376950979232788
1771073767689806000,9.26580615234375,0.016378428786993027,-0.011984216049313545,0.07590003311634064
1771073767699745800,9.275745849609375,0.012117373757064342,-0.0141147430986166,0.06950845569372177
1771073767709685800,9.285685791015625,0.004660528618842363,-0.010918952524662018,0.06311687082052231
1771073767719625700,9.295625732421875,-0.004926844500005245,-0.00985368900001049,0.05352949723601341
1771073767729565700,9.305565673828125,-0.011318426579236984,-0.006657897960394621,0.04181159660220146
1771073767739505400,9.31550537109375,-0.010253162123262882,0.0007989477599039674,0.031158961355686188
1771073767749445400,9.3254453125,-0.003861580742523074,-0.001331579522229731,0.020506324246525764
1771073767759385300,9.33538525390625,-0.0017310534603893757,-0.005592633970081806,0.007723161485046148
1771073767769325300,9.3453251953125,-0.002796316985040903,0.003994738683104515,-0.007190529722720385
1771073767779265000,9.35526513671875,-0.002796316985040903,0.024234747514128685,-0.016777902841567993
1771073767789205000,9.365205078125,-0.0006657897611148655,0.035952646285295486,-0.018908429890871048
1771073767799145000,9.37514501953125,-0.0006657897611148655,0.03382211923599243,-0.014647374860942364
1771073767809084700,9.385084716796875,0.001464737462811172,0.021038956940174103,-0.008255792781710625
1771073767819024600,9.395024658203125,0.012117373757064342,0.009321057237684727,0.0002663159102667123
1771073767828964600,9.404964599609375,0.021704746410250664,0.007190529722720385,0.011984216049313545
1771073767838904600,9.414904541015625,0.014247900806367397,0.008255792781710625,0.02583264373242855
1771073767848844300,9.42484423828125,-0.004926844500005245,0.003994738683104515,0.026897907257080078
1771073767858784300,9.4347841796875,-0.024101590737700462,-0.011984216049313545,0.0141147430986166
1771073767868724200,9.44472412109375,-0.03368896245956421,-0.024767380207777023,-0.011451584286987782
1771073767878664000,9.454663818359375,-0.03262370079755783,-0.023702116683125496,-0.030626330524683
1771073767888604000,9.46460400390625,-0.0294279083609581,-0.017310533672571182,-0.04127896577119827
1771073767898543900,9.4745439453125,-0.0294279083609581,-0.006657897960394621,-0.04127896577119827
1771073767908483800,9.48448388671875,-0.028362644836306572,0.007190529722720385,-0.035952646285295486
1771073767918423600,9.494423583984375,-0.024101590737700462,0.021038956940174103,-0.02210422046482563
1771073767928363500,9.504363525390625,-0.013448953628540039,0.030626330524683,-0.00612526573240757
1771073767938303500,9.514303466796875,-0.003861580742523074,0.023169483989477158,0.0002663159102667123
1771073767948243200,9.5242431640625,0.007856319658458233,0.011451584286987782,0.0034621069207787514
1771073767958183200,9.53418310546875,0.01957421936094761,0.008255792781710625,0.001331579522229731
1771073767968123100,9.544123046875,0.0270310640335083,0.014647374860942364,-0.0007989477599039674
1771073767978063000,9.55406298828125,0.0270310640335083,0.02210422046482563,-0.002929474925622344
1771073767988002800,9.5640029296875,0.021704746410250664,0.018908429890871048,-0.0050600022077560425
1771073767997942800,9.57394287109375,0.012117373757064342,0.007190529722720385,-0.007190529722720385
1771073768007882500,9.583882568359375,0.001464737462811172,-0.011984216049313545,-0.012516847811639309
1771073768017822500,9.593822509765625,-0.0070573715493083,-0.020506324246525764,-0.018908429890871048
1771073768027762200,9.60376220703125,-0.009187898598611355,-0.016245270147919655,-0.025300011038780212
1771073768037702100,9.6137021484375,-0.010253162123262882,-0.006657897960394621,-0.03169159218668938
1771073768047641900,9.623641845703125,-0.010253162123262882,0.0018642114009708166,-0.03488738462328911
1771073768057581800,9.633581787109375,-0.009187898598611355,0.009321057237684727,-0.03488738462328911
1771073768067521500,9.643521484375,-0.004926844500005245,0.009321057237684727,-0.028495801612734795
1771073768077461500,9.65346142578125,-0.0017310534603893757,-0.0023968431632965803,-0.019973693415522575
1771073768087401200,9.663401123046874,-0.0017310534603893757,-0.0141147430986166,-0.0050600022077560425
1771073768097341200,9.673341064453124,-0.0070573715493083,-0.019441060721874237,0.013049479573965073
1771073768107281000,9.683281005859374,-0.019840534776449203,-0.017310533672571182,0.02583264373242855
1771073768117220900,9.693220947265624,-0.02516685426235199,-0.015180006623268127,0.03328948840498924
1771073768127160600,9.70316064453125,-0.024101590737700462,-0.0141147430986166,0.031158961355686188
1771073768137100500,9.7131005859375,-0.019840534776449203,-0.007723161485046148,0.020506324246525764
1771073768147040300,9.723040283203124,-0.01664474420249462,0.0050600022077560425,0.007723161485046148
1771073768156980200,9.732980224609374,-0.015579480677843094,0.01784316636621952,-0.002929474925622344
1771073768166920000,9.742919921875,-0.01664474420249462,0.024234747514128685,-0.008255792781710625
1771073768176860000,9.75285986328125,-0.018775271251797676,0.023169483989477158,-0.011451584286987782
1771073768186799600,9.762799560546876,-0.01771000772714615,0.018908429890871048,-0.008255792781710625
1771073768196739600,9.772739501953126,-0.011318426579236984,0.016777902841567993,-0.0007989477599039674
1771073768206679300,9.78267919921875,-0.010253162123262882,0.010386320762336254,0.013049479573965073
1771073768216619300,9.792619384765626,-0.010253162123262882,0.0050600022077560425,0.032224226742982864
1771073768226559000,9.80255908203125,-0.011318426579236984,0.0018642114009708166,0.05352949723601341
1771073768236499000,9.8124990234375,-0.011318426579236984,-0.0023968431632965803,0.06418213248252869
1771073768246438700,9.822438720703126,-0.009187898598611355,-0.013049479573965073,0.060986343771219254
1771073768256378600,9.832378662109376,-0.0006657897611148655,-0.02157158963382244,0.0492684431374073
1771073768266318600,9.842318603515626,0.011052110232412815,-0.017310533672571182,0.040746334940195084
1771073768276258300,9.85225830078125,0.014247900806367397,-0.006657897960394621,0.036485280841588974
1771073768286198300,9.8621982421875,0.009986846707761288,0.003994738683104515,0.03009369783103466
1771073768296138000,9.872137939453125,0.006791055668145418,0.015712639316916466,0.02157158963382244
1771073768306078000,9.882077880859375,0.00892158318310976,0.021038956940174103,0.017310533672571182
1771073768316017700,9.892017578125,0.014247900806367397,0.010386320762336254,0.010918952524662018
1771073768325957600,9.90195751953125,0.017443692311644554,-0.0002663159102667123,0.004527370445430279
1771073768335897300,9.9118974609375,0.01850895583629608,-0.001331579522229731,-0.0007989477599039674
1771073768345837300,9.92183740234375,0.01850895583629608,0.0050600022077560425,-0.0018642114009708166
1771073768355777000,9.931777099609375,0.0153131652623415,0.00612526573240757,-0.0007989477599039674
1771073768365717000,9.941717041015625,0.011052110232412815,0.0007989477599039674,0.0034621069207787514
1771073768375656700,9.95165673828125,0.007856319658458233,-0.006657897960394621,0.005592633970081806
1771073768385596700,9.9615966796875,0.006791055668145418,-0.011984216049313545,0.0034621069207787514
1771073768395536600,9.97153662109375,0.011052110232412815,-0.010918952524662018,0.001331579522229731
1771073768405476400,9.981476318359375,0.011052110232412815,-0.008788425475358963,-0.0007989477599039674
1771073768415416300,9.991416259765625,0.0035952648613601923,-0.0023968431632965803,-0.003994738683104515
1771073768425356300,10.001356201171875,-0.0070573715493083,0.0018642114009708166,-0.007190529722720385
1771073768435296000,10.0112958984375,-0.014514217153191566,-0.0023968431632965803,-0.010386320762336254
1771073768445236000,10.021236083984375,-0.014514217153191566,-0.0023968431632965803,-0.009321057237684727
1771073768455176000,10.031176025390625,-0.0070573715493083,0.0018642114009708166,-0.003994738683104515
1771073768465116000,10.041115966796875,-0.003861580742523074,0.003994738683104515,0.005592633970081806
1771073768475055600,10.0510556640625,-0.004926844500005245,0.010386320762336254,0.0141147430986166
1771073768484995600,10.06099560546875,-0.011318426579236984,0.012516847811639309,0.015180006623268127
1771073768494935600,10.070935546875,-0.02090579830110073,-0.001331579522229731,0.007723161485046148
1771073768504875500,10.08087548828125,-0.028362644836306572,-0.02263685315847397,-0.007190529722720385
1771073768514815200,10.090815185546875,-0.035819489508867264,-0.03755054250359535,-0.019973693415522575
1771073768524755200,10.100755126953125,-0.04221107065677643,-0.040746334940195084,-0.03275685757398605
1771073768534695200,10.110695068359375,-0.043276336044073105,-0.023702116683125496,-0.03488738462328911
1771073768544635000,10.120634765625,-0.039015281945466995,0.008255792781710625,-0.024234747514128685
1771073768554574800,10.130574951171875,-0.031558435410261154,0.035952646285295486,-0.002929474925622344
1771073768564514800,10.140514892578125,-0.023036325350403786,0.04554001986980438,0.01837579719722271
1771073768574454800,10.150454833984375,-0.0070573715493083,0.04127896577119827,0.03861580789089203
1771073768584394500,10.16039453125,0.006791055668145418,0.018908429890871048,0.05139897018671036
1771073768594334500,10.17033447265625,0.014247900806367397,-0.011984216049313545,0.05352949723601341
1771073768604274400,10.1802744140625,0.016378428786993027,-0.02583264373242855,0.04181159660220146
1771073768614214100,10.190214111328125,0.016378428786993027,-0.019441060721874237,0.024767380207777023
1771073768624154000,10.200154052734375,0.016378428786993027,-0.0002663159102667123,0.008788425475358963
1771073768634094000,10.210093994140625,0.0153131652623415,0.018908429890871048,-0.007190529722720385
1771073768644034000,10.220033935546875,0.014247900806367397,0.030626330524683,-0.013582111336290836
1771073768653973800,10.229973876953125,0.0153131652623415,0.03169159218668938,-0.013582111336290836
1771073768663913700,10.239913818359375,0.0153131652623415,0.021038956940174103,-0.008255792781710625
1771073768673853700,10.249853759765625,0.0153131652623415,-0.0002663159102667123,-0.0018642114009708166
1771073768683793400,10.25979345703125,0.017443692311644554,-0.02157158963382244,0.007723161485046148
1771073768693733400,10.2697333984375,0.016378428786993027,-0.03755054250359535,0.010918952524662018
1771073768703673300,10.27967333984375,0.017443692311644554,-0.036485280841588974,0.004527370445430279
1771073768713613300,10.28961328125,0.02383527345955372,-0.01837579719722271,0.0002663159102667123
1771073768723553000,10.299552978515624,0.030226856470108032,-0.001331579522229731,-0.0050600022077560425
1771073768733493000,10.309492919921874,0.033422645181417465,0.002929474925622344,-0.010386320762336254
1771073768743433000,10.319432861328124,0.030226856470108032,0.0007989477599039674,-0.01784316636621952
1771073768753372700,10.32937255859375,0.02277000993490219,-0.008788425475358963,-0.019973693415522575
1771073768763312600,10.339312744140624,0.01850895583629608,-0.020506324246525764,-0.015712639316916466
1771073768773252600,10.349252685546874,0.017443692311644554,-0.032224226742982864,-0.0050600022077560425
1771073768783192600,10.359192626953124,0.017443692311644554,-0.036485280841588974,0.011984216049313545
1771073768793132300,10.36913232421875,0.017443692311644554,-0.029028434306383133,0.032224226742982864
1771073768803072300,10.379072265625,0.01850895583629608,-0.011984216049313545,0.0492684431374073
1771073768813012200,10.38901220703125,0.01957421936094761,-0.001331579522229731,0.05779055133461952
1771073768822952000,10.398951904296876,0.01957421936094761,-0.001331579522229731,0.0588558167219162
1771073768832892000,10.408891845703126,0.01850895583629608,-0.008788425475358963,0.05139897018671036
1771073768842832000,10.418831787109376,0.0153131652623415,-0.015180006623268127,0.032224226742982864
1771073768852771800,10.428771728515626,0.00892158318310976,-0.020506324246525764,0.004527370445430279
1771073768862711600,10.438711669921876,0.004660528618842363,-0.017310533672571182,-0.021038956940174103
1771073768872651500,10.448651611328126,0.0025300011038780212,-0.006657897960394621,-0.03488738462328911
1771073768882591500,10.458591552734376,-0.003861580742523074,0.0007989477599039674,-0.03169159218668938
1771073768892531500,10.468531494140626,-0.014514217153191566,0.0050600022077560425,-0.016777902841567993
1771073768902471200,10.47847119140625,-0.02197106182575226,0.007190529722720385,0.006657897960394621
1771073768912411100,10.4884111328125,-0.02516685426235199,0.0007989477599039674,0.029028434306383133
1771073768922351000,10.49835107421875,-0.02197106182575226,-0.010918952524662018,0.04713791608810425
1771073768932290800,10.508290771484376,-0.019840534776449203,-0.020506324246525764,0.0588558167219162
1771073768942230800,10.518230712890626,-0.019840534776449203,-0.024767380207777023,0.06311687082052231
1771073768952170800,10.528170654296876,-0.026232117787003517,-0.02583264373242855,0.0588558167219162
1771073768962110700,10.53811083984375,-0.028362644836306572,-0.017310533672571182,0.0492684431374073
1771073768972050400,10.548050537109376,-0.0294279083609581,-0.00985368900001049,0.03861580789089203
1771073768981990400,10.557990478515626,-0.031558435410261154,-0.00985368900001049,0.027963170781731606
1771073768991930400,10.567930419921876,-0.03688475489616394,-0.017310533672571182,0.015180006623268127
1771073769001870000,10.5778701171875,-0.04008054360747337,-0.017310533672571182,0.005592633970081806
1771073769011810000,10.58781005859375,-0.03688475489616394,-0.0141147430986166,0.0002663159102667123
1771073769021749800,10.597749755859375,-0.027297381311655045,-0.011984216049313545,0.001331579522229731
1771073769031689700,10.607689697265625,-0.018775271251797676,-0.010918952524662018,0.0034621069207787514
1771073769041629400,10.61762939453125,-0.014514217153191566,-0.00985368900001049,0.007723161485046148
1771073769051569400,10.6275693359375,-0.014514217153191566,-0.005592633970081806,0.016245270147919655
1771073769061509400,10.63750927734375,-0.01664474420249462,-0.0023968431632965803,0.02263685315847397
1771073769071449000,10.647448974609375,-0.018775271251797676,0.0007989477599039674,0.029028434306383133
1771073769081389000,10.65738916015625,-0.015579480677843094,0.007190529722720385,0.03009369783103466
1771073769091328800,10.667328857421875,-0.010253162123262882,0.008255792781710625,0.02583264373242855
1771073769101268700,10.677268798828125,0.0003994738799519837,0.012516847811639309,0.016245270147919655
1771073769111208400,10.68720849609375,0.012117373757064342,0.015712639316916466,0.006657897960394621
1771073769121148400,10.6971484375,0.014247900806367397,0.009321057237684727,-0.0018642114009708166
1771073769131088100,10.707088134765625,0.005725792143493891,-0.001331579522229731,-0.0050600022077560425
1771073769141028000,10.717028076171875,-0.008122635073959827,-0.0141147430986166,-0.010386320762336254
1771073769150967800,10.7269677734375,-0.02090579830110073,-0.027963170781731606,-0.014647374860942364
1771073769160907800,10.73690771484375,-0.02516685426235199,-0.0354200154542923,-0.018908429890871048
1771073769170847500,10.746847412109375,-0.01771000772714615,-0.03328948840498924,-0.027430538088083267
1771073769180787500,10.756787353515625,-0.005992108024656773,-0.008788425475358963,-0.02636527456343174
1771073769190727200,10.76672705078125,0.004660528618842363,0.014647374860942364,-0.01784316636621952
1771073769200667100,10.776667236328125,0.012117373757064342,0.02636527456343174,-0.007190529722720385
1771073769210606800,10.78660693359375,0.01850895583629608,0.03169159218668938,0.008788425475358963
1771073769250366200,10.8263662109375,0.007856319658458233,-0.032224226742982864,0.01837579719722271
1771073769260306200,10.83630615234375,0.001464737462811172,-0.029028434306383133,0.0002663159102667123
1771073769270246000,10.846245849609375,-0.005992108024656773,-0.017310533672571182,-0.01784316636621952
1771073769280185900,10.856185791015625,-0.011318426579236984,-0.0034621069207787514,-0.027430538088083267
1771073769290125600,10.86612548828125,-0.01664474420249462,0.009321057237684727,-0.028495801612734795
1771073769300065500,10.8760654296875,-0.015579480677843094,0.00612526573240757,-0.018908429890871048
1771073769310005200,10.886005126953124,-0.014514217153191566,-0.004527370445430279,-0.0050600022077560425
1771073769319945200,10.8959453125,-0.012383690103888512,-0.015180006623268127,0.006657897960394621
1771073769329885000,10.905885009765624,-0.015579480677843094,-0.023702116683125496,0.008788425475358963
1771073769339825000,10.915824951171874,-0.018775271251797676,-0.026897907257080078,-0.0050600022077560425
1771073769349764600,10.9257646484375,-0.018775271251797676,-0.015180006623268127,-0.015712639316916466
1771073769359704600,10.93570458984375,-0.01664474420249462,0.00612526573240757,-0.016777902841567993
1771073769369644300,10.945644287109374,-0.018775271251797676,0.019973693415522575,-0.013582111336290836
1771073769379584300,10.955584228515624,-0.024101590737700462,0.025300011038780212,-0.007190529722720385
1771073769389524000,10.96552392578125,-0.02090579830110073,0.021038956940174103,0.0023968431632965803
1771073769399464000,10.9754638671875,-0.013448953628540039,0.010386320762336254,0.00985368900001049
1771073769409404000,10.98540380859375,-0.010253162123262882,-0.0034621069207787514,0.011984216049313545
1771073769419343600,10.995343505859376,-0.010253162123262882,-0.008788425475358963,0.00985368900001049
1771073769429283600,11.00528369140625,-0.012383690103888512,-0.0023968431632965803,0.006657897960394621
1771073769439223600,11.0152236328125,-0.015579480677843094,0.002929474925622344,0.0002663159102667123
1771073769449163500,11.02516357421875,-0.014514217153191566,0.011451584286987782,-0.003994738683104515
1771073769459103200,11.035103271484376,-0.010253162123262882,0.016777902841567993,-0.0018642114009708166
1771073769469043200,11.045043212890626,-0.0070573715493083,0.01784316636621952,-0.002929474925622344
1771073769478983200,11.054983154296876,-0.002796316985040903,0.014647374860942364,-0.003994738683104515
1771073769488923000,11.0649228515625,0.0025300011038780212,0.012516847811639309,-0.003994738683104515
1771073769498862800,11.07486279296875,0.00892158318310976,0.0050600022077560425,-0.0050600022077560425
1771073769508802800,11.084802734375,0.012117373757064342,-0.0034621069207787514,-0.003994738683104515
1771073769518742800,11.09474267578125,0.011052110232412815,-0.00985368900001049,-0.002929474925622344
1771073769528682500,11.1046826171875,0.007856319658458233,-0.00985368900001049,0.0023968431632965803
1771073769538622500,11.11462255859375,0.004660528618842363,-0.008788425475358963,0.007723161485046148
1771073769548562400,11.1245625,0.0025300011038780212,-0.008788425475358963,0.005592633970081806
1771073769558502100,11.134502197265626,0.0035952648613601923,-0.0034621069207787514,-0.0018642114009708166
1771073769568442000,11.144442138671875,0.007856319658458233,0.008255792781710625,-0.015712639316916466
1771073769578382000,11.154382080078125,0.0153131652623415,0.015712639316916466,-0.02636527456343174
1771073769588322000,11.164322021484375,0.020639482885599136,0.012516847811639309,-0.029561065137386322
1771073769608201700,11.18420166015625,0.029161592945456505,-0.004527370445430279,-0.00612526573240757
1771073769618141700,11.1941416015625,0.03129211813211441,-0.011984216049313545,0.019441060721874237
1771073769628081700,11.20408154296875,0.028096329420804977,-0.015180006623268127,0.04287686198949814
1771073769638021400,11.214021484375,0.02277000993490219,-0.00985368900001049,0.06205160543322563
1771073769647961300,11.22396142578125,0.014247900806367397,-0.007723161485046148,0.06631266325712204
1771073769657901300,11.2339013671875,0.006791055668145418,-0.011984216049313545,0.0492684431374073
1771073769667841000,11.243841064453125,0.006791055668145418,-0.011984216049313545,0.023702116683125496
1771073769687721000,11.263720947265625,0.017443692311644554,0.00612526573240757,0.0002663159102667123
1771073769697661000,11.273660888671875,0.014247900806367397,0.012516847811639309,0.001331579522229731
1771073769707600600,11.2836005859375,0.011052110232412815,0.02210422046482563,0.006657897960394621
1771073769717540600,11.29354052734375,0.01318263728171587,0.029561065137386322,0.013049479573965073
1771073769727480600,11.30348046875,0.012117373757064342,0.01784316636621952,0.007723161485046148
1771073769737420300,11.313420166015625,0.00892158318310976,-0.0034621069207787514,-0.008255792781710625
1771073769747360300,11.3233603515625,-0.002796316985040903,-0.02583264373242855,-0.02210422046482563
1771073769757300200,11.33330029296875,-0.015579480677843094,-0.03968106955289841,-0.03169159218668938
1771073769767240200,11.343240234375,-0.024101590737700462,-0.03755054250359535,-0.03488738462328911
1771073769777180000,11.353179931640625,-0.02516685426235199,-0.016245270147919655,-0.029561065137386322
1771073769787119900,11.363119873046875,-0.024101590737700462,0.011451584286987782,-0.019973693415522575
1771073769797059800,11.373059814453125,-0.024101590737700462,0.03169159218668938,-0.01784316636621952
1771073769806999600,11.38299951171875,-0.019840534776449203,0.05086633935570717,-0.021038956940174103
1771073769816939500,11.392939453125,-0.011318426579236984,0.05299686640501022,-0.027430538088083267
1771073769826879500,11.40287939453125,-0.004926844500005245,0.03808317333459854,-0.035952646285295486
1771073769836819500,11.4128193359375,-0.0017310534603893757,0.016777902841567993,-0.04127896577119827
1771073769846759200,11.42275927734375,-0.003861580742523074,-0.0034621069207787514,-0.04127896577119827
1771073769856699100,11.43269921875,-0.010253162123262882,-0.02157158963382244,-0.04127896577119827
1771073769866639000,11.44263916015625,-0.019840534776449203,-0.02157158963382244,-0.04127896577119827
1771073769876578800,11.452578857421875,-0.02516685426235199,-0.008788425475358963,-0.03382211923599243
1771073769886518800,11.462518798828125,-0.027297381311655045,0.0018642114009708166,-0.023169483989477158
1771073769896458800,11.472458740234375,-0.023036325350403786,0.011451584286987782,-0.0050600022077560425
1771073769906398700,11.482398681640625,-0.013448953628540039,0.024234747514128685,0.017310533672571182
1771073769916338400,11.49233837890625,-0.002796316985040903,0.028495801612734795,0.03861580789089203
1771073769926278400,11.5022783203125,0.0035952648613601923,0.024234747514128685,0.05139897018671036
1771073769936218400,11.51221826171875,0.006791055668145418,0.02210422046482563,0.052464235574007034
1771073769946158000,11.522157958984375,0.00892158318310976,0.015712639316916466,0.05033370852470398
1771073769956098000,11.53209814453125,0.011052110232412815,0.002929474925622344,0.04713791608810425
1771073769966038000,11.5420380859375,0.012117373757064342,-0.006657897960394621,0.05033370852470398
1771073769975978000,11.55197802734375,0.00892158318310976,-0.008788425475358963,0.05459476262331009
1771073769985917700,11.561917724609375,0.0025300011038780212,-0.008788425475358963,0.056725289672613144
1771073769995857700,11.571857666015624,-0.005992108024656773,-0.010918952524662018,0.05033370852470398
1771073770005797600,11.581797607421874,-0.009187898598611355,-0.001331579522229731,0.03968106955289841
1771073770015737600,11.591737548828124,-0.003861580742523074,0.007190529722720385,0.029028434306383133
1771073770025677300,11.60167724609375,-0.0006657897611148655,0.008255792781710625,0.020506324246525764
1771073770035617300,11.6116171875,-0.002796316985040903,0.002929474925622344,0.015180006623268127
1771073770045557200,11.62155712890625,-0.009187898598611355,-0.0002663159102667123,0.013049479573965073
1771073770055497000,11.6314970703125,-0.013448953628540039,0.0007989477599039674,0.017310533672571182
1771073770065437000,11.64143701171875,-0.015579480677843094,-0.0023968431632965803,0.026897907257080078
1771073770075376600,11.651376708984374,-0.01771000772714615,-0.013049479573965073,0.03009369783103466
1771073770085316600,11.661316650390624,-0.01771000772714615,-0.0141147430986166,0.024767380207777023
1771073770095256300,11.67125634765625,-0.012383690103888512,-0.0034621069207787514,0.01837579719722271
1771073770105196300,11.6811962890625,-0.010253162123262882,0.003994738683104515,0.011984216049313545
1771073770115136000,11.691135986328124,-0.011318426579236984,0.008255792781710625,0.00985368900001049
1771073770125076000,11.701075927734376,-0.015579480677843094,0.013582111336290836,0.015180006623268127
1771073770135016000,11.711015869140626,-0.02090579830110073,0.013582111336290836,0.026897907257080078
1771073770144955600,11.72095556640625,-0.027297381311655045,-0.0023968431632965803,0.03968106955289841
1771073770154895600,11.7308955078125,-0.031558435410261154,-0.0141147430986166,0.0492684431374073
1771073770164835300,11.74083544921875,-0.034754227846860886,-0.017310533672571182,0.0588558167219162
1771073770174775300,11.750775390625,-0.035819489508867264,-0.017310533672571182,0.06737792491912842
1771073770184715000,11.760715087890626,-0.03795001655817032,-0.013049479573965073,0.06737792491912842
1771073770194655000,11.770655029296876,-0.03795001655817032,-0.007723161485046148,0.06311687082052231
1771073770204594700,11.7805947265625,-0.034754227846860886,-0.007723161485046148,0.04713791608810425
1771073770214534700,11.79053466796875,-0.027297381311655045,-0.0034621069207787514,0.02583264373242855
1771073770224474400,11.800474365234376,-0.018775271251797676,0.0007989477599039674,0.006657897960394621
1771073770234414300,11.810414306640626,-0.013448953628540039,0.0007989477599039674,-0.002929474925622344
1771073770244354000,11.82035400390625,-0.014514217153191566,0.007190529722720385,-0.003994738683104515
1771073770254294000,11.8302939453125,-0.02090579830110073,0.011451584286987782,0.0034621069207787514
1771073770264233700,11.840233642578125,-0.03368896245956421,0.003994738683104515,0.010918952524662018
1771073770284113400,11.860113525390625,-0.04540686309337616,-0.010918952524662018,0.020506324246525764
1771073770294053400,11.870053466796875,-0.04221107065677643,-0.008788425475358963,0.02157158963382244
1771073770303993000,11.8799931640625,-0.034754227846860886,0.00612526573240757,0.024767380207777023
1771073770313933000,11.88993310546875,-0.02516685426235199,0.021038956940174103,0.03009369783103466
1771073770323872800,11.899872802734375,-0.01771000772714615,0.016777902841567993,0.03009369783103466
1771073770333812700,11.909812744140625,-0.018775271251797676,-0.005592633970081806,0.02583264373242855
1771073770343752400,11.91975244140625,-0.027297381311655045,-0.03968106955289841,0.011984216049313545
1771073770353692400,11.9296923828125,-0.04221107065677643,-0.06524740159511566,-0.00612526573240757
1771073770363632000,11.939632080078125,-0.05392897129058838,-0.06311687082052231,-0.016777902841567993
1771073770373572000,11.949572021484375,-0.059255290776491165,-0.03328948840498924,-0.014647374860942364
1771073770383511800,11.95951171875,-0.06138581782579422,0.0007989477599039674,-0.0018642114009708166
1771073770393451800,11.96945166015625,-0.059255290776491165,0.027430538088083267,0.01837579719722271
1771073770403391500,11.9793916015625,-0.051798444241285324,0.03488738462328911,0.03968106955289841
1771073770413331500,11.98933154296875,-0.04221107065677643,0.021038956940174103,0.05033370852470398
1771073770423271200,11.999271240234375,-0.035819489508867264,0.002929474925622344,0.052464235574007034
1771073770433211100,12.009211181640625,-0.03262370079755783,-0.004527370445430279,0.0492684431374073
1771073770443151000,12.019151123046875,-0.034754227846860886,-0.00985368900001049,0.04607265070080757
1771073770453090800,12.0290908203125,-0.03688475489616394,-0.0141147430986166,0.04181159660220146
1771073770463030800,12.03903076171875,-0.04114580899477005,-0.013049479573965073,0.04287686198949814
