time,seconds_elapsed,z,y,x
1771082001054538200,0.054538330078125,0,0,0
1771082001084357000,0.084357177734375,0.041790008544921875,0.006605386734008789,0.011805489659309387
1771082001094297300,0.09429736328125,0.14739227294921875,-0.009402155876159668,0.08088036626577377
1771082001104238000,0.104238037109375,0.2615375518798828,-0.0032509565353393555,0.06536144018173218
1771082001114179300,0.114179443359375,0.2316579818725586,-0.007383942604064941,0.04131890833377838
1771082001124120800,0.124120849609375,0.1288900375366211,-0.004004120826721191,0.02348536252975464
1771082001134062800,0.134062744140625,0.07805919647216797,-0.018990397453308105,-0.0038467422127723694
1771082001144005000,0.144005126953125,0.09376049041748047,-0.024830222129821777,-0.02064552903175354
1771082001153948000,0.153947998046875,0.10042190551757812,-0.01154792308807373,-0.016462720930576324
1771082001163890700,0.163890625,0.050444602966308594,0.004260420799255371,0.010210804641246796
1771082001173833700,0.173833740234375,-0.07711219787597656,-0.005338430404663086,0.01614653319120407
1771082001183777000,0.183777099609375,-0.15166664123535156,0.012961149215698242,0.019285380840301514
1771082001193720300,0.19372021484375,-0.1282796859741211,0.05292844772338867,0.06156531348824501
1771082001203663400,0.203663330078125,-0.0710744857788086,0.07745611667633057,0.07410269230604172
1771082001213604600,0.2136044921875,-0.021961212158203125,0.05774259567260742,0.06606625765562057
1771082001223546000,0.223546142578125,-0.018484115600585938,0.06126606464385986,0.0743599683046341
1771082001233487600,0.233487548828125,-0.049155235290527344,0.07102441787719727,0.12996220588684082
1771082001243428900,0.243428955078125,-0.062430381774902344,0.08693528175354004,0.15132059156894684
1771082001253370400,0.253370361328125,-0.08202648162841797,0.1180800199508667,0.13608065247535706
1771082001263312000,0.263311767578125,-0.15814781188964844,0.10514497756958008,0.08787282556295395
1771082001273253000,0.273253173828125,-0.1673603057861328,0.05732238292694092,0.014034854248166084
1771082001283194600,0.283194580078125,-0.11014556884765625,0.021652936935424805,0.007097385823726654
1771082001293136000,0.293135986328125,-0.0670013427734375,0.013216376304626465,0.060462769120931625
1771082001303077400,0.303077392578125,-0.07866668701171875,0.03784334659576416,0.10088946670293808
1771082001313019000,0.313018798828125,-0.04396629333496094,0.06651997566223145,0.10962662100791931
1771082001322960100,0.322960205078125,0.014790534973144531,0.06444692611694336,0.059683941304683685
1771082001332901600,0.332901611328125,0.09706401824951172,0.03429865837097168,0.06366954743862152
1771082001342843100,0.342843017578125,0.16306304931640625,0.004019379615783691,0.023191392421722412
1771082001352784400,0.352784423828125,0.1393299102783203,0.0035648345947265625,0.010255798697471619
1771082001362726000,0.362725830078125,0.06557846069335938,-0.020656347274780273,0.0008792192675173283
1771082001372667100,0.372667236328125,-0.015200614929199219,-0.013785719871520996,0.004222537856549025
1771082001382608600,0.382608642578125,-0.0868844985961914,0.007996082305908203,0.05211634561419487
1771082001392550100,0.392550048828125,-0.08940601348876953,0.0025353431701660156,0.08944348990917206
1771082001402491400,0.402491455078125,0.007984161376953125,0.005099654197692871,0.06931086629629135
1771082001412433000,0.412432861328125,0.1517477035522461,0.0002148151397705078,0.06118632107973099
1771082001422374100,0.4223740234375,0.24081039428710938,-0.017482519149780273,0.01216904167085886
1771082001432315600,0.432315673828125,0.17647838592529297,-0.03652024269104004,-0.040561508387327194
1771082001442257200,0.442257080078125,0.01838207244873047,-0.049193739891052246,-0.06279800832271576
1771082001452198400,0.452198486328125,-0.154571533203125,-0.01467430591583252,-0.053888339549303055
1771082001462140000,0.462139892578125,-0.2559375762939453,0.038804054260253906,-0.0035120779648423195
1771082001472081400,0.472081298828125,-0.3320274353027344,0.09031033515930176,0.116893470287323
1771082001482022700,0.482022705078125,-0.26895809173583984,0.1218191385269165,0.16474837064743042
1771082001491964200,0.491964111328125,-0.07665061950683594,0.08872747421264648,0.11453483253717422
1771082001501905400,0.501905517578125,0.06926155090332031,0.014337539672851562,0.028391912579536438
1771082001511847000,0.511846923828125,0.1302490234375,-0.059256672859191895,-0.041092123836278915
1771082001521788400,0.521788330078125,0.15273475646972656,-0.11133670806884766,-0.07606971263885498
1771082001531729700,0.531729736328125,0.1845073699951172,-0.10056817531585693,-0.039847686886787415
1771082001541671200,0.541671142578125,0.1831684112548828,-0.06808638572692871,-0.01768827810883522
1771082001551612400,0.5516123046875,0.09999275207519531,-0.05144786834716797,-0.06025838106870651
1771082001561554000,0.561553955078125,-0.018976211547851562,-0.04523956775665283,-0.08756399899721146
1771082001571495400,0.571495361328125,-0.12627029418945312,-0.032317280769348145,-0.08209826797246933
1771082001581436700,0.581436767578125,-0.22696304321289062,-0.02179586887359619,-0.07981094717979431
1771082001591378200,0.591378173828125,-0.3331336975097656,-0.02232837677001953,-0.050681471824645996
1771082001601319700,0.601319580078125,-0.3273181915283203,-0.00009989738464355469,-0.057461466640233994
1771082001611261000,0.611260986328125,-0.24440288543701172,0.009219765663146973,-0.031427424401044846
1771082001621202400,0.621202392578125,-0.06428241729736328,0.04250776767730713,0.06551587581634521
1771082001631143700,0.631143798828125,0.06811332702636719,-0.009786844253540039,0.06874445080757141
1771082001641085200,0.641085205078125,0.08544063568115234,-0.06651973724365234,0.04173048585653305
1771082001651026700,0.651026611328125,0.10014724731445312,-0.056487321853637695,0.015982799232006073
1771082001660968000,0.660968017578125,0.13823509216308594,-0.07527196407318115,-0.030365994200110435
1771082001670909400,0.670909423828125,0.22757720947265625,-0.061280131340026855,-0.01548883505165577
1771082001680851000,0.680850830078125,0.18836593627929688,-0.06439971923828125,0.04652612283825874
1771082001690792200,0.690792236328125,0.1309814453125,-0.06285977363586426,0.11947964131832123
1771082001700733700,0.700733642578125,0.055632591247558594,-0.049176812171936035,0.09197865426540375
1771082001710675000,0.710675048828125,0.0073566436767578125,-0.028260111808776855,0.03466922789812088
1771082001720616400,0.720616455078125,-0.00012493133544921875,-0.03574264049530029,-0.018314503133296967
1771082001730558000,0.730557861328125,0.05854511260986328,-0.06478679180145264,-0.022551994770765305
1771082001740499200,0.740499267578125,0.05524158477783203,-0.07090103626251221,-0.0036539174616336823
1771082001750440700,0.750440673828125,0.012087821960449219,-0.06809437274932861,0.019678980112075806
1771082001760382200,0.76038232421875,-0.006766319274902344,0.012156844139099121,0.021653737872838974
1771082001770323700,0.77032373046875,-0.05124378204345703,0.027704596519470215,0.01938660442829132
1771082001780265200,0.78026513671875,-0.088134765625,0.03702974319458008,0.0386260487139225
1771082001790206500,0.79020654296875,-0.05874443054199219,0.03572583198547363,0.04100389778614044
1771082001800148000,0.80014794921875,0.005275726318359375,0.01896226406097412,0.0668850690126419
1771082001810089500,0.81008935546875,0.09412574768066406,0.007186532020568848,0.06440261006355286
1771082001820031000,0.820031005859375,0.16283416748046875,0.020604610443115234,0.09085187315940857
1771082001829972500,0.829972412109375,0.12709808349609375,0.03936135768890381,0.10363215208053589
1771082001839913700,0.839913818359375,0.0026903152465820312,0.04032337665557861,0.08519181609153748
1771082001849855200,0.849855224609375,-0.060718536376953125,0.0221327543258667,0.060448575764894485
1771082001859796700,0.859796630859375,-0.017119407653808594,0.03720510005950928,0.04610971361398697
1771082001869738200,0.86973828125,0.018672943115234375,0.033290743827819824,0.060081470757722855
1771082001879679700,0.8796796875,0.060810089111328125,0.020623207092285156,0.05345115065574646
1771082001889621200,0.889621337890625,0.07390880584716797,-0.005559086799621582,0.024568378925323486
1771082001899562500,0.8995625,0.08678436279296875,-0.028949499130249023,0.025579150766134262
1771082001909504000,0.90950390625,0.05716228485107422,-0.02655160427093506,0.03890549764037132
1771082001919445500,0.919445556640625,0.004569053649902344,-0.008113741874694824,0.04987522214651108
1771082001929387000,0.929386962890625,-0.04004192352294922,-0.01843559741973877,0.022332608699798584
1771082001939328500,0.93932861328125,-0.04150962829589844,-0.016913175582885742,-0.005470499396324158
1771082001949269800,0.949269775390625,-0.054680824279785156,-0.008552074432373047,0.034625452011823654
1771082001959211300,0.959211181640625,-0.044066429138183594,0.004277825355529785,0.0591474287211895
1771082001969152800,0.96915283203125,-0.02424907684326172,0.0006116628646850586,0.061751071363687515
1771082001979094300,0.97909423828125,0.025801658630371094,-0.028693079948425293,0.03693833947181702
1771082001989035800,0.989035888671875,0.018507003784179688,-0.04338264465332031,-0.021315108984708786
1771082001998977300,0.998977294921875,-0.04285907745361328,-0.052916526794433594,-0.030390724539756775
1771082002008918500,1.00891845703125,-0.13630104064941406,-0.04275548458099365,-0.01327708549797535
1771082002018860000,1.018860107421875,-0.143585205078125,-0.03667247295379639,-0.02510063350200653
1771082002028801500,1.028801513671875,-0.12732219696044922,-0.044216156005859375,-0.06286413967609406
1771082002038743000,1.038742919921875,-0.13492870330810547,-0.044269561767578125,-0.07479891180992126
1771082002048684500,1.0486845703125,-0.10946464538574219,-0.02067863941192627,-0.002718396484851837
1771082002058626000,1.0586259765625,-0.04439830780029297,-0.0021915435791015625,0.06991373747587204
1771082002068567300,1.0685673828125,-0.02750396728515625,0.001857757568359375,0.0594295971095562
1771082002078508800,1.0785087890625,-0.0062007904052734375,-0.029376745223999023,-0.007205406203866005
1771082002088450300,1.0884501953125,0.017083168029785156,-0.0599900484085083,-0.05678858608007431
1771082002098391800,1.098391845703125,0.09183311462402344,-0.08097374439239502,-0.08924373984336853
1771082002108333300,1.108333251953125,0.08540630340576172,-0.09278607368469238,-0.09709152579307556
1771082002118274600,1.118274658203125,0.0273284912109375,-0.06928396224975586,-0.05490509420633316
1771082002128216000,1.128216064453125,-0.03925609588623047,-0.0388103723526001,0.010082380846142769
1771082002138157600,1.138157470703125,-0.02489757537841797,0.0016705989837646484,0.05519101396203041
1771082002148099000,1.14809912109375,0.031441688537597656,0.016377925872802734,0.05812743306159973
1771082002158040300,1.158040283203125,0.07269668579101562,0.0026886463165283203,0.03112763911485672
1771082002167981800,1.16798193359375,0.09222984313964844,-0.023341774940490723,0.009428609162569046
1771082002177923000,1.177923095703125,0.06931209564208984,-0.03140246868133545,-0.016436394304037094
1771082002187864600,1.187864501953125,-0.023621559143066406,-0.009921908378601074,-0.006874673999845982
1771082002197806000,1.19780615234375,-0.16436767578125,0.03198957443237305,0.01595371775329113
1771082002207747300,1.207747314453125,-0.24651241302490234,0.08391857147216797,0.04450342431664467
1771082002217688800,1.217688720703125,-0.2099752426147461,0.12530601024627686,0.12117259949445724
1771082002227630000,1.227630126953125,-0.021345138549804688,0.13238275051116943,0.1638346165418625
1771082002237571600,1.237571533203125,0.13816452026367188,0.10913205146789551,0.136665478348732
1771082002247513000,1.24751318359375,0.16797733306884766,0.033974647521972656,0.06940343976020813
1771082002257454300,1.257454345703125,0.1268177032470703,-0.028955578804016113,0.0040995776653289795
1771082002267395800,1.267395751953125,0.10527706146240234,-0.06779015064239502,-0.05530373007059097
1771082002277337300,1.27733740234375,0.0912933349609375,-0.06429553031921387,-0.08320257812738419
1771082002287278600,1.287278564453125,0.033005714416503906,-0.050084829330444336,-0.10867274552583694
1771082002297220000,1.29722021484375,-0.054780006408691406,-0.041518449783325195,-0.06905535608530045
1771082002307161300,1.307161376953125,-0.07288551330566406,-0.030440092086791992,-0.05759601667523384
1771082002317102800,1.317102783203125,-0.0036764144897460938,-0.02375507354736328,-0.07112786173820496
1771082002327044400,1.32704443359375,0.07845020294189453,-0.02158987522125244,-0.027907170355319977
1771082002336985600,1.336985595703125,0.1687002182006836,-0.008089184761047363,0.029399804770946503
1771082002346927000,1.346927001953125,0.17050933837890625,-0.009839057922363281,0.05227578058838844
1771082002356868600,1.35686865234375,0.07354164123535156,-0.031093955039978027,0.029380904510617256
1771082002366809900,1.366809814453125,-0.009980201721191406,-0.03816831111907959,-0.026054296642541885
1771082002376751400,1.37675146484375,-0.02377796173095703,-0.03600752353668213,-0.09085924923419952
1771082002386692600,1.386692626953125,-0.07260322570800781,-0.02947545051574707,-0.11513184756040573
1771082002396634000,1.396634033203125,-0.160675048828125,-0.03227090835571289,-0.0948203057050705
1771082002406575600,1.40657568359375,-0.19565677642822266,-0.0011599063873291016,-0.011938801035284996
1771082002416516900,1.416516845703125,-0.1973590850830078,0.052022695541381836,0.08144599199295044
1771082002426458400,1.426458251953125,-0.14283180236816406,0.08944129943847656,0.11021585762500763
1771082002436399600,1.436399658203125,-0.04932117462158203,0.07985186576843262,0.06794686615467072
1771082002446341000,1.446341064453125,0.0049419403076171875,0.02108323574066162,-0.001994149759411812
1771082002456282600,1.45628271484375,0.015999794006347656,-0.03475010395050049,-0.04318063333630562
1771082002466223900,1.466223876953125,0.052863121032714844,-0.08308970928192139,-0.07961039245128632
1771082002476165400,1.476165283203125,0.0703744888305664,-0.09816491603851318,-0.08455945551395416
1771082002486107000,1.48610693359375,0.06409263610839844,-0.08729338645935059,-0.06511466205120087
1771082002496048000,1.496048095703125,0.0790872573852539,-0.048253774642944336,-0.03395330160856247
1771082002505989600,1.50598974609375,0.12453556060791016,-0.024492383003234863,0.0040587447583675385
1771082002515931000,1.515930908203125,0.1081857681274414,0.005036354064941406,0.046865422278642654
1771082002525872400,1.525872314453125,0.031064987182617188,0.0119856595993042,0.05136493593454361
1771082002535814000,1.53581396484375,-0.042382240295410156,-0.00492095947265625,0.019786259159445763
1771082002545755100,1.545755126953125,-0.06993389129638672,-0.00711977481842041,0.004413250833749771
1771082002555696600,1.555696533203125,-0.061827659606933594,-0.0016186237335205078,-0.01140415295958519
1771082002565638000,1.565637939453125,-0.009217262268066406,-0.01925194263458252,-0.012832283973693848
1771082002575579400,1.575579345703125,0.011895179748535156,-0.029429912567138672,-0.013792280107736588
1771082002585521000,1.58552099609375,-0.00030231475830078125,-0.034729957580566406,0.03528570383787155
1771082002595462100,1.595462158203125,-0.0076198577880859375,-0.011488795280456543,0.048668526113033295
1771082002605403600,1.605403564453125,0.006375312805175781,0.009011626243591309,0.029186753556132317
1771082002615345200,1.61534521484375,0.006104469299316406,0.019254207611083984,0.06411551684141159
1771082002625286400,1.625286376953125,-0.034152984619140625,0.017360210418701172,0.06271393597126007
1771082002635228000,1.635227783203125,-0.01722431182861328,-0.03403794765472412,0.029658544808626175
1771082002645169200,1.645169189453125,0.011174201965332031,-0.06329178810119629,-0.0405520498752594
1771082002655110700,1.655110595703125,0.02262115478515625,-0.08264458179473877,-0.04593762755393982
1771082002674993400,1.674993408203125,0.03570556640625,-0.050534844398498535,-0.0025651156902313232
1771082002684935000,1.684934814453125,0.027976036071777344,-0.04450571537017822,0.004395745694637299
1771082002704817700,1.704817626953125,0.03902721405029297,-0.02446448802947998,0.03545069321990013
1771082002724700400,1.724700439453125,-0.020707130432128906,-0.028530120849609375,0.012014709413051605
1771082002744583400,1.74458349609375,-0.10591697692871094,-0.03357541561126709,0.022829920053482056
1771082002754524700,1.754524658203125,-0.10659599304199219,-0.01830446720123291,0.024587325751781464
1771082002774407400,1.774407470703125,-0.038112640380859375,-0.014801621437072754,-0.004803366959095001
1771082002784349000,1.784348876953125,0.009326934814453125,-0.04121804237365723,-0.0035505294799804688
1771082002794290400,1.79429052734375,0.05372810363769531,-0.03483295440673828,-0.009763672947883606
1771082002814173200,1.814173095703125,0.0496368408203125,-0.03113245964050293,-0.012863941490650177
1771082002824114700,1.82411474609375,0.034821510314941406,-0.04073953628540039,-0.06126296520233154
1771082002843997400,1.84399755859375,-0.022031784057617188,-0.03611874580383301,-0.01118951290845871
1771082002863880200,1.863880126953125,0.051260948181152344,-0.06436491012573242,-0.006978727877140045
1771082002873821700,1.87382177734375,0.14910030364990234,-0.048082709312438965,0.02027834951877594
1771082002893704400,1.893704345703125,0.22808265686035156,-0.08908021450042725,-0.04055788367986679
1771082002913587200,1.913587158203125,0.04646778106689453,-0.09358608722686768,-0.11641106009483337
1771082002923528700,1.92352880859375,-0.10152816772460938,-0.06256914138793945,-0.06955825537443161
1771082002933470000,1.933469970703125,-0.24715232849121094,0.0531841516494751,0.036967724561691284
1771082002943411500,1.943411376953125,-0.3389244079589844,0.13832366466522217,0.10475797206163406
1771082002953353000,1.95335302734375,-0.30255794525146484,0.15649497509002686,0.1108110174536705
1771082002973236000,1.973236083984375,0.04531383514404297,0.02384018898010254,0.013944126665592194
1771082002983177200,1.98317724609375,0.18024063110351562,-0.042490363121032715,0.004242740571498871
1771082002993118700,1.99311865234375,0.2682838439941406,-0.09634721279144287,-0.010552965104579926
1771082003003060200,2.003060302734375,0.29159069061279297,-0.11549603939056396,-0.03526429831981659
1771082003022943200,2.022943115234375,0.1556997299194336,-0.03420436382293701,-0.024216540157794952
1771082003042826000,2.042825927734375,0.08225345611572266,-0.05372977256774902,-0.059244200587272644
1771082003052767500,2.052767578125,0.06998729705810547,-0.05296623706817627,-0.05436323583126068
1771082003072650500,2.072650390625,-0.009863853454589844,-0.05861473083496094,-0.03281083703041077
1771082003092533200,2.092533203125,-0.13453388214111328,-0.05269467830657959,-0.005580440163612366
1771082003102474800,2.102474853515625,-0.16715335845947266,-0.04002964496612549,-0.0017181038856506348
1771082003122357800,2.122357666015625,-0.07229995727539062,0.023109078407287598,0.043409042060375214
1771082003142240800,2.14224072265625,-0.16284561157226562,-0.017551779747009277,0.002687901258468628
1771082003152182000,2.15218212890625,-0.16914653778076172,-0.05007636547088623,-0.04056795686483383
1771082003162123500,2.16212353515625,-0.1212778091430664,-0.06988942623138428,-0.08383959531784058
1771082003172065000,2.17206494140625,-0.07651329040527344,-0.1038064956665039,-0.10603124648332596
1771082003182006500,2.182006591796875,-0.022993087768554688,-0.10470783710479736,-0.0886785164475441
1771082003191948000,2.191947998046875,-0.010247230529785156,-0.11345994472503662,-0.051281608641147614
1771082003201889500,2.2018896484375,0.04952526092529297,-0.11355030536651611,-0.039487168192863464
1771082003211830800,2.211830810546875,0.15083980560302734,-0.08392667770385742,0.020545214414596558
1771082003221772300,2.221772216796875,0.15875911712646484,-0.08589768409729004,-0.004085436463356018
1771082003231713800,2.2317138671875,0.21135711669921875,-0.050469160079956055,-0.02447139471769333
1771082003241655300,2.2416552734375,0.14058208465576172,-0.09508085250854492,-0.04321084916591644
1771082003261538000,2.2615380859375,-0.0749654769897461,-0.12230467796325684,-0.12038260698318481
1771082003281420800,2.2814208984375,-0.07385063171386719,-0.028940200805664062,-0.052678801119327545
1771082003291362300,2.2913623046875,0.035297393798828125,0.006632447242736816,-0.01941346377134323
1771082003301303800,2.3013037109375,0.13328170776367188,0.04121553897857666,0.04130662977695465
1771082003311245000,2.3112451171875,0.16635417938232422,0.05950939655303955,0.06243538856506348
1771082003321186600,2.3211865234375,0.14974212646484375,0.03107762336730957,0.004489868879318237
1771082003341069300,2.3410693359375,0.15319061279296875,-0.03383946418762207,-0.08582806587219238
1771082003360952000,2.3609521484375,-0.0038709640502929688,0.007561445236206055,0.024025753140449524
1771082003370893600,2.3708935546875,-0.04546165466308594,0.041254281997680664,0.07421979308128357
1771082003380834800,2.380834716796875,-0.04210376739501953,0.06992721557617188,0.057241540402173996
1771082003390776300,2.3907763671875,0.017360687255859375,0.08118748664855957,0.025947563350200653
1771082003410659000,2.4106591796875,0.10974788665771484,-0.027222871780395508,-0.027013689279556274
1771082003430542000,2.4305419921875,0.026864051818847656,0.011844754219055176,0.04543022811412811
1771082003440483300,2.4404833984375,0.010702133178710938,0.03585255146026611,0.039058953523635864
1771082003460366000,2.460365966796875,0.026067733764648438,0.051277995109558105,0.0012730956077575684
1771082003480249000,2.4802490234375,-0.018157958984375,-0.0358586311340332,-0.005205079913139343
1771082003490190300,2.4901904296875,-0.050457000732421875,-0.03465127944946289,0.015290960669517517
1771082003500131800,2.5001318359375,-0.051712989807128906,-0.014125704765319824,0.016468919813632965
1771082003520014600,2.5200146484375,0.0018835067749023438,-0.005300760269165039,-0.013482503592967987
1771082003529956000,2.5299560546875,0.00927734375,-0.023629426956176758,0.006720595061779022
1771082003539897300,2.5398974609375,0.07312297821044922,-0.04675877094268799,-0.011542990803718567
1771082003549838800,2.5498388671875,0.09361457824707031,-0.06519794464111328,-0.03837791085243225
1771082003559780400,2.5597802734375,0.047878265380859375,-0.07401764392852783,-0.021266013383865356
1771082003569721600,2.5697216796875,-0.004218101501464844,-0.04933512210845947,0.00640028715133667
1771082003579663000,2.5796630859375,-0.09325790405273438,-0.04545128345489502,0.030016712844371796
1771082003589604400,2.589604248046875,-0.11042213439941406,-0.07339048385620117,-0.01767049729824066
1771082003599545900,2.5995458984375,-0.047379493713378906,-0.06730926036834717,-0.04640718549489975
1771082003609487400,2.6094873046875,0.0194091796875,-0.06889522075653076,-0.04254382848739624
1771082003619428600,2.6194287109375,0.094818115234375,-0.09099173545837402,-0.03762964904308319
1771082003629370000,2.6293701171875,0.06816673278808594,-0.09608864784240723,-0.023519665002822876
1771082003639311600,2.6393115234375,-0.08483600616455078,-0.05807054042816162,-0.0024023279547691345
1771082003649252900,2.6492529296875,-0.272979736328125,-0.0041016340255737305,-0.0032874196767807007
1771082003659194400,2.6591943359375,-0.3641510009765625,0.048220038414001465,0.027162037789821625
1771082003669135600,2.669135498046875,-0.28710269927978516,0.07127046585083008,0.0341176763176918
1771082003679077000,2.6790771484375,-0.12690162658691406,0.06964612007141113,0.05963268503546715
1771082003698960000,2.6989599609375,0.06587791442871094,-0.02480781078338623,0.06566053628921509
1771082003718842600,2.718842529296875,0.11921405792236328,-0.09911859035491943,-0.036269888281822205
1771082003738725600,2.7387255859375,0.1176614761352539,-0.0799940824508667,-0.04429508000612259
1771082003758608400,2.7586083984375,0.22372913360595703,-0.04532742500305176,-0.006438903510570526
1771082003768550000,2.7685498046875,0.1523265838623047,-0.03584897518157959,-0.02044396847486496
1771082003788432600,2.7884326171875,-0.07011795043945312,-0.050660133361816406,-0.06425529718399048
1771082003808315400,2.8083154296875,-0.1782360076904297,-0.005370020866394043,0.032565511763095856
1771082003818257000,2.8182568359375,-0.11839580535888672,0.020911693572998047,0.08170905709266663
1771082003828198100,2.8281982421875,-0.0032815933227539062,0.05266892910003662,0.10238087177276611
1771082003838139600,2.8381396484375,0.07683181762695312,0.02574312686920166,0.10800457745790482
1771082003848081200,2.8480810546875,0.08966732025146484,-0.007595539093017578,0.08975373208522797
1771082003858022400,2.8580224609375,0.06935882568359375,-0.00751650333404541,0.05901948735117912
1771082003877905200,2.8779052734375,-0.06372642517089844,-0.006651163101196289,0.0579758957028389
1771082003897788200,2.8977880859375,-0.04163169860839844,-0.022719264030456543,0.05309024453163147
1771082003907729400,2.9077294921875,0.06057929992675781,-0.021518826484680176,0.05839582160115242
1771082003927612200,2.927612060546875,0.13130855560302734,-0.03522908687591553,0.043874941766262054
1771082003937553700,2.9375537109375,0.026185989379882812,-0.03316140174865723,-0.009858742356300354
1771082003957436400,2.9574365234375,-0.1698141098022461,-0.0483243465423584,-0.07053202390670776
1771082003967378000,2.9673779296875,-0.20911693572998047,-0.02982616424560547,-0.018172919750213623
1771082003977319400,2.9773193359375,-0.1984577178955078,0.007797837257385254,0.036544524133205414
1771082003987260700,2.9872607421875,-0.09383678436279297,0.04254603385925293,0.06535116583108902
1771082003997202200,2.9972021484375,-0.007367134094238281,0.05748796463012695,0.10215853154659271
1771082004007143400,3.007143310546875,0.0683441162109375,0.04578995704650879,0.08875374495983124
1771082004017085000,3.0170849609375,0.10052204132080078,-0.0062313079833984375,0.048039957880973816
1771082004027026400,3.0270263671875,0.0780649185180664,-0.06700325012207031,0.014089711010456085
1771082004036967700,3.0369677734375,0.022989273071289062,-0.07712411880493164,-0.00145818293094635
1771082004046909200,3.0469091796875,-0.052455902099609375,-0.05126488208770752,-0.014353320002555847
1771082004056850700,3.0568505859375,-0.06795024871826172,-0.036811232566833496,-0.03228132426738739
1771082004066792000,3.0667919921875,-0.007976531982421875,-0.03848135471343994,-0.02259700745344162
1771082004076733400,3.0767333984375,0.0745382308959961,-0.04012501239776611,0.028864014893770218
1771082004086674700,3.0866748046875,0.16992473602294922,-0.04233849048614502,0.053710006177425385
1771082004096616200,3.0966162109375,0.18392467498779297,-0.038648366928100586,0.046319425106048584
1771082004106557700,3.1065576171875,0.11316680908203125,-0.043180227279663086,0.01437278464436531
1771082004116499000,3.1164990234375,0.0060024261474609375,-0.0503917932510376,-0.0028558149933815002
1771082004126440400,3.1264404296875,-0.0876455307006836,-0.047867417335510254,0.019885919988155365
1771082004136381700,3.136381591796875,-0.12101936340332031,-0.0352708101272583,0.0159909725189209
1771082004146323200,3.1463232421875,-0.11631488800048828,-0.026893258094787598,0.04198862984776497
1771082004156264700,3.1562646484375,-0.06473159790039062,0.005487918853759766,0.057278528809547424
1771082004166206000,3.1662060546875,0.0048465728759765625,0.0019167661666870117,0.039194587618112564
1771082004176147500,3.1761474609375,0.023908615112304688,-0.01847255229949951,0.014888424426317215
1771082004186089000,3.1860888671875,-0.013766288757324219,-0.048337459564208984,-0.020464561879634857
1771082004196030200,3.1960302734375,-0.0555419921875,-0.07290041446685791,-0.05535012483596802
1771082004205971700,3.2059716796875,-0.09666156768798828,-0.056835293769836426,-0.016693204641342163
1771082004215913000,3.215912841796875,-0.09482288360595703,-0.02641463279724121,0.03961468115448952
1771082004225854500,3.2258544921875,-0.05072021484375,0.0038979053497314453,0.059470321983098984
1771082004245737200,3.2457373046875,-0.06316661834716797,0.0079423189163208,0.027623653411865234
1771082004255678700,3.2556787109375,-0.045777320861816406,-0.017422199249267578,0.02599436789751053
1771082004265620000,3.265619873046875,0.02533245086669922,-0.01106250286102295,0.03424675017595291
1771082004275561500,3.2755615234375,0.07642936706542969,0.009315848350524902,0.031545959413051605
1771082004285503000,3.2855029296875,0.07265090942382812,0.01698589324951172,0.07649485766887665
1771082004295444200,3.2954443359375,0.0502166748046875,0.012162446975708008,0.10569398105144501
1771082004305385700,3.3053857421875,0.09662723541259766,-0.0029894113540649414,0.09101559221744537
1771082004315327200,3.3153271484375,0.13777637481689453,-0.011919498443603516,0.03618208318948746
1771082004325268500,3.3252685546875,0.15496349334716797,-0.03847849369049072,-0.005786936730146408
1771082004335210000,3.3352099609375,0.0991525650024414,-0.049414992332458496,-0.0814957246184349
1771082004345151200,3.345151123046875,-0.05687141418457031,-0.0629270076751709,-0.09074434638023376
1771082004355092700,3.3550927734375,-0.25283050537109375,-0.011851072311401367,-0.04517367482185364
1771082004365034200,3.3650341796875,-0.3729095458984375,0.042523860931396484,0.017872828990221024
1771082004374975500,3.3749755859375,-0.40911006927490234,0.11026012897491455,0.07823888957500458
1771082004384917000,3.3849169921875,-0.27101707458496094,0.13934040069580078,0.1186194196343422
1771082004394858500,3.3948583984375,0.026906967163085938,0.11528432369232178,0.09327858686447144
1771082004404799700,3.4047998046875,0.28224658966064453,0.006678223609924316,0.04599491506814957
1771082004414741200,3.4147412109375,0.3876638412475586,-0.11563730239868164,-0.025909680873155594
1771082004424682500,3.4246826171875,0.3551368713378906,-0.18110573291778564,-0.09339401125907898
1771082004434624000,3.4346240234375,0.2269430160522461,-0.1810605525970459,-0.12480348348617554
1771082004444565500,3.4445654296875,0.11525917053222656,-0.11865150928497314,-0.1416865736246109
1771082004454506800,3.4545068359375,0.019762039184570312,-0.06534731388092041,-0.11256137490272522
1771082004464448300,3.4644482421875,-0.05515289306640625,0.005105733871459961,-0.04988345503807068
1771082004474389500,3.474389404296875,-0.08177947998046875,0.022794246673583984,-0.03631085157394409
1771082004484331000,3.4843310546875,-0.08920955657958984,-0.011203289031982422,-0.08427319675683975
1771082004494272500,3.4942724609375,-0.028322219848632812,-0.06071591377258301,-0.13853976130485535
1771082004504213800,3.5042138671875,-0.06501197814941406,-0.11862671375274658,-0.14438165724277496
1771082004514155300,3.5141552734375,-0.08005619049072266,-0.10189568996429443,-0.12339295446872711
1771082004524096800,3.5240966796875,-0.017340660095214844,-0.10102903842926025,-0.09790761023759842
1771082004534038000,3.5340380859375,0.03719520568847656,-0.07859218120574951,-0.05052408576011658
1771082004543979500,3.5439794921875,0.0767221450805664,-0.04485821723937988,-0.015024609863758087
1771082004553920800,3.553920654296875,0.07096576690673828,-0.021599650382995605,0.04143247380852699
1771082004563862300,3.5638623046875,0.044198036193847656,-0.027373790740966797,0.06165749579668045
1771082004573803800,3.5738037109375,-0.010318756103515625,-0.04747116565704346,0.015249788761138916
1771082004583745000,3.5837451171875,-0.04751014709472656,-0.07870423793792725,-0.039960019290447235
1771082004593686500,3.5936865234375,-0.044261932373046875,-0.1084216833114624,-0.05662208050489426
1771082004603628000,3.6036279296875,-0.0058917999267578125,-0.11576318740844727,-0.06076015532016754
1771082004613569300,3.6135693359375,0.0647268295288086,-0.0966944694519043,-0.04300706833600998
1771082004623510800,3.6235107421875,0.09894371032714844,-0.07599127292633057,0.01981859654188156
1771082004633452000,3.6334521484375,0.0763387680053711,-0.03563857078552246,0.07507414370775223
1771082004643393500,3.6433935546875,-0.030439376831054688,-0.013430237770080566,0.09655105322599411
1771082004653335000,3.6533349609375,-0.13773441314697266,-0.0012990236282348633,0.0702487900853157
1771082004663276300,3.6632763671875,-0.1868734359741211,0.0018148422241210938,0.045603975653648376
1771082004673217800,3.6732177734375,-0.16008663177490234,0.0036188364028930664,0.01851685345172882
1771082004683159000,3.683158935546875,-0.1433391571044922,-0.007842421531677246,-0.0028160810470581055
1771082004693100500,3.6931005859375,-0.17178058624267578,-0.006450057029724121,0.025962509214878082
1771082004703042000,3.7030419921875,-0.14813804626464844,0.002878546714782715,0.06124452129006386
1771082004712983300,3.7129833984375,-0.10847663879394531,0.033539772033691406,0.11419570446014404
1771082004722924800,3.7229248046875,-0.012907981872558594,0.08919882774353027,0.1558162271976471
1771082004732866300,3.7328662109375,0.04834270477294922,0.08624780178070068,0.15606945753097534
1771082004742807600,3.7428076171875,0.0734720230102539,0.06578540802001953,0.13918817043304443
1771082004752749000,3.7527490234375,0.07715320587158203,0.026044368743896484,0.09188869595527649
1771082004762690300,3.762690185546875,0.062007904052734375,-0.018041133880615234,0.01303555816411972
1771082004772631800,3.7726318359375,-0.00942230224609375,-0.054134368896484375,-0.026318877935409546
1771082004782573300,3.7825732421875,-0.05632591247558594,-0.06744873523712158,-0.055922143161296844
1771082004792514600,3.7925146484375,-0.008502960205078125,-0.051201462745666504,-0.05239409953355789
1771082004802456000,3.8024560546875,0.0642242431640625,-0.043650269508361816,-0.02710147202014923
1771082004812397300,3.812397216796875,0.09804725646972656,-0.03602743148803711,0.015502206981182098
1771082004822338800,3.8223388671875,0.10065555572509766,-0.023522138595581055,0.06567345559597015
1771082004832280300,3.8322802734375,0.08434486389160156,-0.011017322540283203,0.07029911875724792
1771082004842221600,3.8422216796875,0.15552711486816406,-0.018143773078918457,0.017569616436958313
1771082004852163000,3.8521630859375,0.19517135620117188,-0.06411564350128174,-0.03970746695995331
1771082004862104600,3.8621044921875,0.18499374389648438,-0.08011233806610107,-0.05409179627895355
1771082004872045800,3.8720458984375,0.11164569854736328,-0.09694385528564453,-0.07753509283065796
1771082004881987300,3.8819873046875,0.034877777099609375,-0.09261155128479004,-0.09568102657794952
1771082004891928600,3.891928466796875,-0.000583648681640625,-0.06717491149902344,-0.0992819219827652
1771082004901870000,3.9018701171875,-0.033100128173828125,-0.023335933685302734,-0.02535228431224823
1771082004911811600,3.9118115234375,-0.05097675323486328,0.022225141525268555,0.039763517677783966
1771082004921752800,3.9217529296875,-0.04975128173828125,0.0435943603515625,0.08440418541431427
1771082004931694300,3.9316943359375,-0.03206348419189453,0.048140645027160645,0.07678945362567902
1771082004941635800,3.9416357421875,-0.06886863708496094,0.027019023895263672,0.030157916247844696
1771082004951577000,3.9515771484375,-0.14052677154541016,-0.009434223175048828,-0.01266467571258545
1771082004961518600,3.9615185546875,-0.16884708404541016,-0.03231644630432129,-0.033048808574676514
1771082004971459800,3.9714599609375,-0.15220165252685547,-0.006541848182678223,-0.012754350900650024
1771082004981401300,3.9814013671875,-0.126556396484375,0.026561856269836426,0.021405771374702454
1771082004991342800,3.9913427734375,-0.09196949005126953,0.028717041015625,0.04981166124343872
1771082005001284000,4.0012841796875,-0.04855918884277344,-0.020951509475708008,0.017872095108032227
1771082005011225600,4.0112255859375,0.05296039581298828,-0.029672622680664062,0.0026048272848129272
1771082005021166800,4.021166748046875,0.1082448959350586,-0.017948150634765625,-0.00015798211097717285
1771082005031108400,4.0311083984375,0.09689807891845703,-0.08039200305938721,-0.08010780811309814
1771082005041049900,4.0410498046875,0.06473159790039062,-0.133186936378479,-0.12503062188625336
1771082005050991000,4.0509912109375,-0.04450798034667969,-0.10772192478179932,-0.09283368289470673
1771082005060932600,4.0609326171875,-0.1967477798461914,-0.04923141002655029,-0.08431987464427948
1771082005070874000,4.0708740234375,-0.3043680191040039,0.00026547908782958984,-0.05787147581577301
1771082005080815400,4.0808154296875,-0.2835397720336914,0.01582205295562744,-0.04071907699108124
1771082005090756900,4.0907568359375,-0.07975482940673828,0.03497457504272461,0.0029062777757644653
1771082005100698000,4.100697998046875,0.13945770263671875,0.01154017448425293,-0.014910444617271423
1771082005110639600,4.1106396484375,0.17866039276123047,-0.06653952598571777,-0.08257409930229187
1771082005120581000,4.1205810546875,0.15153217315673828,-0.12558341026306152,-0.12700656056404114
1771082005130522400,4.1305224609375,0.08974742889404297,-0.14227187633514404,-0.14246703684329987
1771082005140463900,4.1404638671875,0.06202125549316406,-0.11907517910003662,-0.1655091792345047
1771082005150405400,4.1504052734375,0.07007789611816406,-0.0775519609451294,-0.15610235929489136
1771082005160346600,4.1603466796875,0.10152816772460938,-0.039095163345336914,-0.11241278052330017
1771082005170288000,4.1702880859375,0.12065696716308594,-0.045823097229003906,-0.07846851646900177
1771082005180229400,4.1802294921875,0.14886474609375,-0.03566431999206543,-0.05049706995487213
1771082005190171000,4.1901708984375,0.11546039581298828,-0.03754842281341553,-0.0611388236284256
1771082005210053600,4.2100537109375,-0.05205821990966797,-0.04628193378448486,-0.0720403641462326
1771082005219995100,4.2199951171875,-0.08438682556152344,-0.0015610456466674805,-0.023334592580795288
1771082005229936400,4.229936279296875,-0.059769630432128906,0.03554248809814453,0.041141629219055176
1771082005239878000,4.2398779296875,0.0350494384765625,0.09077537059783936,0.11266264319419861
1771082005249819400,4.2498193359375,0.08819198608398438,0.07488477230072021,0.12452909350395203
1771082005259760600,4.2597607421875,0.15224838256835938,0.0687870979309082,0.1262999176979065
1771082005269702100,4.2697021484375,0.14942359924316406,0.0554424524307251,0.11355505883693695
1771082005279643600,4.2796435546875,0.09736919403076172,0.029758334159851074,0.103636234998703
1771082005289585000,4.2895849609375,0.07694053649902344,0.022443413734436035,0.09537842869758606
1771082005299526400,4.2995263671875,0.06410980224609375,0.02818894386291504,0.11173655092716217
1771082005309467600,4.309467529296875,0.08929634094238281,0.016475558280944824,0.12398764491081238
1771082005319409200,4.3194091796875,0.06469249725341797,0.021053791046142578,0.12408092617988586
1771082005329350700,4.3293505859375,0.07343482971191406,-0.0000324249267578125,0.08081753551959991
1771082005339292000,4.3392919921875,0.0278167724609375,-0.03194713592529297,0.009607985615730286
1771082005349233400,4.3492333984375,-0.03831195831298828,-0.0674600601196289,-0.019250214099884033
1771082005359174700,4.359174560546875,-0.09640026092529297,-0.061675071716308594,0.011511445045471191
1771082005379057700,4.3790576171875,-0.09045696258544922,0.021598219871520996,0.08549773693084717
1771082005398940400,4.3989404296875,0.0683145523071289,0.03419172763824463,0.07369640469551086
1771082005418823200,4.4188232421875,0.08000755310058594,-0.06616008281707764,0.04037858545780182
1771082005438706000,4.438705810546875,0.08901214599609375,-0.03269386291503906,-0.012520521879196167
1771082005448647400,4.4486474609375,0.05934619903564453,-0.05783271789550781,-0.0225619375705719
1771082005458589000,4.4585888671875,0.03259563446044922,-0.06882846355438232,-0.023537546396255493
1771082005468530200,4.4685302734375,-0.0078277587890625,-0.0750347375869751,-0.008435845375061035
1771082005478471700,4.4784716796875,-0.035849571228027344,-0.038565993309020996,-0.007950574159622192
1771082005488413200,4.4884130859375,-0.0070037841796875,0.000046133995056152344,0.02702230215072632
1771082005498354400,4.4983544921875,0.08261585235595703,-0.004556179046630859,0.03800812363624573
1771082005518237200,4.5182373046875,-0.10964584350585938,-0.05898475646972656,-0.006460130214691162
1771082005538120200,4.5381201171875,-0.21511363983154297,-0.03948390483856201,-0.04960310459136963
1771082005558003000,4.5580029296875,-0.08455944061279297,0.025695443153381348,0.030934244394302368
1771082005567944200,4.567944091796875,0.02478313446044922,0.019809484481811523,0.040514856576919556
1771082005577885700,4.5778857421875,0.0735616683959961,-0.0053958892822265625,0.031198054552078247
1771082005587827200,4.5878271484375,0.07931804656982422,-0.05922818183898926,-0.015214115381240845
1771082005607710000,4.6077099609375,0.03688335418701172,-0.09461545944213867,-0.02895292639732361
1771082005627592700,4.6275927734375,-0.0063114166259765625,-0.027081608772277832,0.00834113359451294
1771082005637534200,4.6375341796875,0.0076313018798828125,-0.013277888298034668,0.029954522848129272
1771082005657417000,4.6574169921875,0.07666301727294922,-0.07113313674926758,0.002559095621109009
1771082005667358500,4.6673583984375,0.035361289978027344,-0.07446014881134033,0.017782092094421387
1771082005687241200,4.6872412109375,0.01099395751953125,-0.002437591552734375,0.0164622962474823
1771082005697182700,4.6971826171875,-0.003261566162109375,-0.009637832641601562,0.04267972707748413
1771082005707124000,4.7071240234375,0.029799461364746094,-0.026119470596313477,0.0377507209777832
1771082005717065500,4.7170654296875,0.043503761291503906,-0.06586289405822754,-0.034433573484420776
1771082005736948200,4.7369482421875,-0.07217884063720703,-0.10892724990844727,-0.15468496084213257
1771082005746889700,4.7468896484375,-0.10845661163330078,-0.11234509944915771,-0.19659003615379333
1771082005766772500,4.7667724609375,-0.32679271697998047,0.06026458740234375,-0.0014865100383758545
1771082005786655200,4.7866552734375,-0.2063741683959961,0.12166261672973633,0.06288692355155945
1771082005806538000,4.8065380859375,0.07422161102294922,0.011590003967285156,-0.08953812718391418
1771082005826421000,4.8264208984375,0.10996437072753906,-0.1806623935699463,-0.24671542644500732
1771082005846303700,4.8463037109375,0.08710575103759766,-0.14708030223846436,-0.18496757745742798
1771082005866186500,4.8661865234375,0.09524726867675781,-0.02546083927154541,0.01663193106651306
1771082005886069200,4.8860693359375,0.22436237335205078,-0.08517909049987793,-0.008737444877624512
1771082005905952000,4.905951904296875,0.5008859634399414,-0.22315704822540283,-0.03286990523338318
1771082005925835000,4.9258349609375,0.3304281234741211,-0.13688552379608154,0.1123635470867157
1771082005935776300,4.9357763671875,0.24556350708007812,-0.07701468467712402,0.1508781909942627
1771082005955659300,4.9556591796875,0.13685894012451172,-0.03454267978668213,0.13628053665161133
1771082005965600500,4.9656005859375,0.10937023162841797,-0.030308961868286133,0.10037319362163544
1771082005975542000,4.9755419921875,0.023650169372558594,-0.0198819637298584,0.10796129703521729
1771082005995424800,4.9954248046875,-0.21581172943115234,0.026124000549316406,0.16582059860229492
1771082006005366300,5.0053662109375,-0.27050209045410156,0.06757998466491699,0.18058820068836212
1771082006015307500,5.0153076171875,-0.28460216522216797,0.10772502422332764,0.18518099188804626
1771082006025249000,5.0252490234375,-0.2258596420288086,0.09027516841888428,0.14700962603092194
1771082006035190500,5.0351904296875,-0.10948657989501953,0.04147350788116455,0.10488000512123108
1771082006045131800,5.0451318359375,0.0025577545166015625,-0.01092374324798584,0.04060932993888855
1771082006055073300,5.0550732421875,0.056354522705078125,-0.05127918720245361,0.013004809617996216
1771082006065014500,5.0650146484375,0.0929422378540039,-0.07539379596710205,-0.04256752133369446
1771082006074956000,5.0749560546875,0.06569766998291016,-0.09857964515686035,-0.10670137405395508
1771082006084897500,5.0848974609375,-0.017276763916015625,-0.08318424224853516,-0.06479382514953613
1771082006094838800,5.0948388671875,-0.08931446075439453,-0.014909029006958008,0.007598668336868286
1771082006104780300,5.1047802734375,-0.12245655059814453,0.05430126190185547,0.04248407483100891
1771082006114721500,5.114721435546875,-0.15747547149658203,0.05911087989807129,0.01970013976097107
1771082006124663000,5.1246630859375,-0.17568111419677734,0.022678256034851074,-0.005761086940765381
1771082006134604500,5.1346044921875,-0.09033012390136719,-0.016150951385498047,-0.03125771880149841
1771082006144545800,5.1445458984375,0.038138389587402344,-0.043828368186950684,-0.03697124123573303
1771082006154487300,5.1544873046875,0.12908554077148438,-0.04466211795806885,-0.029914826154708862
1771082006164428800,5.1644287109375,0.21153545379638672,-0.050598740577697754,-0.01822561025619507
1771082006174370000,5.1743701171875,0.26455020904541016,-0.07392215728759766,-0.018542051315307617
1771082006184311600,5.1843115234375,0.2745943069458008,-0.07246863842010498,0.0023769140243530273
1771082006194252800,5.194252685546875,0.2541027069091797,-0.058220863342285156,0.04605036973953247
1771082006204194300,5.2041943359375,0.2505760192871094,-0.026175618171691895,0.08145029842853546
1771082006214135800,5.2141357421875,0.23076915740966797,0.011708736419677734,0.1305806040763855
1771082006224077000,5.2240771484375,0.19952392578125,0.0019893646240234375,0.11614170670509338
1771082006234018600,5.2340185546875,0.12172603607177734,-0.06161820888519287,0.01132810115814209
1771082006243960000,5.2439599609375,0.014596939086914062,-0.11692798137664795,-0.10084770619869232
1771082006253901300,5.2539013671875,-0.03437995910644531,-0.12130618095397949,-0.09213785827159882
1771082006263842800,5.2638427734375,-0.014309883117675781,-0.09708571434020996,-0.033844783902168274
1771082006273784000,5.2737841796875,-0.0369110107421875,-0.03099358081817627,0.08782465755939484
1771082006283725600,5.2837255859375,-0.1249847412109375,0.024297356605529785,0.09038746356964111
1771082006293667000,5.2936669921875,-0.15513324737548828,0.05063652992248535,0.11385057121515274
1771082006303608300,5.3036083984375,-0.1164388656616211,0.0808725357055664,0.1647879034280777
1771082006313549800,5.3135498046875,-0.11819648742675781,0.0860971212387085,0.16878509521484375
1771082006323491000,5.323490966796875,-0.26569461822509766,0.0409320592880249,0.11487443745136261
1771082006333432600,5.3334326171875,-0.43670082092285156,0.003906607627868652,0.012001752853393555
1771082006343374000,5.3433740234375,-0.5227870941162109,-0.016865849494934082,-0.09304724633693695
1771082006353315300,5.3533154296875,-0.5066947937011719,-0.01146078109741211,-0.16036932170391083
1771082006363256800,5.3632568359375,-0.36655235290527344,-0.025154948234558105,-0.15010954439640045
1771082006373198300,5.3731982421875,-0.18894577026367188,-0.042150020599365234,-0.1183701753616333
1771082006383139600,5.3831396484375,-0.1202850341796875,-0.03728210926055908,-0.06443572044372559
1771082006393081000,5.3930810546875,-0.13048458099365234,-0.015807509422302246,0.0034020990133285522
1771082006403022300,5.403022216796875,-0.09826087951660156,0.005925893783569336,0.013584107160568237
1771082006412963800,5.4129638671875,-0.021936416625976562,0.006618618965148926,-0.03739836812019348
1771082006422905300,5.4229052734375,0.024906158447265625,-0.016435742378234863,-0.13445986807346344
1771082006432846600,5.4328466796875,0.08045196533203125,-0.0936591625213623,-0.22820746898651123
1771082006452729300,5.452729248046875,0.08588314056396484,-0.17248618602752686,-0.36192646622657776
1771082006462670800,5.4626708984375,-0.0051212310791015625,-0.1269829273223877,-0.2949882745742798
1771082006472612400,5.4726123046875,0.015860557556152344,-0.03898942470550537,-0.17553016543388367
1771082006482553600,5.4825537109375,0.09749794006347656,0.053338050842285156,-0.04593154788017273
1771082006492495000,5.4924951171875,0.2317647933959961,0.1003115177154541,0.054009079933166504
1771082006502436600,5.5024365234375,0.3756246566772461,0.11337172985076904,0.07336804270744324
1771082006522319400,5.5223193359375,0.33144283294677734,-0.01894843578338623,-0.11681805551052094
1771082006532260600,5.532260498046875,0.2648639678955078,-0.04517507553100586,-0.1959208846092224
1771082006542202000,5.5422021484375,0.2324962615966797,-0.07405006885528564,-0.1984197199344635
1771082006562084900,5.5620849609375,0.1574726104736328,-0.021338343620300293,-0.11421139538288116
1771082006572026400,5.5720263671875,0.08242416381835938,0.011959433555603027,-0.09663443267345428
1771082006581967600,5.581967529296875,0.05113792419433594,0.06978023052215576,-0.04280085861682892
1771082006591909000,5.5919091796875,0.04179859161376953,0.09698271751403809,0.008630961179733276
1771082006601850400,5.601850341796875,-0.004817008972167969,0.09408926963806152,0.07415817677974701
1771082006611792000,5.6117919921875,-0.055136680603027344,0.08525228500366211,0.11857110261917114
1771082006621733000,5.621733154296875,-0.1634988784790039,0.09081244468688965,0.1266828179359436
1771082006631674400,5.63167431640625,-0.2374258041381836,0.08152222633361816,0.10418932139873505
1771082006651557000,5.65155712890625,-0.12784194946289062,0.0018241405487060547,0.052625879645347595
1771082006671440000,5.67143994140625,-0.042079925537109375,-0.010621428489685059,0.12203210592269897
1771082006681381000,5.681381103515625,0.01291656494140625,-0.004089832305908203,0.13670550286769867
1771082006701264000,5.701263916015625,0.14621448516845703,-0.013521194458007812,0.1584072709083557
1771082006721146600,5.721146728515625,0.054337501525878906,-0.07591760158538818,0.05043879151344299
1771082006731088100,5.731088134765625,-0.051161766052246094,-0.11672389507293701,0.0018978267908096313
1771082006741029400,5.741029296875,-0.16442298889160156,-0.12565910816192627,-0.035959839820861816
1771082006750970600,5.750970703125,-0.2572288513183594,-0.09304046630859375,-0.03498184680938721
1771082006760912100,5.760912109375,-0.29003143310546875,-0.03308606147766113,0.02008529007434845
1771082006770853400,5.770853271484375,-0.2120075225830078,0.004124999046325684,0.09043474495410919
1771082006780795000,5.780794921875,-0.09302711486816406,0.03662228584289551,0.14572718739509583
1771082006790736100,5.790736083984375,-0.030094146728515625,0.04230952262878418,0.17925238609313965
1771082006800677400,5.800677490234375,-0.07169151306152344,0.03801131248474121,0.13034069538116455
1771082006820560100,5.82056005859375,-0.1617584228515625,-0.009877800941467285,-0.005828499794006348
1771082006840443000,5.84044287109375,-0.07904815673828125,-0.05004417896270752,0.008940339088439941
1771082006850384400,5.85038427734375,-0.018874168395996094,-0.02343308925628662,0.06887808442115784
1771082006860325600,5.86032568359375,0.03323650360107422,-0.001959085464477539,0.10687034577131271
1771082006870267000,5.870266845703125,0.07513904571533203,-0.004665851593017578,0.06977201998233795
1771082006890149600,5.890149658203125,0.024086952209472656,-0.05600404739379883,0.028707221150398254
1771082006910032600,5.91003271484375,0.09721946716308594,-0.13026463985443115,-0.10198920965194702
1771082006929915400,5.929915283203125,0.20372772216796875,-0.13188660144805908,-0.027022704482078552
1771082006949798100,5.949798095703125,0.0821218490600586,-0.037029266357421875,0.08849470317363739
1771082006959739600,5.95973974609375,-0.10454082489013672,-0.015933752059936523,0.07841415703296661
1771082006969681000,5.969680908203125,-0.15877723693847656,-0.011054277420043945,0.03584422171115875
1771082006979622400,5.979622314453125,-0.08280181884765625,-0.05018734931945801,-0.020818904042243958
1771082006999505200,5.999505126953125,-0.11766338348388672,-0.08955812454223633,-0.013628542423248291
1771082007009446700,6.00944677734375,-0.15338516235351562,-0.054697632789611816,0.03177836537361145
1771082007029329400,6.029329345703125,-0.05508708953857422,0.007752537727355957,0.057596355676651
1771082007049212200,6.049212158203125,-0.020888328552246094,-0.00747525691986084,0.06993727385997772
1771082007069095200,6.06909521484375,0.10071659088134766,-0.030819058418273926,0.041728660464286804
1771082007079036400,6.079036376953125,0.15067291259765625,-0.020161032676696777,0.007569342851638794
1771082007088978000,6.08897802734375,0.17171287536621094,-0.01038980484008789,0.022059738636016846
1771082007108860700,6.108860595703125,-0.06763648986816406,0.0386195182800293,0.07016238570213318
1771082007128743400,6.128743408203125,-0.17011070251464844,0.13047325611114502,0.05978189408779144
1771082007148626200,6.148626220703125,-0.04640388488769531,0.11153125762939453,0.0728122889995575
1771082007168509200,6.16850927734375,0.098846435546875,-0.009294629096984863,0.0058756619691848755
1771082007188392000,6.188391845703125,0.14162445068359375,-0.07656192779541016,-0.0979132205247879
1771082007198333400,6.19833349609375,0.16512107849121094,-0.08692872524261475,-0.11334718763828278
1771082007218216200,6.21821630859375,0.07799816131591797,-0.021717429161071777,-0.10613305866718292
1771082007238099000,6.238098876953125,-0.10513114929199219,-0.0011883974075317383,-0.07882671058177948
1771082007257981700,6.257981689453125,-0.039859771728515625,-0.04151606559753418,-0.08307939767837524
1771082007277864400,6.277864501953125,0.23219966888427734,-0.088309645652771,-0.12280392646789551
1771082007287806000,6.287805908203125,0.20757007598876953,-0.15216290950775146,-0.17188069224357605
1771082007297747500,6.29774755859375,0.08233928680419922,-0.18055367469787598,-0.19987009465694427
1771082007307688700,6.307688720703125,-0.05963134765625,-0.16139912605285645,-0.20612561702728271
1771082007317630200,6.317630126953125,-0.13582992553710938,-0.11598014831542969,-0.19679588079452515
1771082007327571700,6.32757177734375,-0.12627410888671875,-0.08661150932312012,-0.15583977103233337
1771082007337513000,6.337512939453125,-0.07233333587646484,-0.0545802116394043,-0.11656355857849121
1771082007347454500,6.347454345703125,0.018245697021484375,-0.04366505146026611,-0.11124059557914734
1771082007357395700,6.357395751953125,0.06958866119384766,-0.09384143352508545,-0.13884681463241577
1771082007367337200,6.367337158203125,0.11772823333740234,-0.16899573802947998,-0.16992506384849548
1771082007377278700,6.37727880859375,0.1133127212524414,-0.19123423099517822,-0.1694018840789795
1771082007387220000,6.387219970703125,0.12082195281982422,-0.1711595058441162,-0.1503920555114746
1771082007397161500,6.397161376953125,0.14475440979003906,-0.12830591201782227,-0.12523382902145386
1771082007407103000,6.40710302734375,0.13310718536376953,-0.07275867462158203,-0.041955649852752686
1771082007417044200,6.417044189453125,0.09111499786376953,-0.04669523239135742,0.03303179144859314
1771082007426985700,6.42698583984375,0.02395343780517578,-0.03284120559692383,0.03937327861785889
1771082007436927000,6.436927001953125,-0.03977775573730469,-0.009505271911621094,0.053150832653045654
1771082007456810000,6.45681005859375,-0.08699512481689453,0.011673331260681152,0.05352160334587097
1771082007466751200,6.466751220703125,-0.09964942932128906,0.04690706729888916,0.07991039752960205
1771082007476692700,6.476692626953125,-0.116790771484375,0.06958580017089844,0.14029529690742493
1771082007486634000,6.486634033203125,-0.10301399230957031,0.08924674987792969,0.20336440205574036
1771082007496575500,6.496575439453125,-0.08940315246582031,0.11291623115539551,0.20853972434997559
1771082007506517000,6.50651708984375,-0.12066841125488281,0.10275554656982422,0.16608399152755737
1771082007516458200,6.516458251953125,-0.14436054229736328,0.08326387405395508,0.12804779410362244
1771082007526399700,6.526399658203125,-0.13244915008544922,0.08333742618560791,0.11097751557826996
1771082007536341200,6.53634130859375,-0.07141876220703125,0.06988024711608887,0.11761516332626343
1771082007546282500,6.546282470703125,-0.0067005157470703125,0.08264541625976562,0.13641169667243958
1771082007556224000,6.55622412109375,0.012316703796386719,0.08765184879302979,0.16000273823738098
1771082007576106800,6.576106689453125,0.026473045349121094,0.06728696823120117,0.16541671752929688
1771082007595989500,6.595989501953125,0.10779190063476562,0.002663731575012207,0.052821412682533264
1771082007605931000,6.605930908203125,0.12272357940673828,-0.029471278190612793,-0.011548101902008057
1771082007615872500,6.61587255859375,0.0807962417602539,-0.07215499877929688,-0.04047150909900665
1771082007625813800,6.625813720703125,0.09356880187988281,-0.08272910118103027,-0.02597835659980774
1771082007635755300,6.63575537109375,0.14144611358642578,-0.08135545253753662,-0.035170361399650574
1771082007645696500,6.645696533203125,0.19108200073242188,-0.07864725589752197,-0.03714644908905029
1771082007655638000,6.655637939453125,0.18836116790771484,-0.04676258563995361,0.0072998106479644775
1771082007665579500,6.66557958984375,0.18827342987060547,-0.049550771713256836,0.008371040225028992
1771082007675520800,6.675520751953125,0.1388835906982422,-0.08584058284759521,-0.01587192714214325
1771082007685462300,6.685462158203125,0.0526275634765625,-0.13309800624847412,-0.0718720406293869
1771082007705345000,6.705344970703125,-0.046070098876953125,-0.1285020112991333,-0.10031943023204803
1771082007715286500,6.71528662109375,-0.06395816802978516,-0.12206006050109863,-0.09254983067512512
1771082007735169300,6.735169189453125,-0.10855770111083984,-0.08220350742340088,-0.07194724678993225
1771082007755052000,6.755052001953125,-0.11649513244628906,-0.06006014347076416,-0.034067124128341675
1771082007774934800,6.774934814453125,-0.1498870849609375,-0.03368973731994629,0.01091340184211731
1771082007784876000,6.7848759765625,-0.1447734832763672,-0.0415959358215332,-0.004260629415512085
1771082007794817500,6.794817626953125,-0.15150165557861328,-0.06604671478271484,-0.03663736581802368
1771082007814700000,6.814699951171875,-0.12286567687988281,-0.09166395664215088,-0.03087100386619568
1771082007824641500,6.8246416015625,-0.10675048828125,-0.08772766590118408,-0.003831028938293457
1771082007844524300,6.844524169921875,-0.10867977142333984,-0.044799208641052246,0.027806296944618225
1771082007854465500,6.854465576171875,-0.055594444274902344,-0.01572871208190918,0.056898489594459534
1771082007874348300,6.874348388671875,0.0660562515258789,0.01709771156311035,0.1068936288356781
1771082007894231000,6.89423095703125,0.012078285217285156,0.05639612674713135,0.1746307909488678
1771082007904172300,6.90417236328125,0.014002799987792969,0.04009222984313965,0.11981861293315887
1771082007914113800,6.91411376953125,0.0017490386962890625,-0.004077553749084473,0.054269060492515564
1771082007924055000,6.924054931640625,0.010840415954589844,-0.05201852321624756,-0.015175506472587585
1771082007933996300,6.933996337890625,0.06219959259033203,-0.059343814849853516,-0.031729042530059814
1771082007953879000,6.953879150390625,-0.0016155242919921875,-0.018870949745178223,-0.02001272141933441
1771082007963820500,6.963820556640625,-0.10769081115722656,0.010607361793518066,0.025998622179031372
1771082007973761800,6.97376171875,-0.1157684326171875,0.05042541027069092,0.06374265253543854
1771082007993644500,6.99364453125,0.06420326232910156,0.04502904415130615,0.02503398060798645
1771082008013527300,7.01352734375,0.27047157287597656,-0.035109519958496094,-0.025061309337615967
1771082008023468500,7.023468505859375,0.2514324188232422,-0.08865511417388916,-0.0714486688375473
1771082008033410000,7.03341015625,0.1998891830444336,-0.11131322383880615,-0.102358877658844
1771082008043351300,7.043351318359375,0.16808700561523438,-0.10792243480682373,-0.12100085616111755
1771082008053292500,7.05329248046875,0.1439380645751953,-0.07666361331939697,-0.1254236102104187
1771082008063234000,7.063234130859375,0.14858341217041016,-0.07028794288635254,-0.09766843914985657
1771082008073175300,7.07317529296875,0.17452049255371094,-0.0556187629699707,-0.03815218806266785
1771082008083116800,7.08311669921875,0.12727642059326172,-0.030620932579040527,0.0014382600784301758
1771082008093058000,7.09305810546875,0.08570480346679688,-0.018704771995544434,-0.011485844850540161
1771082008102999300,7.102999267578125,0.030776023864746094,-0.012098431587219238,-0.005479693412780762
1771082008112940800,7.11294091796875,-0.04675483703613281,-0.005710482597351074,-0.0018873810768127441
1771082008122882000,7.122882080078125,-0.12072372436523438,-0.015514850616455078,-0.0033030807971954346
1771082008132823600,7.132823486328125,-0.1371011734008789,0.0013327598571777344,0.006117880344390869
1771082008142765000,7.14276513671875,-0.12040996551513672,0.025658726692199707,0.021526426076889038
1771082008152706300,7.152706298828125,-0.03819847106933594,0.031244397163391113,0.05942288041114807
1771082008162647800,7.162647705078125,0.04964923858642578,0.03704214096069336,0.06151287257671356
1771082008172589000,7.172589111328125,0.1149129867553711,0.042546629905700684,0.05281412601470947
1771082008182530600,7.182530517578125,0.09685420989990234,0.023720264434814453,0.014572441577911377
1771082008192472000,7.19247216796875,-0.00789642333984375,0.007060050964355469,-0.003618597984313965
1771082008202413300,7.202413330078125,-0.09917068481445312,0.012063145637512207,0.032622262835502625
1771082008212354800,7.212354736328125,-0.1208038330078125,0.03651893138885498,0.05355429649353027
1771082008222296000,7.222296142578125,-0.08330631256103516,0.05616915225982666,0.06851108372211456
1771082008232237600,7.232237548828125,-0.025284767150878906,0.07786273956298828,0.07487958669662476
1771082008242179000,7.242178955078125,0.06717681884765625,0.05388355255126953,0.08018547296524048
1771082008252120300,7.252120361328125,0.148895263671875,-0.001386404037475586,0.02399255335330963
1771082008262061800,7.262061767578125,0.15886402130126953,-0.07332181930541992,-0.0471060574054718
1771082008272003300,7.27200341796875,0.14526748657226562,-0.08582413196563721,-0.07167121767997742
1771082008281944600,7.281944580078125,0.10614871978759766,-0.08696973323822021,-0.04086190462112427
1771082008291886000,7.291885986328125,0.09842777252197266,-0.04632580280303955,0.013514980673789978
1771082008301827300,7.301827392578125,0.14757633209228516,-0.012260794639587402,0.06201775372028351
1771082008311768800,7.311768798828125,0.0644063949584961,0.02671968936920166,0.098482146859169
1771082008321710300,7.32171044921875,-0.09972286224365234,0.024851441383361816,0.09705410897731781
1771082008331651600,7.331651611328125,-0.15306854248046875,-0.03688454627990723,0.004335135221481323
1771082008341593000,7.341593017578125,-0.13056468963623047,-0.09778463840484619,-0.09139630198478699
1771082008351534600,7.35153466796875,-0.21951675415039062,0.02117180824279785,-0.07584631443023682
1771082008361475800,7.361475830078125,-0.18494892120361328,0.0362623929977417,-0.024201691150665283
1771082008371417300,7.371417236328125,-0.056847572326660156,-0.014686107635498047,-0.019496828317642212
1771082008381358600,7.381358642578125,-0.036612510681152344,-0.06115865707397461,-0.015364855527877808
1771082008391300000,7.391300048828125,-0.06125068664550781,-0.04684269428253174,-0.032049328088760376
1771082008401241600,7.40124169921875,-0.06417274475097656,-0.017081499099731445,-0.045539289712905884
1771082008411182800,7.411182861328125,-0.06710147857666016,0.026423096656799316,-0.04596775770187378
1771082008421124400,7.421124267578125,-0.004206657409667969,-0.026618361473083496,-0.05819624662399292
1771082008431065600,7.431065673828125,0.012694358825683594,-0.1176152229309082,-0.11374112963676453
1771082008441007000,7.441007080078125,0.05025291442871094,-0.15158772468566895,-0.12230667471885681
1771082008450948600,7.450948486328125,0.09655094146728516,-0.12115085124969482,-0.0881204605102539
1771082008460889900,7.460889892578125,0.21281909942626953,-0.12018072605133057,-0.06990790367126465
1771082008470831400,7.470831298828125,0.3086519241333008,-0.1375131607055664,-0.03466352820396423
1771082008480772900,7.48077294921875,0.3398103713989258,-0.14283406734466553,0.01118159294128418
1771082008490714000,7.490714111328125,0.3284950256347656,-0.1100388765335083,0.0916743278503418
1771082008500655600,7.500655517578125,0.2965412139892578,-0.07928586006164551,0.12299933284521103
1771082008510596900,7.510596923828125,0.1735820770263672,-0.028849124908447266,0.15871180593967438
1771082008520538400,7.520538330078125,0.005652427673339844,-0.005233287811279297,0.14828647673130035
1771082008530479900,7.53047998046875,-0.11246299743652344,-0.054590702056884766,0.0440826416015625
1771082008540421000,7.540421142578125,-0.19342803955078125,-0.04358363151550293,-0.011149674654006958
1771082008550362600,7.550362548828125,-0.2731475830078125,-0.006362438201904297,-0.016244053840637207
1771082008560304000,7.56030419921875,-0.28338623046875,-0.072967529296875,-0.05843532085418701
1771082008570245400,7.570245361328125,-0.3149089813232422,-0.019562959671020508,0.0666034072637558
1771082008580187000,7.580186767578125,-0.3299722671508789,0.08971381187438965,0.19014877080917358
1771082008590128000,7.590128173828125,-0.24409866333007812,0.16214513778686523,0.21374766528606415
1771082008600069600,7.600069580078125,-0.09874725341796875,0.11474347114562988,0.12675563991069794
1771082008610011100,7.61001123046875,0.0018529891967773438,-0.014447927474975586,0.022751495242118835
1771082008619952400,7.619952392578125,-0.014430046081542969,-0.12806248664855957,-0.05358760058879852
1771082008629894000,7.629893798828125,-0.046782493591308594,-0.15339112281799316,-0.07990603148937225
1771082008639835100,7.639835205078125,-0.019666671752929688,-0.10817980766296387,-0.04148542881011963
1771082008649776600,7.649776611328125,0.0565185546875,-0.07599544525146484,-0.0166122168302536
1771082008659718100,7.65971826171875,0.14103984832763672,-0.054561614990234375,-0.003350690007209778
1771082008669659400,7.669659423828125,0.11134624481201172,-0.05773162841796875,-0.00025941431522369385
1771082008679601000,7.679600830078125,-0.044859886169433594,-0.07529520988464355,-0.07282203435897827
1771082008689542400,7.68954248046875,-0.24564552307128906,-0.0331273078918457,-0.08190284669399261
1771082008699483600,7.699483642578125,-0.44348621368408203,-0.027654409408569336,-0.0757538378238678
1771082008709425200,7.709425048828125,-0.34195709228515625,0.1023397445678711,0.01877935230731964
1771082008719366400,7.719366455078125,-0.11761093139648438,0.15576601028442383,0.05989232659339905
1771082008729308000,7.729307861328125,0.10068988800048828,0.0831599235534668,0.030744314193725586
1771082008739249200,7.739249267578125,0.2261953353881836,0.034039974212646484,0.021905526518821716
1771082008749190400,7.7491904296875,0.2203989028930664,-0.04840087890625,-0.03797638416290283
1771082008769073200,7.7690732421875,0.26815223693847656,-0.12548398971557617,-0.1706215739250183
1771082008779014700,7.7790146484375,0.2859334945678711,-0.11435651779174805,-0.12797053158283234
1771082008788956000,7.788955810546875,0.24256610870361328,-0.06961846351623535,-0.04034945368766785
1771082008798897400,7.7988974609375,0.1460742950439453,-0.019756555557250977,0.06593616306781769
1771082008808838700,7.808838623046875,0.05134868621826172,0.031051158905029297,0.05606070160865784
1771082008818780000,7.81877978515625,-0.07000541687011719,-0.0038313865661621094,-0.06361760199069977
1771082008828721400,7.828721435546875,-0.23671340942382812,-0.025074481964111328,-0.08513998985290527
1771082008838662700,7.83866259765625,-0.26935291290283203,-0.04359745979309082,-0.06960833072662354
1771082008848604200,7.848604248046875,-0.2054738998413086,-0.06171560287475586,-0.06619997322559357
1771082008858545400,7.85854541015625,-0.06997108459472656,0.05838894844055176,0.06727419793605804
1771082008868486700,7.868486572265625,-0.07568645477294922,0.10158538818359375,0.11301657557487488
1771082008878428200,7.87842822265625,-0.045986175537109375,0.05217266082763672,0.0799560546875
1771082008888369400,7.888369384765625,-0.040149688720703125,0.017027854919433594,0.04344455897808075
1771082008898311000,7.898310791015625,-0.1967172622680664,-0.0016505718231201172,-0.01113976538181305
1771082008908252200,7.908252197265625,-0.2967214584350586,-0.019338607788085938,-0.08997923135757446
1771082008918193400,7.918193359375,-0.2563514709472656,0.04869866371154785,-0.04907868802547455
1771082008928135000,7.928135009765625,-0.2733469009399414,0.08099579811096191,0.03001183271408081
1771082008938076200,7.938076171875,-0.24803733825683594,0.050595998764038086,0.040484488010406494
1771082008948017700,7.948017578125,-0.15053081512451172,0.024646282196044922,0.024657368659973145
1771082008957959000,7.957958984375,-0.028985977172851562,0.023756027221679688,0.0048577189445495605
1771082008967900400,7.967900390625,0.04571056365966797,0.01631021499633789,0.023726120591163635
1771082008977841700,7.977841552734375,0.13806724548339844,0.006337881088256836,0.02118965983390808
1771082008997724400,7.997724365234375,0.24629974365234375,-0.04059314727783203,-0.029048264026641846
1771082009017607200,8.017607177734375,0.08845138549804688,-0.03574109077453613,0.015819907188415527
1771082009027548400,8.02754833984375,0.0024232864379882812,0.046124935150146484,-0.0009697228670120239
1771082009047431200,8.04743115234375,0.044869422912597656,0.022546768188476562,-0.11445844173431396
1771082009057372400,8.057372314453126,0.12162303924560547,0.006310939788818359,-0.04416137933731079
1771082009077255200,8.077255126953125,0.04241752624511719,0.059012651443481445,0.09088841825723648
1771082009097138000,8.097137939453125,-0.14149188995361328,0.09810614585876465,0.0401591956615448
1771082009107079200,8.1070791015625,-0.11303997039794922,0.08342146873474121,0.020827442407608032
1771082009117020700,8.117020751953126,0.0040740966796875,0.05625319480895996,-0.010609686374664307
1771082009126962000,8.1269619140625,0.14026451110839844,0.030336618423461914,-0.031124472618103027
1771082009146844700,8.1468447265625,0.237640380859375,-0.06622076034545898,-0.051318734884262085
1771082009166727400,8.1667275390625,0.2207345962524414,-0.09157800674438477,-0.11649651825428009
1771082009186610200,8.186610107421876,0.3848562240600586,-0.10425853729248047,-0.12251831591129303
1771082009206493000,8.206492919921875,0.09609699249267578,-0.07232975959777832,-0.09781196713447571
1771082009216434400,8.216434326171875,0.046088218688964844,-0.1299304962158203,-0.13725543022155762
1771082009226375700,8.226375732421875,0.1427927017211914,-0.13675189018249512,-0.17133642733097076
1771082009246258700,8.2462587890625,0.12081050872802734,-0.11513614654541016,-0.12292492389678955
1771082009256200000,8.256199951171874,0.014224052429199219,-0.06707310676574707,-0.055866554379463196
1771082009276082700,8.276082763671875,-0.1812734603881836,-0.09710097312927246,-0.07597611844539642
1771082009295965700,8.295965576171875,-0.38268280029296875,-0.023789405822753906,-0.012289971113204956
1771082009305907000,8.305906982421876,-0.2795066833496094,-0.022103548049926758,-0.022789359092712402
1771082009325790000,8.3257900390625,-0.19086551666259766,-0.013044357299804688,-0.010365530848503113
1771082009335731200,8.335731201171875,-0.145599365234375,-0.027999162673950195,-0.04753437638282776
1771082009345672700,8.345672607421875,-0.049345970153808594,-0.06615376472473145,-0.01468871533870697
1771082009355614000,8.355614013671875,-0.07241344451904297,-0.10132622718811035,-0.010808706283569336
1771082009365555500,8.365555419921876,-0.03411293029785156,-0.09491109848022461,-0.04016505181789398
1771082009375497000,8.3754970703125,0.010481834411621094,-0.06682705879211426,-0.033586159348487854
1771082009385438200,8.385438232421874,0.058959007263183594,-0.07413673400878906,-0.024630874395370483
1771082009395379700,8.395379638671875,0.10903549194335938,-0.08389091491699219,-0.001535460352897644
1771082009405321000,8.405321044921875,0.13483428955078125,-0.07269597053527832,0.07320129871368408
1771082009415262500,8.415262451171875,0.13673114776611328,-0.04549884796142578,0.109169602394104
1771082009425204000,8.425203857421875,0.1387500762939453,-0.03827929496765137,0.09502287209033966
1771082009435145200,8.435145263671876,0.13154029846191406,-0.0321652889251709,0.08341279625892639
1771082009445086700,8.445086669921874,0.1152801513671875,-0.04608273506164551,0.07666042447090149
1771082009455028200,8.4550283203125,0.024085044860839844,-0.05321502685546875,0.044782817363739014
1771082009474911000,8.474910888671875,-0.22673702239990234,0.0708920955657959,0.10759548097848892
1771082009484852200,8.484852294921875,-0.25865840911865234,0.05018424987792969,0.09361959993839264
1771082009504735200,8.5047353515625,-0.14255523681640625,0.12829804420471191,0.2004796415567398
1771082009514676500,8.514676513671875,0.016017913818359375,0.10704207420349121,0.20595763623714447
1771082009524618000,8.524617919921875,0.24982929229736328,0.059377193450927734,0.20383305847644806
1771082009544500700,8.544500732421875,0.32558536529541016,-0.028919696807861328,0.07039633393287659
1771082009554442200,8.554442138671876,0.2544889450073242,-0.05790829658508301,-0.007095858454704285
1771082009574325000,8.574324951171874,0.14014148712158203,-0.052066802978515625,-0.031560152769088745
1771082009584266500,8.5842666015625,0.12187004089355469,-0.018450498580932617,0.03813357651233673
1771082009594207700,8.594207763671875,0.0967397689819336,0.02696704864501953,0.09641728550195694
1771082009614090500,8.614090576171876,0.007710456848144531,0.035309553146362305,0.11297119408845901
1771082009624032000,8.624031982421876,0.007809638977050781,0.0338592529296875,0.11040963977575302
1771082009633973500,8.633973388671874,0.019797325134277344,0.0341949462890625,0.10713973641395569
1771082009643914800,8.643914794921875,-0.015248298645019531,0.05216860771179199,0.09137942641973495
1771082009653856300,8.653856201171875,-0.08251953125,0.057280778884887695,0.08620628714561462
1771082009663797500,8.663797607421875,-0.09690284729003906,0.050545454025268555,0.10100609809160233
1771082009673738800,8.67373876953125,-0.09936332702636719,0.04197049140930176,0.11315081268548965
1771082009683680300,8.68368017578125,-0.12082099914550781,0.04160141944885254,0.10967441648244858
1771082009693621500,8.69362158203125,-0.13038253784179688,0.037630319595336914,0.14010120928287506
1771082009703563000,8.70356298828125,-0.10231208801269531,0.039342641830444336,0.13528433442115784
1771082009713504300,8.713504150390625,-0.0677337646484375,0.020247220993041992,0.0695933923125267
1771082009723445500,8.723445556640625,-0.050154685974121094,-0.020011186599731445,0.011532366275787354
1771082009733387000,8.733386962890625,-0.02806568145751953,-0.0648036003112793,-0.025364816188812256
1771082009743328300,8.743328369140626,-0.02509593963623047,-0.0857095718383789,-0.043376579880714417
1771082009753269800,8.753269775390624,-0.0339202880859375,-0.10873079299926758,-0.058571457862854004
1771082009763211000,8.7632109375,-0.040305137634277344,-0.08634448051452637,-0.04257786273956299
1771082009773152500,8.773152587890625,0.0027484893798828125,-0.05912971496582031,-0.047886088490486145
1771082009783093800,8.78309375,0.03567981719970703,-0.053560733795166016,-0.021850496530532837
1771082009793035000,8.793034912109375,0.02572345733642578,-0.05759763717651367,0.05177520960569382
1771082009802976500,8.8029765625,0.030126571655273438,-0.03124547004699707,0.07726797461509705
1771082009812917800,8.812917724609376,0.013363838195800781,-0.03397059440612793,0.0016331374645233154
1771082009822859300,8.822859375,-0.08784294128417969,-0.06264305114746094,-0.06278261542320251
1771082009832800500,8.832800537109375,-0.15692806243896484,-0.08544135093688965,-0.11759167909622192
1771082009842741800,8.84274169921875,-0.14744853973388672,-0.0972602367401123,-0.12030157446861267
1771082009852683300,8.852683349609375,-0.06069469451904297,-0.08886837959289551,-0.1130891740322113
1771082009862624500,8.86262451171875,-0.02733898162841797,-0.07983040809631348,-0.07674454152584076
1771082009872566000,8.87256591796875,-0.011101722717285156,-0.05877065658569336,-0.028891965746879578
1771082009882507300,8.88250732421875,0.06371784210205078,-0.052176475524902344,-0.0009340643882751465
1771082009892448500,8.892448486328124,0.11630821228027344,-0.07011961936950684,-0.05084651708602905
1771082009902390000,8.90239013671875,0.09762954711914062,-0.08649969100952148,-0.10032403469085693
1771082009912331300,8.912331298828125,0.08896446228027344,-0.09929251670837402,-0.10099281370639801
1771082009922272800,8.922272705078125,0.09479522705078125,-0.10355091094970703,-0.09787964820861816
1771082009932214000,8.932214111328125,0.07246875762939453,-0.09450793266296387,-0.10240001976490021
1771082009942155500,8.942155517578126,0.07415962219238281,-0.10495233535766602,-0.11672605574131012
1771082009952096800,8.9520966796875,0.06641864776611328,-0.10346722602844238,-0.12568719685077667
1771082009962038000,8.9620380859375,0.03281688690185547,-0.08739519119262695,-0.06063428521156311
1771082009971979500,8.9719794921875,0.039620399475097656,-0.0565798282623291,-0.026268377900123596
1771082009981920800,8.981920654296875,0.06739330291748047,-0.049227237701416016,0.020664095878601074
1771082009991862300,8.9918623046875,0.047636985778808594,-0.034932851791381836,0.03947898745536804
1771082010001803500,9.001803466796876,-0.014129638671875,-0.0257718563079834,0.04123671352863312
1771082010011744800,9.011744873046876,-0.025421142578125,-0.028625965118408203,-0.011889249086380005
1771082010021686300,9.021686279296874,-0.03417015075683594,-0.040856122970581055,-0.047716617584228516
1771082010041569000,9.041569091796875,-0.10930061340332031,-0.011689901351928711,0.027126431465148926
1771082010051510300,9.05151025390625,-0.025255203247070312,0.0341649055480957,0.12226613610982895
1771082010061451800,9.06145166015625,0.08333015441894531,0.04150080680847168,0.14867150783538818
1771082010071393000,9.07139306640625,-0.021553993225097656,0.06185412406921387,0.14429660141468048
1771082010081334300,9.081334228515624,-0.05863380432128906,0.10003781318664551,0.16060157120227814
1771082010091275800,9.09127587890625,-0.15161418914794922,0.0315706729888916,0.0927378311753273
1771082010101217000,9.101217041015625,-0.0830221176147461,0.011434316635131836,0.007387220859527588
1771082010111158500,9.111158447265625,-0.0038604736328125,-0.01759648323059082,-0.030260413885116577
1771082010121099800,9.121099853515625,0.1163492202758789,-0.04851055145263672,-0.020824462175369263
1771082010131041000,9.131041015625,0.20884990692138672,-0.07029485702514648,0.026628389954566956
1771082010140982500,9.140982421875,0.21763992309570312,-0.07612943649291992,0.07242399454116821
1771082010150923800,9.150923828125,0.10389232635498047,-0.07244443893432617,0.08134358376264572
1771082010160865300,9.160865234375,0.022455215454101562,-0.0584111213684082,0.03520019352436066
1771082010170806500,9.170806640625,-0.02725696563720703,-0.031656742095947266,0.017123162746429443
1771082010180748000,9.180748046875,-0.026795387268066406,-0.021335840225219727,-0.0000024586915969848633
1771082010190689300,9.190689208984375,-0.0780954360961914,-0.016093969345092773,0.01111079752445221
1771082010200630500,9.200630615234376,-0.14024066925048828,-0.006621122360229492,0.011794626712799072
1771082010210572000,9.210572021484374,-0.21074771881103516,0.035369873046875,0.03876775503158569
1771082010220513300,9.22051318359375,-0.20956897735595703,0.06285262107849121,0.027796760201454163
1771082010230454800,9.230454833984375,-0.12151527404785156,0.053019046783447266,-0.019812196493148804
1771082010240396000,9.24039599609375,-0.02094268798828125,-0.010205268859863281,-0.08565980195999146
1771082010250337500,9.250337646484375,0.056667327880859375,-0.08837175369262695,-0.06988109648227692
1771082010260278800,9.26027880859375,0.12817096710205078,-0.1363987922668457,-0.06966915726661682
1771082010270220300,9.27022021484375,0.18905353546142578,-0.15047907829284668,-0.10577648878097534
1771082010280161500,9.28016162109375,0.26084423065185547,-0.1366891860961914,-0.13835658133029938
1771082010290103000,9.29010302734375,0.3011817932128906,-0.11287689208984375,-0.11585988104343414
1771082010300044500,9.30004443359375,0.2188262939453125,-0.06772232055664062,-0.013647451996803284
1771082010309985800,9.30998583984375,0.11454200744628906,-0.029112815856933594,0.06556311249732971
1771082010319927300,9.31992724609375,0.030928611755371094,0.01073002815246582,0.07488153874874115
1771082010339810000,9.33981005859375,-0.02447509765625,0.0025022029876708984,-0.05431225895881653
1771082010349751600,9.34975146484375,0.009289741516113281,-0.03713202476501465,-0.0549747496843338
1771082010359692800,9.35969287109375,0.09191322326660156,-0.08543944358825684,-0.02968621253967285
1771082010369634300,9.36963427734375,0.13322830200195312,-0.08616256713867188,0.010310322046279907
1771082010379575800,9.379575927734376,0.1316242218017578,-0.06148028373718262,0.01104089617729187
1771082010389517000,9.38951708984375,0.10672187805175781,-0.016922712326049805,0.01013307273387909
1771082010399458600,9.39945849609375,0.002552032470703125,0.00410771369934082,0.046963170170784
1771082010409400000,9.409400146484375,-0.16090011596679688,0.033319711685180664,0.1251479834318161
1771082010419341300,9.41934130859375,-0.3288230895996094,0.09082770347595215,0.16132619976997375
1771082010429282800,9.42928271484375,-0.4426727294921875,0.11899518966674805,0.14898431301116943
1771082010439224000,9.43922412109375,-0.42823314666748047,0.10516476631164551,0.08914139866828918
1771082010449165600,9.44916552734375,-0.2993783950805664,0.05227065086364746,0.0066687315702438354
1771082010459107000,9.459107177734374,-0.10015201568603516,-0.007079601287841797,-0.012821599841117859
1771082010469048300,9.46904833984375,0.10271072387695312,-0.06955718994140625,-0.03788520395755768
1771082010478989800,9.47898974609375,0.22238445281982422,-0.1130533218383789,-0.06579980254173279
1771082010488931000,9.48893115234375,0.29100799560546875,-0.11974763870239258,-0.09470228850841522
1771082010498872600,9.49887255859375,0.2908029556274414,-0.11950826644897461,-0.14183807373046875
1771082010508814000,9.50881396484375,0.17814254760742188,-0.10529661178588867,-0.1229863166809082
1771082010518755300,9.51875537109375,0.06299114227294922,-0.09537625312805176,-0.0968305915594101
1771082010528696800,9.52869677734375,0.006381988525390625,-0.06278038024902344,-0.04922352731227875
1771082010538638300,9.538638427734375,0.011984825134277344,-0.014545440673828125,-0.0029063671827316284
1771082010548579600,9.54857958984375,-0.008467674255371094,0.033188819885253906,0.016786396503448486
1771082010558521000,9.55852099609375,-0.03579902648925781,0.024428367614746094,0.01594570279121399
1771082010568462300,9.56846240234375,-0.06765174865722656,0.017111539840698242,-0.00500941276550293
1771082010578403800,9.57840380859375,-0.08281898498535156,-0.012037992477416992,-0.028835266828536987
1771082010588345300,9.588345458984374,-0.08387184143066406,-0.022936105728149414,-0.03473789989948273
1771082010598286600,9.59828662109375,-0.07800769805908203,-0.006964445114135742,-0.021036237478256226
1771082010608228000,9.60822802734375,-0.06996726989746094,0.013749837875366211,-0.010490402579307556
1771082010618169300,9.61816943359375,-0.033824920654296875,0.017547130584716797,-0.0346003919839859
1771082010628110800,9.62811083984375,0.04892444610595703,-0.003055572509765625,-0.03459346294403076
1771082010638052000,9.638052001953126,0.1587820053100586,-0.01980137825012207,-0.00541454553604126
1771082010657934800,9.657934814453125,0.2264871597290039,-0.031790971755981445,-0.0162113755941391
1771082010667876400,9.66787646484375,0.14130401611328125,-0.03810763359069824,-0.04064081609249115
1771082010687758800,9.6877587890625,0.05233001708984375,-0.01822042465209961,0.028619512915611267
1771082010697700400,9.697700439453126,-0.028057098388671875,0.005953073501586914,0.04973335564136505
1771082010717583000,9.7175830078125,-0.014080047607421875,0.027984142303466797,0.048762738704681396
1771082010737465600,9.737465576171875,0.08200931549072266,-0.013722419738769531,0.0354771614074707
1771082010757348400,9.757348388671875,-0.049480438232421875,-0.04080009460449219,0.000821426510810852
1771082010767289900,9.767289794921876,-0.12053489685058594,-0.030884981155395508,0.021215006709098816
1771082010777231000,9.777231201171874,-0.14113807678222656,0.007912158966064453,0.050983935594558716
1771082010787172600,9.787172607421875,-0.1498889923095703,0.021359682083129883,0.11128254234790802
1771082010797113900,9.79711376953125,-0.09990310668945312,0.04285621643066406,0.14986851811408997
1771082010807055000,9.80705517578125,-0.01794910430908203,0.038818359375,0.1693287342786789
1771082010816996600,9.81699658203125,0.0014753341674804688,-0.009956598281860352,0.10495424270629883
1771082010826937900,9.826937744140626,-0.09720230102539062,-0.08821725845336914,0.008982867002487183
1771082010836879400,9.83687939453125,-0.10499858856201172,-0.12426519393920898,-0.07448005676269531
1771082010846820600,9.846820556640624,0.0025739669799804688,-0.14040374755859375,-0.12880507111549377
1771082010856761900,9.856761962890625,0.10617446899414062,-0.13816452026367188,-0.13484250009059906
1771082010866703400,9.866703369140625,0.0930032730102539,-0.11833715438842773,-0.075810506939888
1771082010876644600,9.87664453125,-0.044475555419921875,-0.07629084587097168,-0.014637589454650879
1771082010896527400,9.89652734375,-0.35009193420410156,0.05395197868347168,-0.03356781601905823
1771082010906468900,9.90646875,-0.45482349395751953,0.04550313949584961,-0.03162980079650879
1771082010916410000,9.91641015625,-0.3465738296508789,0.03507518768310547,0.010714411735534668
1771082010926351400,9.926351318359375,-0.15589332580566406,-0.012911319732666016,-0.0037907958030700684
1771082010946234000,9.946234130859375,0.15940570831298828,-0.11782693862915039,-0.09139293432235718
1771082010956175600,9.956175537109376,0.2569293975830078,-0.1512317657470703,-0.13872793316841125
1771082010976058000,9.97605810546875,0.22152233123779297,-0.12412667274475098,-0.060133397579193115
1771082010995940900,9.99594091796875,0.11914920806884766,0.03249049186706543,0.08243121206760406
1771082011005882400,10.00588232421875,0.044902801513671875,0.05926060676574707,0.046943023800849915
1771082011025764900,10.025764892578126,-0.05324745178222656,-0.023398160934448242,-0.05860224366188049
1771082011045647600,10.045647705078125,0.00536346435546875,-0.003846406936645508,0.0018695443868637085
1771082011055589000,10.055589111328125,0.08295154571533203,0.05267643928527832,0.04092225432395935
1771082011065530400,10.0655302734375,0.1309528350830078,0.07559967041015625,0.07800602912902832
1771082011075472000,10.075471923828125,0.13582897186279297,0.08628034591674805,0.07337485253810883
1771082011085413000,10.0854130859375,0.06536865234375,0.05412101745605469,0.03882494568824768
1771082011095354400,10.095354248046876,-0.0039615631103515625,0.024961233139038086,0.01827491819858551
1771082011105296000,10.1052958984375,0.026671409606933594,0.027094364166259766,-0.01712620258331299
1771082011115237000,10.115237060546875,0.042636871337890625,0.015160322189331055,-0.04050882160663605
1771082011125178600,10.1251787109375,0.0748291015625,-0.010804891586303711,-0.016858085989952087
1771082011135120000,10.135119873046875,0.13241100311279297,-0.005828142166137695,0.013682425022125244
1771082011145061000,10.14506103515625,0.17968368530273438,-0.022318601608276367,0.0564008504152298
1771082011155002600,10.155002685546876,0.19101333618164062,-0.029705047607421875,0.07111729681491852
1771082011164944000,10.16494384765625,0.17644691467285156,-0.023527145385742188,0.03497743606567383
1771082011174885400,10.174885498046875,0.08694839477539062,-0.0604248046875,-0.05842384696006775
1771082011184826600,10.18482666015625,-0.05754280090332031,-0.11320900917053223,-0.1427919566631317
1771082011194768100,10.19476806640625,-0.14095306396484375,-0.10539388656616211,-0.1523502767086029
1771082011204709400,10.20470947265625,-0.20665264129638672,-0.06172800064086914,-0.09851187467575073
1771082011224592100,10.224592041015624,-0.14585304260253906,0.037966012954711914,0.014405131340026855
1771082011244475000,10.244474853515625,-0.08457469940185547,-0.003756999969482422,0.07205279171466827
1771082011254416100,10.254416015625,-0.09908103942871094,0.0008878707885742188,0.061134934425354004
1771082011274299000,10.274298828125,-0.14121532440185547,-0.02013993263244629,-0.03593006730079651
1771082011284240100,10.284240234375,-0.10328960418701172,-0.0423741340637207,-0.06108477711677551
1771082011294181600,10.294181640625,-0.044933319091796875,-0.07552242279052734,-0.06509581208229065
1771082011314064400,10.314064453125,0.09457206726074219,-0.10025930404663086,-0.02920013666152954
1771082011324005600,10.324005615234375,0.16810131072998047,-0.10223937034606934,-0.032959818840026855
1771082011333947000,10.33394677734375,0.14870834350585938,-0.09743714332580566,-0.04678237438201904
1771082011343888400,10.343888427734376,0.07801342010498047,-0.06516289710998535,0.010506689548492432
1771082011353829600,10.35382958984375,0.05093669891357422,-0.0432286262512207,0.025918692350387573
1771082011363771100,10.363771240234374,0.01505279541015625,-0.038924217224121094,-0.0020277798175811768
1771082011383653600,10.383653564453125,0.008679389953613281,-0.045502424240112305,-0.03875386714935303
1771082011403536400,10.403536376953125,0.06957721710205078,-0.023984193801879883,0.07501356303691864
1771082011423419100,10.423419189453124,-0.10494518280029297,0.038640499114990234,0.0795004665851593
1771082011433360400,10.4333603515625,-0.15235519409179688,0.036872148513793945,0.050660669803619385
1771082011443302000,10.443302001953125,-0.11204910278320312,0.04750227928161621,0.0513453483581543
1771082011453243100,10.4532431640625,-0.05831432342529297,0.05089235305786133,0.07702481746673584
1771082011463184600,10.4631845703125,-0.045510292053222656,0.05189108848571777,0.10429644584655762
1771082011473126000,10.4731259765625,-0.01886463165283203,0.04377460479736328,0.10059267282485962
1771082011483067400,10.4830673828125,0.026102066040039062,-0.013240814208984375,0.04839450120925903
1771082011493008600,10.493008544921874,0.03731346130371094,-0.038408756256103516,0.004974186420440674
1771082011502950000,10.502949951171875,0.09064865112304688,-0.04393720626831055,-0.013380467891693115
1771082011512891400,10.512891357421875,0.11267566680908203,-0.0335996150970459,0.011823654174804688
1771082011532774100,10.532774169921876,-0.13141345977783203,0.03766274452209473,0.03602324426174164
1771082011542715400,10.54271533203125,-0.23250389099121094,0.0733346939086914,0.016276001930236816
1771082011552657000,10.552656982421874,-0.25684165954589844,0.08106827735900879,0.0205182284116745
1771082011572539600,10.57253955078125,-0.015149116516113281,0.023331880569458008,-0.016380682587623596
1771082011592422700,10.592422607421875,0.3472576141357422,-0.10297393798828125,-0.07588647305965424
1771082011602364000,10.602364013671876,0.3785209655761719,-0.16427063941955566,-0.13143175840377808
1771082011612305400,10.612305419921874,0.2989339828491211,-0.18809175491333008,-0.18687307834625244
1771082011622246700,10.62224658203125,0.21859359741210938,-0.1703641414642334,-0.1947212517261505
1771082011632188200,10.632188232421875,0.1845874786376953,-0.13070917129516602,-0.1756264865398407
1771082011652071000,10.65207080078125,0.09357261657714844,-0.06294894218444824,-0.07919549942016602
1771082011662012400,10.662012451171876,0.0271759033203125,-0.01977372169494629,-0.01390191912651062
1771082011671954000,10.671953857421874,-0.02870464324951172,-0.024392127990722656,0.002910822629928589
1771082011691836700,10.691836669921875,-0.0820627212524414,-0.0473935604095459,-0.015493392944335938
1771082011711719400,10.711719482421875,-0.1299142837524414,-0.054396867752075195,-0.05913823843002319
1771082011731602200,10.731602294921874,-0.2718648910522461,-0.019248485565185547,0.008533567190170288
1771082011751485000,10.75148486328125,-0.1834087371826172,0.06658005714416504,0.12185466289520264
1771082011771368000,10.771367919921875,0.08364582061767578,0.052365779876708984,0.14647720754146576
1771082011791250700,10.791250732421876,0.0867013931274414,-0.08609533309936523,0.018746569752693176
1771082011811133400,10.811133544921875,-0.035198211669921875,-0.1281578540802002,-0.09344887733459473
1771082011831016200,10.83101611328125,0.12920475006103516,-0.0368189811706543,0.02800147235393524
1771082011840957700,10.840957763671875,0.2093791961669922,-0.026535987854003906,0.02699156105518341
1771082011850899000,10.85089892578125,0.2368297576904297,-0.06058239936828613,-0.002329498529434204
1771082011860840400,10.86084033203125,0.2125387191772461,-0.07741379737854004,-0.023946672677993774
1771082011870781700,10.87078173828125,0.06897830963134766,-0.07212162017822266,-0.009805440902709961
1771082011890664400,10.89066455078125,-0.19674205780029297,0.030005216598510742,0.046230748295784
1771082011900605700,10.900605712890625,-0.22131061553955078,0.03709673881530762,0.03532356023788452
1771082011920488400,10.920488525390626,-0.05370140075683594,0.051259517669677734,0.06384769082069397
1771082011940371200,10.94037109375,0.0672760009765625,-0.005969524383544922,0.057598039507865906
1771082011960254000,10.96025390625,0.18016624450683594,0.020712852478027344,0.012586385011672974
1771082011970195200,10.9701953125,0.17706966400146484,0.03023529052734375,-0.00375482439994812
1771082011980136700,10.98013671875,0.1415872573852539,0.0065114498138427734,0.0066204071044921875
1771082011990078000,10.990077880859374,0.0764627456665039,-0.025571107864379883,-0.005007266998291016
1771082012009960700,11.009960693359375,-0.15052127838134766,-0.004125356674194336,0.007491737604141235
1771082012019902000,11.01990185546875,-0.1593332290649414,0.024396657943725586,0.00785684585571289
1771082012029843500,11.029843505859375,-0.10237312316894531,0.06549859046936035,0.08841440081596375
1771082012049726200,11.049726318359374,0.038509368896484375,0.08818459510803223,0.16146107017993927
1771082012059667500,11.05966748046875,0.02163982391357422,0.0360715389251709,0.09649777412414551
1771082012069608700,11.069608642578125,-0.013705253601074219,-0.027333498001098633,-0.015092983841896057
1771082012079550200,11.07955029296875,-0.03425312042236328,-0.043009281158447266,-0.06181551516056061
1771082012089491500,11.089491455078125,-0.07802295684814453,-0.02538895606994629,-0.030298158526420593
1771082012099433000,11.099432861328125,-0.10236644744873047,0.01607537269592285,0.06435933709144592
1771082012109374200,11.109374267578126,-0.07936382293701172,0.04097747802734375,0.124222032725811
1771082012119315500,11.1193154296875,-0.007447242736816406,0.044893741607666016,0.11484605073928833
1771082012129257000,11.129257080078125,0.08683586120605469,0.0015749931335449219,0.046831995248794556
1771082012139198200,11.1391982421875,0.12328147888183594,-0.04907107353210449,-0.03863885998725891
1771082012149139700,11.1491396484375,0.12413597106933594,-0.10262513160705566,-0.12014991044998169
1771082012159081000,11.1590810546875,0.021658897399902344,-0.12107992172241211,-0.15977154672145844
1771082012169022200,11.169022216796876,-0.15211009979248047,-0.08264732360839844,-0.15393580496311188
1771082012178963700,11.178963623046876,-0.2974557876586914,-0.022092580795288086,-0.07297539710998535
1771082012188905000,11.188905029296874,-0.2974071502685547,0.03307223320007324,0.0014268755912780762
1771082012198846500,11.198846435546875,-0.17080116271972656,0.05910348892211914,0.022189870476722717
1771082012208787700,11.20878759765625,0.042824745178222656,0.017832040786743164,0.021155864000320435
1771082012218729200,11.218729248046875,0.23886966705322266,-0.04197239875793457,-0.02871517837047577
1771082012228670500,11.22867041015625,0.33078765869140625,-0.11639070510864258,-0.10248991847038269
1771082012238611700,11.23861181640625,0.32277393341064453,-0.165665864944458,-0.16959813237190247
1771082012248553200,11.24855322265625,0.24692058563232422,-0.19649958610534668,-0.2017155885696411
1771082012258494500,11.258494384765624,0.17249202728271484,-0.1780076026916504,-0.19498232007026672
1771082012268436000,11.26843603515625,0.09703540802001953,-0.12954401969909668,-0.1667536050081253
1771082012278377200,11.278377197265625,0.02528667449951172,-0.07523918151855469,-0.11786793172359467
1771082012288318500,11.288318359375,-0.045192718505859375,-0.015181779861450195,-0.09184837341308594
1771082012298260000,11.298260009765626,-0.09793472290039062,-0.001348257064819336,-0.06760582327842712
1771082012308201200,11.308201171875,-0.14273929595947266,0.00039196014404296875,-0.04018031060695648
1771082012318142700,11.318142822265624,-0.15871524810791016,-0.011322736740112305,-0.0418144166469574
1771082012328084000,11.328083984375,-0.12055206298828125,-0.0028200149536132812,-0.03167293965816498
1771082012338025500,11.338025390625,-0.036164283752441406,-0.0005328655242919922,-0.012009158730506897
1771082012357908000,11.357907958984375,0.048796653747558594,-0.01934528350830078,0.018824592232704163
1771082012377790700,11.377790771484374,0.012579917907714844,-0.03178906440734863,0.04179389774799347
1771082012387732200,11.387732177734375,0.01961040496826172,-0.0015459060668945312,0.06094267964363098
1771082012397673500,11.397673583984375,0.028879165649414062,0.0258481502532959,0.08457307517528534
1771082012407614700,11.40761474609375,0.04976367950439453,0.015128612518310547,0.09605428576469421
1771082012417556200,11.41755615234375,0.08444976806640625,-0.028458356857299805,0.05814144015312195
1771082012427497500,11.42749755859375,0.09276866912841797,-0.07642126083374023,0.0003882497549057007
1771082012437439000,11.43743896484375,0.03984546661376953,-0.0933835506439209,-0.018132641911506653
1771082012447380200,11.447380126953124,-0.014498710632324219,-0.08672928810119629,0.00846920907497406
1771082012457321700,11.45732177734375,-0.03500175476074219,-0.04477238655090332,0.08171346783638
1771082012467263000,11.467262939453125,-0.031678199768066406,0.013271570205688477,0.14255313575267792
1771082012477204200,11.477204345703125,-0.07079124450683594,0.037508249282836914,0.1281641125679016
1771082012487145700,11.487145751953125,-0.14701271057128906,0.01702260971069336,0.1000741496682167
1771082012497087000,11.4970869140625,-0.20561504364013672,-0.0002613067626953125,0.07197359204292297
1771082012507028500,11.507028564453124,-0.23043155670166016,-0.02136540412902832,0.06029660999774933
1771082012516969700,11.5169697265625,-0.22212696075439453,-0.024639606475830078,0.06439723074436188
1771082012526911000,11.526910888671875,-0.12468147277832031,-0.01538991928100586,0.05328507721424103
1771082012536852500,11.5368525390625,0.02527618408203125,0.0031290054321289062,0.08892016112804413
1771082012546793700,11.546793701171875,0.1116933822631836,0.0018267631530761719,0.09862127155065536
1771082012556735200,11.5567353515625,0.09796333312988281,-0.03545069694519043,0.057074934244155884
1771082012566676500,11.566676513671876,0.027955055236816406,-0.07671642303466797,-0.0017233490943908691
1771082012586559200,11.586559326171875,-0.036711692810058594,-0.09152388572692871,-0.06039266288280487
1771082012596500500,11.59650048828125,-0.01566314697265625,-0.05359172821044922,-0.007640764117240906
1771082012606442000,11.60644189453125,0.054368019104003906,-0.018152952194213867,0.035088375210762024
1771082012616383200,11.61638330078125,0.09514808654785156,-0.007535219192504883,0.05851496756076813
1771082012626324700,11.62632470703125,0.10018348693847656,-0.002977132797241211,0.07814674079418182
1771082012636266000,11.636265869140624,0.11019420623779297,-0.0001671314239501953,0.05576063692569733
1771082012646207200,11.646207275390625,0.0826711654663086,-0.010557174682617188,-0.016439110040664673
1771082012656148700,11.656148681640625,-0.005414009094238281,-0.02873516082763672,-0.05533623695373535
1771082012666090000,11.666090087890625,-0.07794666290283203,-0.05123305320739746,-0.07332584261894226
1771082012685972700,11.68597265625,-0.016750335693359375,-0.005141496658325195,-0.001180216670036316
1771082012705855500,11.70585546875,-0.03805732727050781,0.09770321846008301,0.0890137180685997
1771082012715796700,11.715796630859375,-0.10605907440185547,0.07891345024108887,0.11696799844503403
1771082012725738200,11.72573828125,-0.09768962860107422,0.044272661209106445,0.07264748215675354
1771082012745621000,11.74562109375,0.114715576171875,-0.05210280418395996,-0.09902678430080414
1771082012765503500,11.76550341796875,0.12676239013671875,-0.09778976440429688,-0.13846513628959656
1771082012775445000,11.775445068359375,0.009687423706054688,-0.053267717361450195,-0.09026993811130524
1771082012785386200,11.78538623046875,-0.15269947052001953,0.04545331001281738,-0.02855411171913147
1771082012795327700,11.79532763671875,-0.15039539337158203,0.11146330833435059,0.030982986092567444
1771082012805269000,11.80526904296875,0.01628589630126953,0.14736628532409668,0.053383708000183105
1771082012815210200,11.815210205078126,0.20597171783447266,0.10313773155212402,0.052073538303375244
1771082012825151700,11.82515185546875,0.3619985580444336,0.01218104362487793,0.0186997652053833
1771082012835093000,11.835093017578124,0.44515323638916016,-0.0857090950012207,-0.042842134833335876
1771082012854975700,11.854975830078125,0.24078369140625,-0.1287844181060791,-0.1308288723230362
1771082012874858500,11.8748583984375,0.02005767822265625,-0.04506206512451172,-0.10828322172164917
1771082012894741200,11.8947412109375,-0.05638885498046875,-0.0029189586639404297,-0.02557043731212616
1771082012914624000,11.9146240234375,-0.05016040802001953,0.020299673080444336,0.03923232853412628
1771082012924565200,11.924565185546875,-0.043662071228027344,0.02515864372253418,0.0398990660905838
1771082012934506500,11.934506591796875,-0.09845161437988281,-0.014884471893310547,-0.0061418116092681885
1771082012944448000,11.944447998046876,-0.1572265625,-0.05817389488220215,-0.03523296117782593
1771082012954389200,11.95438916015625,-0.13755321502685547,-0.07386016845703125,-0.06363390386104584
1771082012964330800,11.964330810546874,-0.10664558410644531,-0.07889127731323242,-0.08131450414657593
1771082012974272000,11.97427197265625,-0.10933399200439453,-0.07384395599365234,-0.06748639047145844
1771082012984213500,11.984213623046875,-0.09317207336425781,-0.05701494216918945,0.02345941960811615
1771082012994154800,11.99415478515625,-0.06540966033935547,0.0037813186645507812,0.11221209913492203
1771082013004096000,12.004095947265625,-0.06384468078613281,0.04396629333496094,0.18466916680335999
1771082013023978800,12.023978759765624,-0.09101200103759766,0.010396718978881836,0.13501791656017303
1771082013033920300,12.033920166015625,-0.004589080810546875,-0.04704594612121582,0.03252314031124115
1771082013053802800,12.053802734375,-0.002716064453125,-0.17768311500549316,-0.11977994441986084
1771082013063744300,12.063744140625,-0.016992568969726562,-0.18072056770324707,-0.11066235601902008
1771082013083627000,12.083626953125,0.027878761291503906,-0.034645795822143555,0.04650332033634186
1771082013093568300,12.093568359375,0.09087276458740234,0.01359105110168457,0.09869420528411865
1771082013103509500,12.103509521484375,0.14114952087402344,0.027685165405273438,0.094290591776371
1771082013113451000,12.113450927734375,0.13185596466064453,-0.02249932289123535,0.05993539094924927
1771082013133333800,12.133333740234375,0.02008819580078125,-0.10356593132019043,-0.07719312608242035
1771082013153216500,12.153216552734374,-0.008207321166992188,-0.05120038986206055,0.011490955948829651
1771082013163157800,12.16315771484375,0.07170677185058594,0.0004513263702392578,0.06732112169265747
1771082013173099000,12.17309912109375,0.19056034088134766,0.002976655960083008,0.08355382084846497
1771082013183040500,12.18304052734375,0.20426082611083984,-0.012792825698852539,0.09276631474494934
1771082013192981800,12.192981689453125,0.029720306396484375,-0.02968597412109375,0.05270598828792572
1771082013212864500,12.212864501953124,-0.11866092681884766,-0.04244828224182129,0.025477901101112366
1771082013232747300,12.232747314453125,-0.05880451202392578,0.004198312759399414,0.08663758635520935
1771082013252630000,12.252630126953125,0.04246330261230469,0.0011203289031982422,0.09331350028514862
1771082013272512800,12.2725126953125,-0.08074188232421875,-0.026523828506469727,0.039181262254714966
1771082013282454000,12.2824541015625,-0.14960384368896484,-0.013838768005371094,0.05202758312225342
1771082013302336800,12.302336669921875,-0.14109325408935547,0.03475141525268555,0.05990324914455414
1771082013322219500,12.322219482421875,-0.13373756408691406,0.01384735107421875,0.09231211990118027
1771082013342102000,12.34210205078125,-0.10422039031982422,-0.048069000244140625,0.047048136591911316
1771082013352043500,12.35204345703125,-0.018708229064941406,-0.04768991470336914,0.006996780633926392
1771082013361984800,12.36198486328125,0.11020278930664062,-0.038297176361083984,-0.0018057078123092651
1771082013371926300,12.37192626953125,0.18793582916259766,-0.023778200149536133,-0.015369132161140442
1771082013391809000,12.39180908203125,-0.03561878204345703,-0.04689836502075195,-0.07635501027107239
1771082013411691500,12.41169140625,-0.20793533325195312,-0.023737668991088867,-0.0786694884300232
1771082013431574300,12.43157421875,0.09537696838378906,-0.0015327930450439453,-0.08266249299049377
1771082013451457000,12.45145703125,0.30216217041015625,-0.10277843475341797,-0.09863723814487457
1771082013461398300,12.461398193359376,0.2517967224121094,-0.12406086921691895,-0.14548510313034058
1771082013471339800,12.47133984375,0.2659273147583008,-0.10302138328552246,-0.20370398461818695
1771082013481281000,12.481281005859374,0.28717899322509766,-0.08364582061767578,-0.20962829887866974
1771082013491222500,12.491222412109375,0.26607704162597656,-0.07571625709533691,-0.14768004417419434
1771082013501163800,12.501163818359375,0.19148921966552734,-0.05989384651184082,-0.07776589691638947
1771082013511105000,12.51110498046875,0.10652351379394531,-0.0425722599029541,-0.08371303975582123
1771082013521046500,12.521046630859376,-0.010038375854492188,-0.05585026741027832,-0.1431366354227066
1771082013530987800,12.53098779296875,-0.058925628662109375,-0.07520008087158203,-0.1950322985649109
1771082013540929300,12.54092919921875,-0.015278816223144531,-0.07503128051757812,-0.15260674059391022
1771082013550870500,12.55087060546875,0.03481292724609375,-0.047129154205322266,-0.04532569646835327
1771082013560812000,12.56081201171875,0.041912078857421875,-0.004199981689453125,0.03637167811393738
1771082013570753300,12.570753173828125,0.0020513534545898438,0.0298769474029541,0.048293471336364746
1771082013580694500,12.580694580078125,-0.09353923797607422,0.025231599807739258,0.03165660798549652
1771082013600577300,12.600577392578124,-0.2076272964477539,0.023466825485229492,0.007353916764259338
1771082013610518800,12.610518798828124,-0.17338085174560547,0.01287388801574707,0.03306421637535095
1771082013620460000,12.6204599609375,-0.11160850524902344,0.005506277084350586,0.0962127298116684
1771082013630401300,12.6304013671875,-0.08147811889648438,0.026528358459472656,0.1299964189529419
1771082013640342800,12.6403427734375,-0.030587196350097656,0.03269839286804199,0.1462266892194748
1771082013650284000,12.650283935546875,0.0007429122924804688,0.026422500610351562,0.14286500215530396
1771082013670166800,12.670166748046874,-0.024720191955566406,-0.052770137786865234,0.045766621828079224
1771082013680108300,12.6801083984375,-0.07100391387939453,-0.06773686408996582,0.011667564511299133
1771082013690049500,12.690049560546875,-0.08598136901855469,-0.06804323196411133,0.029717370867729187
1771082013699990800,12.69999072265625,-0.0537109375,-0.0585329532623291,0.04764147102832794
1771082013709932300,12.709932373046875,-0.052611351013183594,-0.051342010498046875,0.08720166981220245
1771082013719873500,12.71987353515625,-0.11267852783203125,-0.025629758834838867,0.11977861821651459
1771082013729815000,12.72981494140625,-0.2589130401611328,-0.025936365127563477,0.14052876830101013
1771082013739756300,12.73975634765625,-0.38672542572021484,-0.031208515167236328,0.11113537102937698
1771082013749697500,12.749697509765625,-0.24936294555664062,-0.0007522106170654297,0.03221353888511658
1771082013759639000,12.75963916015625,-0.0651388168334961,0.007024526596069336,-0.023133128881454468
1771082013769580300,12.769580322265625,-0.013396263122558594,0.02632284164428711,0.011421576142311096
1771082013779521800,12.779521728515626,-0.04936981201171875,0.07481527328491211,0.07362973690032959
1771082013789463000,12.789463134765626,-0.15035533905029297,0.1351621150970459,0.06532496213912964
1771082013799404500,12.799404541015624,-0.25659942626953125,0.15135693550109863,0.026640906929969788
1771082013809345800,12.809345703125,-0.2669486999511719,0.16719412803649902,-0.014149174094200134
1771082013819287000,12.819287109375,-0.22783660888671875,0.1597146987915039,-0.027609258890151978
1771082013829228500,12.829228515625,-0.18727588653564453,0.13460755348205566,0.01308506727218628
1771082013839169800,12.839169677734375,-0.10538578033447266,0.13985395431518555,0.06308096647262573
1771082013849111300,12.849111328125,-0.018129348754882812,0.13247418403625488,0.04298819601535797
1771082013859052500,12.859052490234374,0.04861736297607422,0.13101434707641602,0.04542727768421173
1771082013868993800,12.868993896484374,0.17063426971435547,0.11134123802185059,0.027151495218276978
1771082013878935300,12.878935302734375,0.2602205276489258,0.053525447845458984,0.010008156299591064
1771082013888876500,12.88887646484375,0.2380828857421875,0.03020000457763672,0.03353165090084076
1771082013898818000,12.898818115234375,0.1931896209716797,0.04060482978820801,0.06697311997413635
1771082013908759300,12.90875927734375,0.18004608154296875,0.0795745849609375,0.10083866864442825
1771082013918700500,12.918700439453126,0.21685028076171875,0.10945868492126465,0.13063231110572815
1771082013938583300,12.938583251953125,0.20193195343017578,0.14006876945495605,0.15066403150558472
1771082013948524800,12.94852490234375,0.15130615234375,0.07492566108703613,0.060924410820007324
1771082013958466000,12.958466064453125,0.143707275390625,-0.025805234909057617,-0.0633576363325119
1771082013968407600,12.968407470703125,0.17620086669921875,-0.11270499229431152,-0.1700594574213028
1771082013978348800,12.978348876953126,0.16824054718017578,-0.14678525924682617,-0.2061529904603958
1771082013988290000,12.9882900390625,0.11832523345947266,-0.1251051425933838,-0.15733514726161957
1771082013998231600,12.9982314453125,0.10248565673828125,-0.04161334037780762,-0.08251327276229858
1771082014008172800,13.0081728515625,0.08253192901611328,0.008301973342895508,-0.036036163568496704
1771082014018114300,13.0181142578125,-0.0051116943359375,0.025603532791137695,-0.05218200385570526
1771082014028055600,13.0280556640625,-0.15013694763183594,-0.009265661239624023,-0.0683421939611435
1771082014037996800,13.037996826171875,-0.19892024993896484,-0.023214101791381836,-0.06809021532535553
1771082014047938300,13.047938232421876,-0.1815032958984375,-0.05572843551635742,-0.12866565585136414
1771082014057879600,13.057879638671874,-0.09430313110351562,-0.09228873252868652,-0.19033384323120117
1771082014067821000,13.067821044921875,0.08755779266357422,-0.15472102165222168,-0.21621528267860413
1771082014077762300,13.07776220703125,0.3181915283203125,-0.2420288324356079,-0.23215463757514954
1771082014087703800,13.087703857421875,0.4488229751586914,-0.31526386737823486,-0.2349921464920044
1771082014097645000,13.09764501953125,0.4882392883300781,-0.327875018119812,-0.1899261325597763
1771082014107586300,13.10758642578125,0.5086021423339844,-0.2998009920120239,-0.15917325019836426
1771082014117527800,13.11752783203125,0.49613285064697266,-0.2530165910720825,-0.16342777013778687
1771082014127469000,13.127468994140624,0.3830842971801758,-0.24188697338104248,-0.18797904253005981
1771082014137410600,13.13741064453125,0.20628070831298828,-0.26983463764190674,-0.2094661295413971
1771082014147351800,13.147351806640625,0.023039817810058594,-0.30686891078948975,-0.2094724476337433
1771082014157293000,13.15729296875,-0.12197017669677734,-0.30731499195098877,-0.18810278177261353
1771082014167234600,13.167234619140626,-0.21774578094482422,-0.23361122608184814,-0.11340698599815369
1771082014177175800,13.17717578125,-0.23924541473388672,-0.15043997764587402,-0.012414723634719849
1771082014187117300,13.187117431640624,-0.20407581329345703,-0.07726788520812988,0.09577873349189758
1771082014197058600,13.19705859375,-0.18603134155273438,-0.04275226593017578,0.1665988713502884
1771082014207000000,13.207,-0.19428253173828125,-0.04604172706604004,0.1491398811340332
1771082014216941300,13.21694140625,-0.23079395294189453,-0.07210516929626465,0.04529272019863129
1771082014226882600,13.226882568359375,-0.26450634002685547,-0.1135251522064209,-0.019498348236083984
1771082014236824000,13.236823974609376,-0.2578716278076172,-0.13444852828979492,-0.02039465308189392
1771082014246765300,13.246765380859374,-0.23030948638916016,-0.1073601245880127,0.025082409381866455
1771082014256706800,13.256706787109374,-0.20571613311767578,-0.07071113586425781,0.11138643324375153
1771082014276589300,13.27658935546875,-0.022470474243164062,-0.012511491775512695,0.22806574404239655
1771082014296472000,13.29647216796875,0.12421989440917969,-0.06656074523925781,0.16703221201896667
1771082014306413600,13.30641357421875,0.10069561004638672,-0.1065361499786377,0.08728735148906708
1771082014316354800,13.316354736328124,0.023474693298339844,-0.12251400947570801,0.05409015715122223
1771082014326296000,13.326296142578125,-0.0030269622802734375,-0.10292506217956543,0.0587090402841568
1771082014336237600,13.336237548828125,0.022747039794921875,-0.05562019348144531,0.09121774137020111
1771082014346178800,13.3461787109375,0.07420921325683594,0.010991573333740234,0.16720035672187805
1771082014356120300,13.356120361328125,0.03332042694091797,0.032544612884521484,0.23409102857112885
1771082014366061600,13.3660615234375,-0.06785964965820312,0.05493474006652832,0.25675827264785767
1771082014385944300,13.3859443359375,-0.19026756286621094,0.08935093879699707,0.15709662437438965
1771082014395885600,13.395885498046875,-0.1450662612915039,0.07511210441589355,0.1174226775765419
1771082014405827000,13.4058271484375,-0.06802558898925781,0.06996035575866699,0.12425451725721359
1771082014415768300,13.415768310546875,0.04049873352050781,0.06118631362915039,0.11331615597009659
1771082014425709800,13.425709716796876,0.097808837890625,0.03363966941833496,0.07728952169418335
1771082014435651000,13.435651123046876,0.13318824768066406,0.010274648666381836,0.03690047562122345
1771082014445592300,13.44559228515625,0.10932064056396484,-0.006624460220336914,0.022331342101097107
1771082014455533800,13.455533935546875,0.07889842987060547,-0.007352352142333984,0.03305220603942871
1771082014465475000,13.46547509765625,0.0794973373413086,-0.0006036758422851562,0.019895777106285095
1771082014475416600,13.47541650390625,0.14818477630615234,0.009282827377319336,-0.01341499388217926
1771082014485357800,13.48535791015625,0.20618915557861328,-0.006201267242431641,-0.01902678608894348
1771082014495299300,13.49529931640625,0.2444019317626953,-0.0071027278900146484,0.019995763897895813
1771082014505240600,13.505240478515624,0.2019519805908203,0.006245851516723633,0.03177224099636078
1771082014515181800,13.515181884765624,0.2003154754638672,0.009569883346557617,-0.018070369958877563
1771082014525123300,13.525123291015625,0.2837505340576172,0.01135396957397461,-0.054404884576797485
1771082014535064600,13.535064697265625,0.25791168212890625,-0.05490255355834961,-0.0728129893541336
1771082014545006000,13.545006103515625,0.2706489562988281,-0.0777277946472168,-0.08096460998058319
1771082014554947300,13.554947265625,0.24124431610107422,-0.06471419334411621,-0.07835584878921509
1771082014564888600,13.564888671875,0.14442825317382812,-0.025372028350830078,-0.04987972974777222
1771082014574830000,13.574830078125,0.01871967315673828,-0.0012052059173583984,-0.012117624282836914
1771082014584771300,13.584771240234375,-0.06740570068359375,-0.009496450424194336,0.004291698336601257
1771082014594712800,13.594712890625,-0.10764694213867188,-0.04215598106384277,-0.014132305979728699
1771082014604654000,13.604654052734375,-0.08158302307128906,-0.06346797943115234,-0.05047331750392914
1771082014614595600,13.614595703125,0.012171745300292969,-0.06726717948913574,-0.05803251266479492
1771082014624536800,13.624536865234376,0.05986213684082031,-0.05788612365722656,-0.02515387535095215
1771082014634478000,13.63447802734375,-0.015302658081054688,-0.017291784286499023,0.033494412899017334
1771082014644419600,13.644419677734374,-0.17377090454101562,0.03577828407287598,0.0692564845085144
1771082014654360800,13.65436083984375,-0.3414926528930664,0.06484532356262207,0.058397188782691956
1771082014664302300,13.66430224609375,-0.4150571823120117,0.07179641723632812,0.01106947660446167
1771082014674243600,13.67424365234375,-0.3302955627441406,0.04836702346801758,0.007763847708702087
1771082014684184800,13.684184814453126,-0.049724578857421875,0.020658254623413086,-0.007465004920959473
1771082014694126300,13.694126220703126,0.18371963500976562,-0.043665170669555664,-0.05313882231712341
1771082014704067600,13.704067626953124,0.2888031005859375,-0.11743783950805664,-0.10745158791542053
1771082014714009000,13.714009033203125,0.24187088012695312,-0.15872693061828613,-0.15255990624427795
1771082014723950300,13.723950439453125,0.15842342376708984,-0.14208698272705078,-0.170643150806427
1771082014733891600,13.7338916015625,0.03427696228027344,-0.09408402442932129,-0.15813913941383362
1771082014743833000,13.7438330078125,-0.11600875854492188,-0.05896711349487305,-0.14451706409454346
1771082014753774300,13.7537744140625,-0.16980934143066406,-0.0284578800201416,-0.1278945505619049
1771082014763715800,13.7637158203125,-0.1381521224975586,-0.030632495880126953,-0.12636026740074158
1771082014773657000,13.773656982421874,-0.11184501647949219,-0.03934788703918457,-0.10149693489074707
1771082014783598600,13.7835986328125,-0.02013111114501953,-0.04056525230407715,-0.06799560785293579
1771082014793539800,13.793539794921875,0.044226646423339844,-0.027940034866333008,-0.06795820593833923
1771082014803481000,13.803481201171875,0.025285720825195312,-0.03742051124572754,-0.08860379457473755
1771082014813422600,13.813422607421876,-0.04746246337890625,-0.02095937728881836,-0.06889501214027405
1771082014823363800,13.82336376953125,-0.08609867095947266,0.004936933517456055,-0.04465299844741821
1771082014833305300,13.833305419921874,-0.10539054870605469,0.019322633743286133,-0.0035639405250549316
1771082014843246600,13.84324658203125,-0.1480560302734375,0.0601656436920166,-0.01401713490486145
1771082014853187800,13.853187744140625,-0.17129135131835938,0.08434700965881348,-0.036145687103271484
1771082014873070600,13.873070556640625,-0.2028350830078125,0.058052778244018555,-0.029214590787887573
1771082014883012000,13.88301220703125,-0.25099658966064453,0.06501412391662598,-0.008135557174682617
1771082014892953300,13.892953369140624,-0.19733428955078125,0.07727694511413574,-0.022236615419387817
1771082014902894800,13.902894775390624,-0.0694875717163086,0.06688332557678223,-0.015407979488372803
1771082014912836000,13.912836181640625,0.07957935333251953,0.0552976131439209,0.020625650882720947
1771082014922777300,13.92277734375,0.1954936981201172,0.02557206153869629,0.020217373967170715
1771082014932718600,13.932718505859375,0.23423385620117188,-0.010912656784057617,-0.0253429114818573
1771082014942660000,13.94266015625,0.2559852600097656,-0.047292470932006836,-0.0999247133731842
1771082014952601300,13.952601318359376,0.26111888885498047,-0.07231330871582031,-0.13817289471626282
1771082014962542600,13.96254248046875,0.238311767578125,-0.054001808166503906,-0.06567579507827759
