time,seconds_elapsed,z,y,x
1771082001084357000,0.084357177734375,-0.0070573715493083,-0.04181159660220146,-0.05086633935570717
1771082001094297300,0.09429736328125,-0.002796316985040903,-0.04394212365150452,-0.05938844755291939
1771082001104238000,0.104238037109375,0.0003994738799519837,-0.02583264373242855,-0.05832318589091301
1771082001114179300,0.114179443359375,0.0035952648613601923,-0.0034621069207787514,-0.044474758207798004
1771082001124120800,0.124120849609375,0.004660528618842363,-0.0002663159102667123,-0.029561065137386322
1771082001134062800,0.134062744140625,0.006791055668145418,-0.0141147430986166,-0.018908429890871048
1771082001144005000,0.144005126953125,0.00892158318310976,-0.02263685315847397,-0.010386320762336254
1771082001153948000,0.153947998046875,0.0153131652623415,-0.020506324246525764,-0.0018642114009708166
1771082001163890700,0.163890625,0.020639482885599136,-0.007723161485046148,0.005592633970081806
1771082001173833700,0.173833740234375,0.025965800508856773,0.00612526573240757,0.004527370445430279
1771082001183777000,0.183777099609375,0.029161592945456505,0.003994738683104515,-0.0018642114009708166
1771082001193720300,0.19372021484375,0.030226856470108032,-0.006657897960394621,-0.007190529722720385
1771082001203663400,0.203663330078125,0.028096329420804977,-0.011984216049313545,-0.010386320762336254
1771082001213604600,0.2136044921875,0.030226856470108032,-0.00985368900001049,-0.007190529722720385
1771082001223546000,0.223546142578125,0.029161592945456505,-0.011984216049313545,0.0002663159102667123
1771082001233487600,0.233487548828125,0.024900536984205246,-0.0141147430986166,0.006657897960394621
1771082001243428900,0.243428955078125,0.01850895583629608,-0.015180006623268127,0.010918952524662018
1771082001253370400,0.253370361328125,0.011052110232412815,-0.010918952524662018,0.013049479573965073
1771082001263312000,0.263311767578125,0.004660528618842363,-0.008788425475358963,0.007723161485046148
1771082001273253000,0.273253173828125,0.001464737462811172,-0.0141147430986166,-0.002929474925622344
1771082001283194600,0.283194580078125,0.004660528618842363,-0.01837579719722271,-0.012516847811639309
1771082001293136000,0.293135986328125,0.006791055668145418,-0.015180006623268127,-0.01784316636621952
1771082001303077400,0.303077392578125,0.004660528618842363,-0.00985368900001049,-0.023169483989477158
1771082001313019000,0.313018798828125,-0.0017310534603893757,-0.015180006623268127,-0.02636527456343174
1771082001322960100,0.322960205078125,-0.005992108024656773,-0.024767380207777023,-0.028495801612734795
1771082001332901600,0.332901611328125,-0.008122635073959827,-0.036485280841588974,-0.023169483989477158
1771082001342843100,0.342843017578125,-0.005992108024656773,-0.040746334940195084,-0.010386320762336254
1771082001352784400,0.352784423828125,-0.002796316985040903,-0.032224226742982864,0.0034621069207787514
1771082001362726000,0.362725830078125,0.0003994738799519837,-0.02263685315847397,0.00985368900001049
1771082001372667100,0.372667236328125,0.0035952648613601923,-0.013049479573965073,0.007723161485046148
1771082001382608600,0.382608642578125,0.0035952648613601923,-0.007723161485046148,-0.0050600022077560425
1771082001392550100,0.392550048828125,0.0003994738799519837,-0.007723161485046148,-0.018908429890871048
1771082001402491400,0.402491455078125,-0.002796316985040903,-0.015180006623268127,-0.028495801612734795
1771082001412433000,0.412432861328125,-0.005992108024656773,-0.01837579719722271,-0.024234747514128685
1771082001422374100,0.4223740234375,-0.0070573715493083,-0.00985368900001049,-0.010386320762336254
1771082001432315600,0.432315673828125,-0.003861580742523074,0.012516847811639309,0.008788425475358963
1771082001442257200,0.442257080078125,0.001464737462811172,0.02636527456343174,0.020506324246525764
1771082001452198400,0.452198486328125,0.007856319658458233,0.030626330524683,0.01837579719722271
1771082001462140000,0.462139892578125,0.011052110232412815,0.027430538088083267,0.006657897960394621
1771082001472081400,0.472081298828125,0.005725792143493891,0.012516847811639309,-0.010386320762336254
1771082001482022700,0.482022705078125,-0.008122635073959827,-0.011984216049313545,-0.03382211923599243
1771082001491964200,0.491964111328125,-0.023036325350403786,-0.026897907257080078,-0.05086633935570717
1771082001501905400,0.501905517578125,-0.028362644836306572,-0.023702116683125496,-0.05193160101771355
1771082001511847000,0.511846923828125,-0.026232117787003517,-0.015180006623268127,-0.04340949282050133
1771082001521788400,0.521788330078125,-0.018775271251797676,-0.010918952524662018,-0.03169159218668938
1771082001531729700,0.531729736328125,-0.011318426579236984,-0.007723161485046148,-0.015712639316916466
1771082001541671200,0.541671142578125,-0.009187898598611355,0.0007989477599039674,0.0002663159102667123
1771082001551612400,0.5516123046875,-0.005992108024656773,0.016777902841567993,0.011984216049313545
1771082001561554000,0.561553955078125,0.0003994738799519837,0.02210422046482563,0.019441060721874237
1771082001571495400,0.571495361328125,0.005725792143493891,0.016777902841567993,0.02157158963382244
1771082001581436700,0.581436767578125,0.011052110232412815,0.010386320762336254,0.019441060721874237
1771082001591378200,0.591378173828125,0.011052110232412815,-0.0034621069207787514,0.00985368900001049
1771082001601319700,0.601319580078125,0.00892158318310976,-0.03009369783103466,-0.007190529722720385
1771082001611261000,0.611260986328125,0.007856319658458233,-0.05779055133461952,-0.024234747514128685
1771082001621202400,0.621202392578125,0.001464737462811172,-0.07590003311634064,-0.030626330524683
1771082001631143700,0.631143798828125,-0.009187898598611355,-0.08122635632753372,-0.027430538088083267
1771082001641085200,0.641085205078125,-0.009187898598611355,-0.07696529477834702,-0.021038956940174103
1771082001651026700,0.651026611328125,-0.010253162123262882,-0.0684431865811348,-0.019973693415522575
1771082001660968000,0.660968017578125,-0.008122635073959827,-0.06631266325712204,-0.015712639316916466
1771082001670909400,0.670909423828125,-0.002796316985040903,-0.048203181475400925,-0.010386320762336254
1771082001680851000,0.680850830078125,-0.0006657897611148655,-0.019441060721874237,-0.00612526573240757
1771082001690792200,0.690792236328125,-0.003861580742523074,0.007190529722720385,-0.0050600022077560425
1771082001700733700,0.700733642578125,-0.009187898598611355,0.027430538088083267,-0.009321057237684727
1771082001710675000,0.710675048828125,-0.011318426579236984,0.030626330524683,-0.013582111336290836
1771082001720616400,0.720616455078125,-0.009187898598611355,0.016777902841567993,-0.015712639316916466
1771082001730558000,0.730557861328125,-0.004926844500005245,0.0007989477599039674,-0.010386320762336254
1771082001740499200,0.740499267578125,-0.0006657897611148655,-0.0034621069207787514,0.001331579522229731
1771082001750440700,0.750440673828125,0.0025300011038780212,-0.0023968431632965803,0.007723161485046148
1771082001760382200,0.76038232421875,0.001464737462811172,-0.0002663159102667123,0.00985368900001049
1771082001770323700,0.77032373046875,0.001464737462811172,0.0050600022077560425,0.007723161485046148
1771082001780265200,0.78026513671875,0.0025300011038780212,0.008255792781710625,-0.003994738683104515
1771082001790206500,0.79020654296875,0.0003994738799519837,0.007190529722720385,-0.01784316636621952
1771082001800148000,0.80014794921875,0.0003994738799519837,0.007190529722720385,-0.028495801612734795
1771082001810089500,0.81008935546875,-0.0006657897611148655,0.010386320762336254,-0.028495801612734795
1771082001820031000,0.820031005859375,-0.002796316985040903,0.016777902841567993,-0.018908429890871048
1771082001829972500,0.829972412109375,-0.008122635073959827,0.025300011038780212,-0.002929474925622344
1771082001839913700,0.839913818359375,-0.013448953628540039,0.019973693415522575,0.007723161485046148
1771082001849855200,0.849855224609375,-0.018775271251797676,-0.001331579522229731,0.010918952524662018
1771082001859796700,0.859796630859375,-0.019840534776449203,-0.020506324246525764,0.010918952524662018
1771082001869738200,0.86973828125,-0.02090579830110073,-0.02263685315847397,0.00985368900001049
1771082001879679700,0.8796796875,-0.02197106182575226,-0.0141147430986166,0.0034621069207787514
1771082001889621200,0.889621337890625,-0.02090579830110073,-0.001331579522229731,-0.0007989477599039674
1771082001899562500,0.8995625,-0.018775271251797676,0.011451584286987782,-0.0007989477599039674
1771082001909504000,0.90950390625,-0.01664474420249462,0.01784316636621952,0.004527370445430279
1771082001919445500,0.919445556640625,-0.01771000772714615,0.019973693415522575,0.008788425475358963
1771082001929387000,0.929386962890625,-0.019840534776449203,0.012516847811639309,0.010918952524662018
1771082001939328500,0.93932861328125,-0.018775271251797676,0.0050600022077560425,0.011984216049313545
1771082001949269800,0.949269775390625,-0.01664474420249462,-0.0034621069207787514,0.0141147430986166
1771082001959211300,0.959211181640625,-0.01771000772714615,-0.011984216049313545,0.015180006623268127
1771082001969152800,0.96915283203125,-0.02197106182575226,-0.016245270147919655,0.013049479573965073
1771082001979094300,0.97909423828125,-0.026232117787003517,-0.007723161485046148,0.010918952524662018
1771082001989035800,0.989035888671875,-0.024101590737700462,0.008255792781710625,0.010918952524662018
1771082001998977300,0.998977294921875,-0.019840534776449203,0.021038956940174103,0.008788425475358963
1771082002008918500,1.00891845703125,-0.01664474420249462,0.023169483989477158,0.001331579522229731
1771082002018860000,1.018860107421875,-0.01664474420249462,0.018908429890871048,-0.007190529722720385
1771082002028801500,1.028801513671875,-0.014514217153191566,0.016777902841567993,-0.013582111336290836
1771082002038743000,1.038742919921875,-0.009187898598611355,0.010386320762336254,-0.016777902841567993
1771082002048684500,1.0486845703125,-0.0070573715493083,0.0007989477599039674,-0.01784316636621952
1771082002058626000,1.0586259765625,-0.012383690103888512,-0.006657897960394621,-0.01784316636621952
1771082002068567300,1.0685673828125,-0.023036325350403786,-0.0034621069207787514,-0.01784316636621952
1771082002078508800,1.0785087890625,-0.027297381311655045,-0.0023968431632965803,-0.018908429890871048
1771082002088450300,1.0884501953125,-0.02516685426235199,-0.007723161485046148,-0.019973693415522575
1771082002098391800,1.098391845703125,-0.02090579830110073,-0.008788425475358963,-0.016777902841567993
1771082002108333300,1.108333251953125,-0.011318426579236984,-0.001331579522229731,-0.010386320762336254
1771082002118274600,1.118274658203125,-0.003861580742523074,0.0050600022077560425,-0.008255792781710625
1771082002128216000,1.128216064453125,-0.0017310534603893757,0.0050600022077560425,-0.011451584286987782
1771082002138157600,1.138157470703125,-0.003861580742523074,0.0050600022077560425,-0.023169483989477158
1771082002148099000,1.14809912109375,-0.0070573715493083,0.014647374860942364,-0.03169159218668938
1771082002158040300,1.158040283203125,-0.008122635073959827,0.02210422046482563,-0.03275685757398605
1771082002167981800,1.16798193359375,-0.004926844500005245,0.024234747514128685,-0.024234747514128685
1771082002177923000,1.177923095703125,-0.003861580742523074,0.02636527456343174,-0.010386320762336254
1771082002187864600,1.187864501953125,-0.002796316985040903,0.023169483989477158,0.0023968431632965803
1771082002197806000,1.19780615234375,-0.002796316985040903,0.015712639316916466,0.006657897960394621
1771082002207747300,1.207747314453125,-0.004926844500005245,0.0050600022077560425,-0.007190529722720385
1771082002217688800,1.217688720703125,-0.013448953628540039,-0.005592633970081806,-0.029561065137386322
1771082002227630000,1.227630126953125,-0.026232117787003517,-0.005592633970081806,-0.04767054691910744
1771082002237571600,1.237571533203125,-0.03795001655817032,0.008255792781710625,-0.05193160101771355
1771082002247513000,1.24751318359375,-0.04540686309337616,0.02636527456343174,-0.04660528525710106
1771082002257454300,1.257454345703125,-0.047537390142679214,0.03488738462328911,-0.03808317333459854
1771082002267395800,1.267395751953125,-0.04221107065677643,0.03701791167259216,-0.03275685757398605
1771082002277337300,1.27733740234375,-0.031558435410261154,0.03808317333459854,-0.025300011038780212
1771082002287278600,1.287278564453125,-0.02090579830110073,0.035952646285295486,-0.014647374860942364
1771082002297220000,1.29722021484375,-0.01771000772714615,0.023169483989477158,-0.007190529722720385
1771082002307161300,1.307161376953125,-0.01771000772714615,0.00612526573240757,-0.010386320762336254
1771082002317102800,1.317102783203125,-0.014514217153191566,-0.006657897960394621,-0.015712639316916466
1771082002327044400,1.32704443359375,-0.010253162123262882,-0.005592633970081806,-0.018908429890871048
1771082002336985600,1.336985595703125,-0.009187898598611355,0.0018642114009708166,-0.014647374860942364
1771082002346927000,1.346927001953125,-0.011318426579236984,0.021038956940174103,-0.0050600022077560425
1771082002356868600,1.35686865234375,-0.01664474420249462,0.03808317333459854,0.0023968431632965803
1771082002366809900,1.366809814453125,-0.018775271251797676,0.03808317333459854,0.005592633970081806
1771082002376751400,1.37675146484375,-0.014514217153191566,0.029561065137386322,0.008788425475358963
1771082002386692600,1.386692626953125,-0.004926844500005245,0.025300011038780212,0.011984216049313545
1771082002396634000,1.396634033203125,0.0035952648613601923,0.021038956940174103,0.00985368900001049
1771082002406575600,1.40657568359375,0.006791055668145418,0.014647374860942364,0.0002663159102667123
1771082002416516900,1.416516845703125,0.0003994738799519837,0.014647374860942364,-0.014647374860942364
1771082002426458400,1.426458251953125,-0.011318426579236984,0.01784316636621952,-0.03169159218668938
1771082002436399600,1.436399658203125,-0.02090579830110073,0.016777902841567993,-0.03914843872189522
1771082002446341000,1.446341064453125,-0.02516685426235199,0.014647374860942364,-0.040213704109191895
1771082002456282600,1.45628271484375,-0.027297381311655045,0.007190529722720385,-0.035952646285295486
1771082002466223900,1.466223876953125,-0.02516685426235199,0.0007989477599039674,-0.030626330524683
1771082002476165400,1.476165283203125,-0.01771000772714615,0.0050600022077560425,-0.025300011038780212
1771082002486107000,1.48610693359375,-0.010253162123262882,0.014647374860942364,-0.023169483989477158
1771082002496048000,1.496048095703125,-0.002796316985040903,0.018908429890871048,-0.024234747514128685
1771082002505989600,1.50598974609375,0.0025300011038780212,0.023169483989477158,-0.018908429890871048
1771082002515931000,1.515930908203125,0.001464737462811172,0.030626330524683,-0.009321057237684727
1771082002525872400,1.525872314453125,-0.002796316985040903,0.030626330524683,0.0002663159102667123
1771082002535814000,1.53581396484375,-0.009187898598611355,0.02210422046482563,0.0023968431632965803
1771082002545755100,1.545755126953125,-0.009187898598611355,0.013582111336290836,-0.0007989477599039674
1771082002555696600,1.555696533203125,-0.009187898598611355,0.00612526573240757,-0.007190529722720385
1771082002565638000,1.565637939453125,-0.009187898598611355,0.00612526573240757,-0.012516847811639309
1771082002575579400,1.575579345703125,-0.005992108024656773,0.011451584286987782,-0.013582111336290836
1771082002585521000,1.58552099609375,-0.004926844500005245,0.01784316636621952,-0.013582111336290836
1771082002595462100,1.595462158203125,-0.0070573715493083,0.02210422046482563,-0.015712639316916466
1771082002605403600,1.605403564453125,-0.008122635073959827,0.025300011038780212,-0.015712639316916466
1771082002615345200,1.61534521484375,-0.010253162123262882,0.024234747514128685,-0.010386320762336254
1771082002625286400,1.625286376953125,-0.019840534776449203,0.01784316636621952,-0.008255792781710625
1771082002635228000,1.635227783203125,-0.027297381311655045,0.0050600022077560425,-0.007190529722720385
1771082002645169200,1.645169189453125,-0.02516685426235199,0.0050600022077560425,-0.008255792781710625
1771082002655110700,1.655110595703125,-0.018775271251797676,0.007190529722720385,-0.008255792781710625
1771082002674993400,1.674993408203125,-0.012383690103888512,0.011451584286987782,-0.00612526573240757
1771082002684935000,1.684934814453125,-0.013448953628540039,0.021038956940174103,-0.0050600022077560425
1771082002704817700,1.704817626953125,-0.015579480677843094,0.012516847811639309,0.004527370445430279
1771082002724700400,1.724700439453125,-0.01771000772714615,0.015712639316916466,0.015180006623268127
1771082002744583400,1.74458349609375,-0.018775271251797676,0.018908429890871048,0.0034621069207787514
1771082002754524700,1.754524658203125,-0.02090579830110073,0.018908429890871048,-0.00612526573240757
1771082002774407400,1.774407470703125,-0.023036325350403786,0.014647374860942364,-0.018908429890871048
1771082002784349000,1.784348876953125,-0.023036325350403786,0.008255792781710625,-0.016777902841567993
1771082002794290400,1.79429052734375,-0.024101590737700462,0.003994738683104515,-0.010386320762336254
1771082002814173200,1.814173095703125,-0.028362644836306572,0.003994738683104515,0.0034621069207787514
1771082002824114700,1.82411474609375,-0.026232117787003517,0.003994738683104515,0.007723161485046148
1771082002843997400,1.84399755859375,-0.018775271251797676,-0.001331579522229731,0.006657897960394621
1771082002863880200,1.863880126953125,-0.01664474420249462,-0.0034621069207787514,-0.009321057237684727
1771082002873821700,1.87382177734375,-0.015579480677843094,0.010386320762336254,-0.011451584286987782
1771082002893704400,1.893704345703125,-0.013448953628540039,0.03275685757398605,0.00985368900001049
1771082002913587200,1.913587158203125,0.004660528618842363,0.03169159218668938,0.05139897018671036
1771082002923528700,1.92352880859375,0.014247900806367397,0.029561065137386322,0.06205160543322563
1771082002933470000,1.933469970703125,0.017443692311644554,0.02210422046482563,0.056725289672613144
1771082002943411500,1.943411376953125,0.0025300011038780212,0.0018642114009708166,0.036485280841588974
1771082002953353000,1.95335302734375,-0.01771000772714615,-0.020506324246525764,0.007723161485046148
1771082002973236000,1.973236083984375,-0.031558435410261154,-0.02583264373242855,-0.04234423115849495
1771082002983177200,1.98317724609375,-0.027297381311655045,-0.005592633970081806,-0.04980107396841049
1771082002993118700,1.99311865234375,-0.02197106182575226,0.014647374860942364,-0.04554001986980438
1771082003003060200,2.003060302734375,-0.01664474420249462,0.03275685757398605,-0.029561065137386322
1771082003022943200,2.022943115234375,-0.0070573715493083,0.03382211923599243,0.010918952524662018
1771082003042826000,2.042825927734375,-0.0070573715493083,-0.001331579522229731,0.040746334940195084
1771082003052767500,2.052767578125,-0.0006657897611148655,-0.008788425475358963,0.05139897018671036
1771082003072650500,2.072650390625,0.007856319658458233,-0.0023968431632965803,0.05139897018671036
1771082003092533200,2.092533203125,0.0035952648613601923,0.019973693415522575,0.03435475379228592
1771082003102474800,2.102474853515625,0.0035952648613601923,0.015712639316916466,0.024767380207777023
1771082003122357800,2.122357666015625,-0.0017310534603893757,0.002929474925622344,0.01837579719722271
1771082003142240800,2.14224072265625,-0.013448953628540039,-0.001331579522229731,0.02583264373242855
1771082003152182000,2.15218212890625,-0.01664474420249462,-0.011984216049313545,0.023702116683125496
1771082003162123500,2.16212353515625,-0.014514217153191566,-0.019441060721874237,0.019441060721874237
1771082003172065000,2.17206494140625,-0.0070573715493083,-0.026897907257080078,0.02263685315847397
1771082003182006500,2.182006591796875,0.001464737462811172,-0.03435475379228592,0.027963170781731606
1771082003191948000,2.191947998046875,0.004660528618842363,-0.04287686198949814,0.036485280841588974
1771082003201889500,2.2018896484375,0.006791055668145418,-0.05779055133461952,0.04607265070080757
1771082003211830800,2.211830810546875,0.001464737462811172,-0.06950845569372177,0.05566002428531647
1771082003221772300,2.221772216796875,-0.003861580742523074,-0.0588558167219162,0.060986343771219254
1771082003231713800,2.2317138671875,-0.002796316985040903,-0.04287686198949814,0.06418213248252869
1771082003241655300,2.2416552734375,-0.0006657897611148655,-0.0034621069207787514,0.05779055133461952
1771082003261538000,2.2615380859375,0.020639482885599136,0.03914843872189522,0.029028434306383133
1771082003281420800,2.2814208984375,0.03129211813211441,0.027430538088083267,-0.013582111336290836
1771082003291362300,2.2913623046875,0.033422645181417465,0.025300011038780212,-0.023169483989477158
1771082003301303800,2.3013037109375,0.030226856470108032,0.02210422046482563,-0.018908429890871048
1771082003311245000,2.3112451171875,0.01957421936094761,0.010386320762336254,-0.0018642114009708166
1771082003321186600,2.3211865234375,0.009986846707761288,-0.0023968431632965803,0.016245270147919655
1771082003341069300,2.3410693359375,0.01318263728171587,-0.024767380207777023,0.05139897018671036
1771082003360952000,2.3609521484375,0.020639482885599136,-0.02157158963382244,0.0588558167219162
1771082003370893600,2.3708935546875,0.0153131652623415,-0.00985368900001049,0.040746334940195084
1771082003380834800,2.380834716796875,0.01318263728171587,0.010386320762336254,0.013049479573965073
1771082003390776300,2.3907763671875,0.014247900806367397,0.030626330524683,-0.007190529722720385
1771082003410659000,2.4106591796875,0.017443692311644554,0.03275685757398605,-0.007190529722720385
1771082003430542000,2.4305419921875,0.017443692311644554,0.016777902841567993,0.031158961355686188
1771082003440483300,2.4404833984375,0.009986846707761288,-0.007723161485046148,0.04287686198949814
1771082003460366000,2.460365966796875,0.0003994738799519837,-0.01837579719722271,0.04500738903880119
1771082003480249000,2.4802490234375,0.00892158318310976,0.011451584286987782,0.027963170781731606
1771082003490190300,2.4901904296875,0.011052110232412815,0.018908429890871048,0.01837579719722271
1771082003500131800,2.5001318359375,0.007856319658458233,0.016777902841567993,0.013049479573965073
1771082003520014600,2.5200146484375,0.006791055668145418,-0.0002663159102667123,0.020506324246525764
1771082003529956000,2.5299560546875,0.004660528618842363,-0.011984216049313545,0.020506324246525764
1771082003539897300,2.5398974609375,0.0025300011038780212,-0.017310533672571182,0.024767380207777023
1771082003549838800,2.5498388671875,0.005725792143493891,-0.010918952524662018,0.029028434306383133
1771082003559780400,2.5597802734375,0.009986846707761288,0.0018642114009708166,0.03009369783103466
1771082003569721600,2.5697216796875,0.014247900806367397,0.01784316636621952,0.02583264373242855
1771082003579663000,2.5796630859375,0.01318263728171587,0.029561065137386322,0.017310533672571182
1771082003589604400,2.589604248046875,0.012117373757064342,0.02636527456343174,0.004527370445430279
1771082003599545900,2.5995458984375,0.016378428786993027,0.019973693415522575,-0.0018642114009708166
1771082003609487400,2.6094873046875,0.01850895583629608,0.011451584286987782,0.0034621069207787514
1771082003619428600,2.6194287109375,0.020639482885599136,-0.001331579522229731,0.02157158963382244
1771082003629370000,2.6293701171875,0.02277000993490219,-0.0023968431632965803,0.04500738903880119
1771082003639311600,2.6393115234375,0.02383527345955372,-0.0002663159102667123,0.06311687082052231
1771082003649252900,2.6492529296875,0.021704746410250664,-0.005592633970081806,0.06205160543322563
1771082003659194400,2.6591943359375,0.01850895583629608,-0.023702116683125496,0.04500738903880119
1771082003669135600,2.669135498046875,0.01318263728171587,-0.04394212365150452,0.02157158963382244
1771082003679077000,2.6790771484375,0.005725792143493891,-0.04713791608810425,0.004527370445430279
1771082003698960000,2.6989599609375,-0.0070573715493083,-0.02583264373242855,-0.008255792781710625
1771082003718842600,2.718842529296875,-0.0070573715493083,-0.006657897960394621,-0.009321057237684727
1771082003738725600,2.7387255859375,0.01318263728171587,0.0007989477599039674,-0.008255792781710625
1771082003758608400,2.7586083984375,0.01957421936094761,-0.0002663159102667123,0.00985368900001049
1771082003768550000,2.7685498046875,0.01957421936094761,0.003994738683104515,0.032224226742982864
1771082003788432600,2.7884326171875,0.025965800508856773,-0.015180006623268127,0.05033370852470398
1771082003808315400,2.8083154296875,0.03555317223072052,-0.031158961355686188,0.036485280841588974
1771082003818257000,2.8182568359375,0.03448791056871414,-0.040746334940195084,0.02157158963382244
1771082003828198100,2.8281982421875,0.029161592945456505,-0.0354200154542923,0.008788425475358963
1771082003838139600,2.8381396484375,0.024900536984205246,-0.017310533672571182,0.001331579522229731
1771082003848081200,2.8480810546875,0.02383527345955372,0.0050600022077560425,-0.0007989477599039674
1771082003858022400,2.8580224609375,0.021704746410250664,0.018908429890871048,0.0002663159102667123
1771082003877905200,2.8779052734375,0.017443692311644554,0.01784316636621952,0.010918952524662018
1771082003897788200,2.8977880859375,0.009986846707761288,-0.023702116683125496,0.013049479573965073
1771082003907729400,2.9077294921875,0.005725792143493891,-0.03328948840498924,0.016245270147919655
1771082003927612200,2.927612060546875,0.0025300011038780212,-0.004527370445430279,0.031158961355686188
1771082003937553700,2.9375537109375,0.001464737462811172,0.012516847811639309,0.03435475379228592
1771082003957436400,2.9574365234375,0.01318263728171587,0.02636527456343174,0.02157158963382244
1771082003967378000,2.9673779296875,0.017443692311644554,0.02210422046482563,0.011984216049313545
1771082003977319400,2.9773193359375,0.016378428786993027,0.00612526573240757,0.005592633970081806
1771082003987260700,2.9872607421875,0.00892158318310976,-0.010918952524662018,0.004527370445430279
1771082003997202200,2.9972021484375,0.0003994738799519837,-0.02263685315847397,0.008788425475358963
1771082004007143400,3.007143310546875,-0.0070573715493083,-0.02583264373242855,0.0141147430986166
1771082004017085000,3.0170849609375,-0.013448953628540039,-0.019441060721874237,0.019441060721874237
1771082004027026400,3.0270263671875,-0.012383690103888512,-0.004527370445430279,0.02157158963382244
1771082004036967700,3.0369677734375,-0.010253162123262882,0.010386320762336254,0.019441060721874237
1771082004046909200,3.0469091796875,-0.0070573715493083,0.011451584286987782,0.0141147430986166
1771082004056850700,3.0568505859375,-0.004926844500005245,0.00612526573240757,0.005592633970081806
1771082004066792000,3.0667919921875,-0.002796316985040903,-0.0034621069207787514,-0.0007989477599039674
1771082004076733400,3.0767333984375,-0.0006657897611148655,-0.007723161485046148,-0.0007989477599039674
1771082004086674700,3.0866748046875,-0.002796316985040903,-0.006657897960394621,0.005592633970081806
1771082004096616200,3.0966162109375,-0.004926844500005245,0.0050600022077560425,0.01837579719722271
1771082004106557700,3.1065576171875,-0.005992108024656773,0.01784316636621952,0.03009369783103466
1771082004116499000,3.1164990234375,-0.003861580742523074,0.018908429890871048,0.03435475379228592
1771082004126440400,3.1264404296875,-0.0017310534603893757,0.015712639316916466,0.032224226742982864
1771082004136381700,3.136381591796875,0.001464737462811172,0.012516847811639309,0.024767380207777023
1771082004146323200,3.1463232421875,0.0003994738799519837,0.003994738683104515,0.017310533672571182
1771082004156264700,3.1562646484375,-0.0017310534603893757,-0.005592633970081806,0.010918952524662018
1771082004166206000,3.1662060546875,-0.003861580742523074,-0.007723161485046148,0.011984216049313545
1771082004176147500,3.1761474609375,-0.005992108024656773,-0.0023968431632965803,0.016245270147919655
1771082004186089000,3.1860888671875,-0.0070573715493083,0.0007989477599039674,0.020506324246525764
1771082004196030200,3.1960302734375,-0.0006657897611148655,0.0007989477599039674,0.019441060721874237
1771082004205971700,3.2059716796875,0.005725792143493891,0.0018642114009708166,0.017310533672571182
1771082004215913000,3.215912841796875,0.007856319658458233,-0.0034621069207787514,0.011984216049313545
1771082004225854500,3.2258544921875,0.007856319658458233,-0.005592633970081806,0.007723161485046148
1771082004245737200,3.2457373046875,0.001464737462811172,-0.00985368900001049,0.0002663159102667123
1771082004255678700,3.2556787109375,0.0025300011038780212,-0.011984216049313545,-0.007190529722720385
1771082004265620000,3.265619873046875,0.005725792143493891,-0.006657897960394621,-0.014647374860942364
1771082004275561500,3.2755615234375,0.007856319658458233,0.003994738683104515,-0.014647374860942364
1771082004285503000,3.2855029296875,0.006791055668145418,0.009321057237684727,-0.008255792781710625
1771082004295444200,3.2954443359375,0.0003994738799519837,-0.001331579522229731,-0.0018642114009708166
1771082004305385700,3.3053857421875,-0.009187898598611355,-0.0141147430986166,0.008788425475358963
1771082004315327200,3.3153271484375,-0.015579480677843094,-0.019441060721874237,0.020506324246525764
1771082004325268500,3.3252685546875,-0.014514217153191566,-0.017310533672571182,0.03435475379228592
1771082004335210000,3.3352099609375,-0.008122635073959827,-0.006657897960394621,0.048203181475400925
1771082004345151200,3.345151123046875,0.0003994738799519837,0.012516847811639309,0.052464235574007034
1771082004355092700,3.3550927734375,0.004660528618842363,0.018908429890871048,0.04394212365150452
1771082004365034200,3.3650341796875,0.004660528618842363,0.012516847811639309,0.024767380207777023
1771082004374975500,3.3749755859375,-0.003861580742523074,-0.006657897960394621,-0.0018642114009708166
1771082004384917000,3.3849169921875,-0.018775271251797676,-0.036485280841588974,-0.028495801612734795
1771082004394858500,3.3948583984375,-0.034754227846860886,-0.05566002428531647,-0.044474758207798004
1771082004404799700,3.4047998046875,-0.04434159770607948,-0.04500738903880119,-0.04234423115849495
1771082004414741200,3.4147412109375,-0.04221107065677643,-0.0141147430986166,-0.027430538088083267
1771082004424682500,3.4246826171875,-0.03368896245956421,0.02210422046482563,-0.009321057237684727
1771082004434624000,3.4346240234375,-0.023036325350403786,0.04554001986980438,0.006657897960394621
1771082004444565500,3.4445654296875,-0.011318426579236984,0.04660528525710106,0.019441060721874237
1771082004454506800,3.4545068359375,-0.002796316985040903,0.03382211923599243,0.03009369783103466
1771082004464448300,3.4644482421875,-0.003861580742523074,0.019973693415522575,0.03861580789089203
1771082004474389500,3.474389404296875,-0.010253162123262882,0.008255792781710625,0.036485280841588974
1771082004484331000,3.4843310546875,-0.015579480677843094,0.00612526573240757,0.032224226742982864
1771082004494272500,3.4942724609375,-0.013448953628540039,0.00612526573240757,0.027963170781731606
1771082004504213800,3.5042138671875,-0.004926844500005245,0.012516847811639309,0.02583264373242855
1771082004514155300,3.5141552734375,0.001464737462811172,-0.0023968431632965803,0.01837579719722271
1771082004524096800,3.5240966796875,0.004660528618842363,-0.0002663159102667123,0.008788425475358963
1771082004534038000,3.5340380859375,0.007856319658458233,0.012516847811639309,0.004527370445430279
1771082004543979500,3.5439794921875,0.00892158318310976,0.019973693415522575,0.005592633970081806
1771082004553920800,3.553920654296875,0.005725792143493891,0.023169483989477158,0.010918952524662018
1771082004563862300,3.5638623046875,-0.0006657897611148655,0.02210422046482563,0.015180006623268127
1771082004573803800,3.5738037109375,-0.0070573715493083,0.016777902841567993,0.01837579719722271
1771082004583745000,3.5837451171875,-0.009187898598611355,0.014647374860942364,0.015180006623268127
1771082004593686500,3.5936865234375,-0.0070573715493083,0.014647374860942364,0.004527370445430279
1771082004603628000,3.6036279296875,-0.0006657897611148655,0.021038956940174103,-0.002929474925622344
1771082004613569300,3.6135693359375,0.007856319658458233,0.029561065137386322,-0.007190529722720385
1771082004623510800,3.6235107421875,0.011052110232412815,0.03701791167259216,-0.002929474925622344
1771082004633452000,3.6334521484375,0.00892158318310976,0.04234423115849495,0.00985368900001049
1771082004643393500,3.6433935546875,0.0035952648613601923,0.04234423115849495,0.020506324246525764
1771082004653335000,3.6533349609375,-0.004926844500005245,0.03701791167259216,0.023702116683125496
1771082004663276300,3.6632763671875,-0.008122635073959827,0.024234747514128685,0.017310533672571182
1771082004673217800,3.6732177734375,-0.008122635073959827,0.018908429890871048,0.005592633970081806
1771082004683159000,3.683158935546875,-0.002796316985040903,0.02636527456343174,-0.003994738683104515
1771082004693100500,3.6931005859375,0.001464737462811172,0.030626330524683,-0.013582111336290836
1771082004703042000,3.7030419921875,0.0003994738799519837,0.029561065137386322,-0.023169483989477158
1771082004712983300,3.7129833984375,-0.0006657897611148655,0.023169483989477158,-0.02636527456343174
1771082004722924800,3.7229248046875,-0.009187898598611355,0.010386320762336254,-0.02210422046482563
1771082004732866300,3.7328662109375,-0.02197106182575226,0.0007989477599039674,-0.009321057237684727
1771082004742807600,3.7428076171875,-0.034754227846860886,-0.008788425475358963,0.0023968431632965803
1771082004752749000,3.7527490234375,-0.04540686309337616,-0.011984216049313545,0.010918952524662018
1771082004762690300,3.762690185546875,-0.04647212475538254,-0.005592633970081806,0.0141147430986166
1771082004772631800,3.7726318359375,-0.04221107065677643,0.0007989477599039674,0.011984216049313545
1771082004782573300,3.7825732421875,-0.035819489508867264,-0.001331579522229731,0.001331579522229731
1771082004792514600,3.7925146484375,-0.0294279083609581,-0.0034621069207787514,-0.010386320762336254
1771082004802456000,3.8024560546875,-0.026232117787003517,0.003994738683104515,-0.021038956940174103
1771082004812397300,3.812397216796875,-0.024101590737700462,0.01784316636621952,-0.023169483989477158
1771082004822338800,3.8223388671875,-0.02516685426235199,0.030626330524683,-0.02636527456343174
1771082004832280300,3.8322802734375,-0.031558435410261154,0.029561065137386322,-0.028495801612734795
1771082004842221600,3.8422216796875,-0.03795001655817032,0.019973693415522575,-0.02210422046482563
1771082004852163000,3.8521630859375,-0.03688475489616394,0.012516847811639309,-0.008255792781710625
1771082004862104600,3.8621044921875,-0.034754227846860886,0.008255792781710625,0.006657897960394621
1771082004872045800,3.8720458984375,-0.030493171885609627,0.010386320762336254,0.01837579719722271
1771082004881987300,3.8819873046875,-0.02516685426235199,0.013582111336290836,0.02157158963382244
1771082004891928600,3.891928466796875,-0.015579480677843094,0.016777902841567993,0.02157158963382244
1771082004901870000,3.9018701171875,-0.009187898598611355,0.015712639316916466,0.02157158963382244
1771082004911811600,3.9118115234375,-0.008122635073959827,0.010386320762336254,0.020506324246525764
1771082004921752800,3.9217529296875,-0.015579480677843094,0.002929474925622344,0.019441060721874237
1771082004931694300,3.9316943359375,-0.02516685426235199,0.003994738683104515,0.019441060721874237
1771082004941635800,3.9416357421875,-0.0294279083609581,0.012516847811639309,0.016245270147919655
1771082004951577000,3.9515771484375,-0.028362644836306572,0.019973693415522575,0.007723161485046148
1771082004961518600,3.9615185546875,-0.02516685426235199,0.02636527456343174,-0.0050600022077560425
1771082004971459800,3.9714599609375,-0.02090579830110073,0.030626330524683,-0.01784316636621952
1771082004981401300,3.9814013671875,-0.019840534776449203,0.03169159218668938,-0.025300011038780212
1771082004991342800,3.9913427734375,-0.026232117787003517,0.025300011038780212,-0.027430538088083267
1771082005001284000,4.0012841796875,-0.030493171885609627,0.013582111336290836,-0.027430538088083267
1771082005011225600,4.0112255859375,-0.028362644836306572,0.010386320762336254,-0.028495801612734795
1771082005021166800,4.021166748046875,-0.03262370079755783,0.014647374860942364,-0.018908429890871048
1771082005031108400,4.0311083984375,-0.035819489508867264,0.018908429890871048,-0.008255792781710625
1771082005041049900,4.0410498046875,-0.027297381311655045,0.028495801612734795,0.0002663159102667123
1771082005050991000,4.0509912109375,-0.018775271251797676,0.04127896577119827,0.0034621069207787514
1771082005060932600,4.0609326171875,-0.013448953628540039,0.04660528525710106,-0.0018642114009708166
1771082005070874000,4.0708740234375,-0.015579480677843094,0.03808317333459854,-0.016777902841567993
1771082005080815400,4.0808154296875,-0.02090579830110073,0.01784316636621952,-0.040213704109191895
1771082005090756900,4.0907568359375,-0.026232117787003517,0.0007989477599039674,-0.056192658841609955
1771082005100698000,4.100697998046875,-0.031558435410261154,0.0050600022077560425,-0.05725792050361633
1771082005110639600,4.1106396484375,-0.034754227846860886,0.02210422046482563,-0.04767054691910744
1771082005120581000,4.1205810546875,-0.030493171885609627,0.03275685757398605,-0.035952646285295486
1771082005130522400,4.1305224609375,-0.024101590737700462,0.03382211923599243,-0.025300011038780212
1771082005140463900,4.1404638671875,-0.014514217153191566,0.027430538088083267,-0.021038956940174103
1771082005150405400,4.1504052734375,-0.003861580742523074,0.019973693415522575,-0.019973693415522575
1771082005160346600,4.1603466796875,0.005725792143493891,0.012516847811639309,-0.019973693415522575
1771082005170288000,4.1702880859375,0.011052110232412815,0.01784316636621952,-0.02210422046482563
1771082005180229400,4.1802294921875,0.01318263728171587,0.035952646285295486,-0.025300011038780212
1771082005190171000,4.1901708984375,0.014247900806367397,0.056192658841609955,-0.024234747514128685
1771082005210053600,4.2100537109375,0.029161592945456505,0.05512739345431328,-0.019973693415522575
1771082005219995100,4.2199951171875,0.03768370300531387,0.03701791167259216,-0.01784316636621952
1771082005229936400,4.229936279296875,0.040879491716623306,0.013582111336290836,-0.019973693415522575
1771082005239878000,4.2398779296875,0.03555317223072052,-0.001331579522229731,-0.018908429890871048
1771082005249819400,4.2498193359375,0.024900536984205246,0.0007989477599039674,-0.023169483989477158
1771082005259760600,4.2597607421875,0.020639482885599136,0.019973693415522575,-0.024234747514128685
1771082005269702100,4.2697021484375,0.0153131652623415,0.040213704109191895,-0.021038956940174103
1771082005279643600,4.2796435546875,0.012117373757064342,0.04234423115849495,-0.012516847811639309
1771082005289585000,4.2895849609375,0.009986846707761288,0.03275685757398605,-0.002929474925622344
1771082005299526400,4.2995263671875,0.005725792143493891,0.016777902841567993,0.00985368900001049
1771082005309467600,4.309467529296875,-0.0006657897611148655,-0.0002663159102667123,0.019441060721874237
1771082005319409200,4.3194091796875,-0.0070573715493083,-0.0034621069207787514,0.023702116683125496
1771082005329350700,4.3293505859375,-0.011318426579236984,0.010386320762336254,0.020506324246525764
1771082005339292000,4.3392919921875,-0.008122635073959827,0.03169159218668938,0.0141147430986166
1771082005349233400,4.3492333984375,0.0003994738799519837,0.04554001986980438,0.007723161485046148
1771082005359174700,4.359174560546875,0.006791055668145418,0.04980107396841049,0.0002663159102667123
1771082005379057700,4.3790576171875,0.0035952648613601923,0.029561065137386322,-0.013582111336290836
1771082005398940400,4.3989404296875,-0.015579480677843094,0.010386320762336254,-0.008255792781710625
1771082005418823200,4.4188232421875,-0.02090579830110073,0.018908429890871048,-0.002929474925622344
1771082005438706000,4.438705810546875,-0.01771000772714615,0.03914843872189522,-0.0050600022077560425
1771082005448647400,4.4486474609375,-0.01664474420249462,0.03808317333459854,-0.0018642114009708166
1771082005458589000,4.4585888671875,-0.015579480677843094,0.03275685757398605,0.0023968431632965803
1771082005468530200,4.4685302734375,-0.014514217153191566,0.028495801612734795,0.0034621069207787514
1771082005478471700,4.4784716796875,-0.012383690103888512,0.02636527456343174,0.001331579522229731
1771082005488413200,4.4884130859375,-0.011318426579236984,0.01784316636621952,-0.002929474925622344
1771082005498354400,4.4983544921875,-0.013448953628540039,0.018908429890871048,-0.0007989477599039674
1771082005518237200,4.5182373046875,-0.01664474420249462,0.04554001986980438,0.005592633970081806
1771082005538120200,4.5381201171875,-0.011318426579236984,0.018908429890871048,-0.008255792781710625
1771082005548061400,4.5480615234375,-0.010253162123262882,0.003994738683104515,-0.014647374860942364
1771082005567944200,4.567944091796875,-0.013448953628540039,-0.020506324246525764,-0.016777902841567993
1771082005577885700,4.5778857421875,-0.018775271251797676,-0.020506324246525764,-0.010386320762336254
1771082005587827200,4.5878271484375,-0.019840534776449203,-0.016245270147919655,-0.0018642114009708166
1771082005607710000,4.6077099609375,-0.010253162123262882,-0.001331579522229731,0.0023968431632965803
1771082005627592700,4.6275927734375,-0.002796316985040903,0.00612526573240757,-0.009321057237684727
1771082005637534200,4.6375341796875,-0.004926844500005245,0.0050600022077560425,-0.016777902841567993
1771082005657417000,4.6574169921875,-0.010253162123262882,0.009321057237684727,-0.010386320762336254
1771082005667358500,4.6673583984375,-0.009187898598611355,0.010386320762336254,-0.0018642114009708166
1771082005687241200,4.6872412109375,-0.015579480677843094,0.00612526573240757,0.0023968431632965803
1771082005697182700,4.6971826171875,-0.01771000772714615,0.002929474925622344,0.0023968431632965803
1771082005707124000,4.7071240234375,-0.023036325350403786,0.0007989477599039674,0.0023968431632965803
1771082005717065500,4.7170654296875,-0.02516685426235199,0.010386320762336254,0.0023968431632965803
1771082005736948200,4.7369482421875,-0.015579480677843094,0.02210422046482563,0.006657897960394621
1771082005756831000,4.7568310546875,0.011052110232412815,0.03808317333459854,0.0002663159102667123
1771082005766772500,4.7667724609375,0.006791055668145418,0.03488738462328911,-0.008255792781710625
1771082005786655200,4.7866552734375,-0.02197106182575226,-0.01837579719722271,-0.03382211923599243
1771082005806538000,4.8065380859375,-0.04221107065677643,-0.03755054250359535,-0.03275685757398605
1771082005826421000,4.8264208984375,-0.02516685426235199,-0.024767380207777023,-0.016777902841567993
1771082005846303700,4.8463037109375,0.009986846707761288,-0.0141147430986166,-0.02210422046482563
1771082005866186500,4.8661865234375,0.021704746410250664,-0.031158961355686188,-0.024234747514128685
1771082005886069200,4.8860693359375,-0.0017310534603893757,-0.06205160543322563,-0.018908429890871048
1771082005905952000,4.905951904296875,0.021704746410250664,-0.048203181475400925,0.0034621069207787514
1771082005925835000,4.9258349609375,0.03448791056871414,0.002929474925622344,0.032224226742982864
1771082005935776300,4.9357763671875,0.029161592945456505,0.009321057237684727,0.03755054250359535
1771082005955659300,4.9556591796875,0.020639482885599136,0.01784316636621952,0.03328948840498924
1771082005965600500,4.9656005859375,0.02277000993490219,0.02210422046482563,0.0354200154542923
1771082005975542000,4.9755419921875,0.021704746410250664,0.027430538088083267,0.04394212365150452
1771082005995424800,4.9954248046875,0.009986846707761288,0.014647374860942364,0.04287686198949814
1771082006005366300,5.0053662109375,0.001464737462811172,0.011451584286987782,0.03009369783103466
1771082006015307500,5.0153076171875,-0.009187898598611355,0.003994738683104515,0.011984216049313545
1771082006025249000,5.0252490234375,-0.019840534776449203,-0.001331579522229731,-0.008255792781710625
1771082006035190500,5.0351904296875,-0.026232117787003517,-0.001331579522229731,-0.02210422046482563
1771082006045131800,5.0451318359375,-0.026232117787003517,0.00612526573240757,-0.025300011038780212
1771082006055073300,5.0550732421875,-0.02516685426235199,0.009321057237684727,-0.018908429890871048
1771082006065014500,5.0650146484375,-0.02090579830110073,0.008255792781710625,-0.009321057237684727
1771082006074956000,5.0749560546875,-0.011318426579236984,0.009321057237684727,0.00985368900001049
1771082006084897500,5.0848974609375,-0.0017310534603893757,0.0007989477599039674,0.029028434306383133
1771082006094838800,5.0948388671875,0.0025300011038780212,-0.017310533672571182,0.03968106955289841
1771082006104780300,5.1047802734375,-0.003861580742523074,-0.029028434306383133,0.04287686198949814
1771082006114721500,5.114721435546875,-0.010253162123262882,-0.036485280841588974,0.03968106955289841
1771082006124663000,5.1246630859375,-0.015579480677843094,-0.04500738903880119,0.026897907257080078
1771082006134604500,5.1346044921875,-0.01771000772714615,-0.05033370852470398,0.008788425475358963
1771082006144545800,5.1445458984375,-0.013448953628540039,-0.04394212365150452,-0.002929474925622344
1771082006154487300,5.1544873046875,-0.008122635073959827,-0.03328948840498924,-0.008255792781710625
1771082006164428800,5.1644287109375,-0.004926844500005245,-0.032224226742982864,-0.003994738683104515
1771082006174370000,5.1743701171875,-0.002796316985040903,-0.032224226742982864,0.006657897960394621
1771082006184311600,5.1843115234375,0.0003994738799519837,-0.031158961355686188,0.02263685315847397
1771082006194252800,5.194252685546875,0.0025300011038780212,-0.0354200154542923,0.036485280841588974
1771082006204194300,5.2041943359375,0.001464737462811172,-0.040746334940195084,0.04500738903880119
1771082006214135800,5.2141357421875,-0.003861580742523074,-0.03968106955289841,0.052464235574007034
1771082006224077000,5.2240771484375,-0.010253162123262882,-0.032224226742982864,0.05139897018671036
1771082006234018600,5.2340185546875,-0.010253162123262882,-0.019441060721874237,0.05033370852470398
1771082006243960000,5.2439599609375,0.0003994738799519837,-0.0141147430986166,0.048203181475400925
1771082006253901300,5.2539013671875,0.014247900806367397,-0.02263685315847397,0.04181159660220146
1771082006263842800,5.2638427734375,0.025965800508856773,-0.017310533672571182,0.03861580789089203
1771082006273784000,5.2737841796875,0.0270310640335083,-0.008788425475358963,0.03968106955289841
1771082006283725600,5.2837255859375,0.01957421936094761,-0.0034621069207787514,0.04287686198949814
1771082006293667000,5.2936669921875,0.011052110232412815,-0.007723161485046148,0.040746334940195084
1771082006303608300,5.3036083984375,-0.0006657897611148655,-0.0141147430986166,0.04500738903880119
1771082006313549800,5.3135498046875,-0.01664474420249462,-0.006657897960394621,0.05566002428531647
1771082006323491000,5.323490966796875,-0.03368896245956421,0.0007989477599039674,0.06524740159511566
1771082006333432600,5.3334326171875,-0.043276336044073105,-0.005592633970081806,0.06205160543322563
1771082006343374000,5.3433740234375,-0.04647212475538254,-0.02263685315847397,0.04607265070080757
1771082006353315300,5.3533154296875,-0.04114580899477005,-0.03968106955289841,0.02157158963382244
1771082006363256800,5.3632568359375,-0.03368896245956421,-0.05139897018671036,-0.0018642114009708166
1771082006373198300,5.3731982421875,-0.026232117787003517,-0.04500738903880119,-0.014647374860942364
1771082006383139600,5.3831396484375,-0.023036325350403786,-0.027963170781731606,-0.018908429890871048
1771082006393081000,5.3930810546875,-0.027297381311655045,-0.02157158963382244,-0.021038956940174103
1771082006403022300,5.403022216796875,-0.03688475489616394,-0.023702116683125496,-0.027430538088083267
1771082006412963800,5.4129638671875,-0.043276336044073105,-0.02263685315847397,-0.03275685757398605
1771082006422905300,5.4229052734375,-0.04647212475538254,-0.02157158963382244,-0.030626330524683
1771082006432846600,5.4328466796875,-0.043276336044073105,-0.027963170781731606,-0.02636527456343174
1771082006452729300,5.452729248046875,-0.011318426579236984,-0.02263685315847397,-0.002929474925622344
1771082006462670800,5.4626708984375,0.007856319658458233,-0.026897907257080078,-0.002929474925622344
1771082006472612400,5.4726123046875,0.01957421936094761,-0.03009369783103466,-0.012516847811639309
1771082006482553600,5.4825537109375,0.021704746410250664,-0.02583264373242855,-0.024234747514128685
1771082006492495000,5.4924951171875,0.01318263728171587,-0.019441060721874237,-0.03382211923599243
1771082006502436600,5.5024365234375,0.0003994738799519837,-0.00985368900001049,-0.03169159218668938
1771082006522319400,5.5223193359375,-0.003861580742523074,0.013582111336290836,-0.003994738683104515
1771082006532260600,5.532260498046875,0.006791055668145418,0.015712639316916466,0.006657897960394621
1771082006542202000,5.5422021484375,0.020639482885599136,0.01784316636621952,0.0141147430986166
1771082006562084900,5.5620849609375,0.049401599913835526,0.04660528525710106,0.01837579719722271
1771082006572026400,5.5720263671875,0.05898897349834442,0.05299686640501022,0.023702116683125496
1771082006581967600,5.581967529296875,0.06538055837154388,0.04234423115849495,0.032224226742982864
1771082006591909000,5.5919091796875,0.06538055837154388,0.02636527456343174,0.04713791608810425
1771082006601850400,5.601850341796875,0.061119500547647476,0.009321057237684727,0.06205160543322563
1771082006611792000,5.6117919921875,0.05472791939973831,-0.004527370445430279,0.07590003311634064
1771082006621733000,5.621733154296875,0.04620581120252609,-0.008788425475358963,0.07483477145433426
1771082006631674400,5.63167431640625,0.03874896466732025,-0.008788425475358963,0.056725289672613144
1771082006651557000,5.65155712890625,0.040879491716623306,0.002929474925622344,0.015180006623268127
1771082006671440000,5.67143994140625,0.040879491716623306,0.014647374860942364,0.0023968431632965803
1771082006681381000,5.681381103515625,0.03448791056871414,0.009321057237684727,0.006657897960394621
1771082006701264000,5.701263916015625,0.020639482885599136,-0.00985368900001049,0.03435475379228592
1771082006721146600,5.721146728515625,0.012117373757064342,-0.007723161485046148,0.06737792491912842
1771082006731088100,5.731088134765625,0.0153131652623415,-0.0034621069207787514,0.07163897901773453
1771082006741029400,5.741029296875,0.02277000993490219,0.002929474925622344,0.06524740159511566
1771082006750970600,5.750970703125,0.03129211813211441,0.010386320762336254,0.05033370852470398
1771082006760912100,5.760912109375,0.03874896466732025,0.011451584286987782,0.029028434306383133
1771082006770853400,5.770853271484375,0.03768370300531387,0.008255792781710625,0.00985368900001049
1771082006780795000,5.780794921875,0.030226856470108032,0.009321057237684727,0.0034621069207787514
1771082006790736100,5.790736083984375,0.017443692311644554,0.010386320762336254,0.007723161485046148
1771082006800677400,5.800677490234375,0.005725792143493891,0.013582111336290836,0.013049479573965073
1771082006820560100,5.82056005859375,-0.005992108024656773,-0.0002663159102667123,0.010918952524662018
1771082006840443000,5.84044287109375,-0.0006657897611148655,-0.0141147430986166,0.0034621069207787514
1771082006850384400,5.85038427734375,-0.004926844500005245,-0.013049479573965073,0.001331579522229731
1771082006860325600,5.86032568359375,-0.012383690103888512,-0.011984216049313545,0.001331579522229731
1771082006870267000,5.870266845703125,-0.02197106182575226,-0.004527370445430279,0.004527370445430279
1771082006890149600,5.890149658203125,-0.03368896245956421,-0.001331579522229731,-0.002929474925622344
1771082006910032600,5.91003271484375,-0.028362644836306572,0.018908429890871048,-0.018908429890871048
1771082006929915400,5.929915283203125,-0.011318426579236984,0.027430538088083267,-0.012516847811639309
1771082006949798100,5.949798095703125,-0.015579480677843094,0.04234423115849495,0.024767380207777023
1771082006959739600,5.95973974609375,-0.026232117787003517,0.028495801612734795,0.03328948840498924
1771082006969681000,5.969680908203125,-0.03368896245956421,0.0050600022077560425,0.026897907257080078
1771082006979622400,5.979622314453125,-0.034754227846860886,-0.0023968431632965803,0.01837579719722271
1771082006999505200,5.999505126953125,-0.018775271251797676,0.023169483989477158,0.004527370445430279
1771082007009446700,6.00944677734375,-0.01771000772714615,0.02636527456343174,-0.003994738683104515
1771082007029329400,6.029329345703125,-0.02516685426235199,0.012516847811639309,-0.011451584286987782
1771082007049212200,6.049212158203125,-0.0294279083609581,-0.011984216049313545,-0.007190529722720385
1771082007069095200,6.06909521484375,-0.030493171885609627,-0.016245270147919655,-0.009321057237684727
1771082007088978000,6.08897802734375,-0.02197106182575226,0.0007989477599039674,0.0002663159102667123
1771082007108860700,6.108860595703125,-0.01664474420249462,0.023169483989477158,0.0023968431632965803
1771082007128743400,6.128743408203125,-0.023036325350403786,-0.005592633970081806,-0.015712639316916466
1771082007148626200,6.148626220703125,-0.034754227846860886,-0.032224226742982864,-0.023169483989477158
1771082007168509200,6.16850927734375,-0.04434159770607948,-0.03968106955289841,-0.018908429890871048
1771082007188392000,6.188391845703125,-0.035819489508867264,-0.020506324246525764,-0.008255792781710625
1771082007208274700,6.208274658203125,-0.02090579830110073,-0.0023968431632965803,0.010918952524662018
1771082007218216200,6.21821630859375,-0.018775271251797676,0.0050600022077560425,0.023702116683125496
1771082007238099000,6.238098876953125,-0.026232117787003517,-0.007723161485046148,0.031158961355686188
1771082007257981700,6.257981689453125,-0.034754227846860886,-0.02263685315847397,0.011984216049313545
1771082007277864400,6.277864501953125,-0.03368896245956421,0.0007989477599039674,0.00985368900001049
1771082007287806000,6.287805908203125,-0.0294279083609581,0.02636527456343174,0.019441060721874237
1771082007297747500,6.29774755859375,-0.02090579830110073,0.04340949282050133,0.029028434306383133
1771082007307688700,6.307688720703125,-0.014514217153191566,0.04554001986980438,0.029028434306383133
1771082007317630200,6.317630126953125,-0.009187898598611355,0.035952646285295486,0.02157158963382244
1771082007327571700,6.32757177734375,-0.004926844500005245,0.024234747514128685,0.008788425475358963
1771082007337513000,6.337512939453125,-0.004926844500005245,0.013582111336290836,0.0002663159102667123
1771082007347454500,6.347454345703125,-0.008122635073959827,0.009321057237684727,-0.00612526573240757
1771082007357395700,6.357395751953125,-0.009187898598611355,0.010386320762336254,-0.009321057237684727
1771082007367337200,6.367337158203125,-0.002796316985040903,0.019973693415522575,-0.010386320762336254
1771082007377278700,6.37727880859375,0.00892158318310976,0.027430538088083267,-0.009321057237684727
1771082007387220000,6.387219970703125,0.021704746410250664,0.02636527456343174,-0.0050600022077560425
1771082007397161500,6.397161376953125,0.03235738351941109,0.02210422046482563,-0.0007989477599039674
1771082007407103000,6.40710302734375,0.03874896466732025,0.019973693415522575,0.006657897960394621
1771082007417044200,6.417044189453125,0.040879491716623306,0.02210422046482563,0.00985368900001049
1771082007426985700,6.42698583984375,0.04194475710391998,0.03169159218668938,0.00985368900001049
1771082007436927000,6.436927001953125,0.04301001876592636,0.03701791167259216,0.006657897960394621
1771082007456810000,6.45681005859375,0.04833633825182915,0.030626330524683,-0.002929474925622344
1771082007466751200,6.466751220703125,0.05259739235043526,0.025300011038780212,-0.002929474925622344
1771082007486634000,6.486634033203125,0.04727107286453247,0.003994738683104515,0.0023968431632965803
1771082007496575500,6.496575439453125,0.03874896466732025,-0.001331579522229731,0.006657897960394621
1771082007506517000,6.50651708984375,0.03129211813211441,-0.007723161485046148,0.011984216049313545
1771082007516458200,6.516458251953125,0.025965800508856773,-0.019441060721874237,0.013049479573965073
1771082007526399700,6.526399658203125,0.02383527345955372,-0.029028434306383133,0.008788425475358963
1771082007536341200,6.53634130859375,0.024900536984205246,-0.03009369783103466,0.0023968431632965803
1771082007546282500,6.546282470703125,0.024900536984205246,-0.024767380207777023,0.001331579522229731
1771082007556224000,6.55622412109375,0.01957421936094761,-0.02157158963382244,0.006657897960394621
1771082007576106800,6.576106689453125,-0.002796316985040903,-0.048203181475400925,0.02157158963382244
1771082007595989500,6.595989501953125,-0.018775271251797676,-0.04607265070080757,0.02157158963382244
1771082007615872500,6.61587255859375,-0.013448953628540039,-0.011984216049313545,0.008788425475358963
1771082007625813800,6.625813720703125,-0.011318426579236984,-0.005592633970081806,0.0002663159102667123
1771082007635755300,6.63575537109375,-0.011318426579236984,-0.004527370445430279,0.0002663159102667123
1771082007645696500,6.645696533203125,-0.011318426579236984,-0.004527370445430279,0.010918952524662018
1771082007655638000,6.655637939453125,-0.01664474420249462,-0.013049479573965073,0.02583264373242855
1771082007665579500,6.66557958984375,-0.024101590737700462,-0.017310533672571182,0.03861580789089203
1771082007675520800,6.675520751953125,-0.0294279083609581,-0.011984216049313545,0.04500738903880119
1771082007695403500,6.695403564453125,-0.023036325350403786,0.009321057237684727,0.032224226742982864
1771082007705345000,6.705344970703125,-0.01664474420249462,0.025300011038780212,0.017310533672571182
1771082007715286500,6.71528662109375,-0.009187898598611355,0.03808317333459854,0.004527370445430279
1771082007735169300,6.735169189453125,-0.0006657897611148655,0.04127896577119827,-0.0050600022077560425
1771082007755052000,6.755052001953125,0.0003994738799519837,0.023169483989477158,-0.002929474925622344
1771082007774934800,6.774934814453125,-0.004926844500005245,0.0050600022077560425,0.00985368900001049
1771082007784876000,6.7848759765625,-0.008122635073959827,-0.010918952524662018,0.015180006623268127
1771082007794817500,6.794817626953125,-0.009187898598611355,-0.02157158963382244,0.017310533672571182
1771082007814700000,6.814699951171875,0.0003994738799519837,-0.026897907257080078,0.008788425475358963
1771082007824641500,6.8246416015625,0.005725792143493891,-0.017310533672571182,-0.0007989477599039674
1771082007844524300,6.844524169921875,0.012117373757064342,-0.0034621069207787514,-0.018908429890871048
1771082007854465500,6.854465576171875,0.012117373757064342,-0.008788425475358963,-0.02636527456343174
1771082007874348300,6.874348388671875,0.007856319658458233,-0.006657897960394621,-0.019973693415522575
1771082007894231000,6.89423095703125,-0.011318426579236984,-0.005592633970081806,-0.013582111336290836
1771082007904172300,6.90417236328125,-0.02197106182575226,-0.005592633970081806,-0.011451584286987782
1771082007914113800,6.91411376953125,-0.028362644836306572,-0.005592633970081806,-0.012516847811639309
1771082007924055000,6.924054931640625,-0.0294279083609581,-0.008788425475358963,-0.014647374860942364
1771082007933996300,6.933996337890625,-0.026232117787003517,-0.008788425475358963,-0.012516847811639309
1771082007953879000,6.953879150390625,-0.018775271251797676,0.00612526573240757,-0.003994738683104515
1771082007963820500,6.963820556640625,-0.019840534776449203,0.00612526573240757,-0.009321057237684727
1771082007983703000,6.983703125,-0.03688475489616394,-0.0023968431632965803,-0.03914843872189522
1771082007993644500,6.99364453125,-0.04008054360747337,-0.0023968431632965803,-0.04660528525710106
1771082008013527300,7.01352734375,-0.047537390142679214,0.00612526573240757,-0.035952646285295486
1771082008023468500,7.023468505859375,-0.04647212475538254,0.018908429890871048,-0.024234747514128685
1771082008033410000,7.03341015625,-0.04008054360747337,0.02636527456343174,-0.01784316636621952
1771082008043351300,7.043351318359375,-0.028362644836306572,0.028495801612734795,-0.015712639316916466
1771082008053292500,7.05329248046875,-0.01664474420249462,0.028495801612734795,-0.012516847811639309
1771082008063234000,7.063234130859375,-0.008122635073959827,0.021038956940174103,-0.003994738683104515
1771082008073175300,7.07317529296875,-0.0006657897611148655,0.014647374860942364,0.006657897960394621
1771082008083116800,7.08311669921875,-0.0006657897611148655,0.013582111336290836,0.019441060721874237
1771082008093058000,7.09305810546875,-0.002796316985040903,0.012516847811639309,0.029028434306383133
1771082008102999300,7.102999267578125,-0.0017310534603893757,0.011451584286987782,0.03328948840498924
1771082008112940800,7.11294091796875,0.001464737462811172,0.012516847811639309,0.03435475379228592
1771082008122882000,7.122882080078125,0.0035952648613601923,0.010386320762336254,0.03009369783103466
1771082008132823600,7.132823486328125,0.006791055668145418,0.0007989477599039674,0.023702116683125496
1771082008142765000,7.14276513671875,0.007856319658458233,-0.008788425475358963,0.016245270147919655
1771082008152706300,7.152706298828125,0.007856319658458233,-0.017310533672571182,0.010918952524662018
1771082008162647800,7.162647705078125,0.005725792143493891,-0.016245270147919655,0.007723161485046148
1771082008172589000,7.172589111328125,0.004660528618842363,-0.005592633970081806,0.00985368900001049
1771082008182530600,7.182530517578125,0.0035952648613601923,0.003994738683104515,0.017310533672571182
1771082008192472000,7.19247216796875,0.004660528618842363,0.010386320762336254,0.02263685315847397
1771082008202413300,7.202413330078125,0.005725792143493891,0.010386320762336254,0.020506324246525764
1771082008212354800,7.212354736328125,0.004660528618842363,0.003994738683104515,0.013049479573965073
1771082008222296000,7.222296142578125,0.0003994738799519837,-0.006657897960394621,0.00985368900001049
1771082008232237600,7.232237548828125,-0.005992108024656773,-0.02157158963382244,0.00985368900001049
1771082008242179000,7.242178955078125,-0.013448953628540039,-0.03328948840498924,0.016245270147919655
1771082008252120300,7.252120361328125,-0.018775271251797676,-0.036485280841588974,0.027963170781731606
1771082008262061800,7.262061767578125,-0.015579480677843094,-0.029028434306383133,0.03968106955289841
1771082008272003300,7.27200341796875,-0.005992108024656773,-0.020506324246525764,0.04607265070080757
1771082008281944600,7.281944580078125,0.0035952648613601923,-0.00985368900001049,0.052464235574007034
1771082008291886000,7.291885986328125,0.006791055668145418,-0.0034621069207787514,0.0588558167219162
1771082008301827300,7.301827392578125,0.004660528618842363,-0.006657897960394621,0.07163897901773453
1771082008311768800,7.311768798828125,-0.002796316985040903,-0.0023968431632965803,0.08868319541215897
1771082008321710300,7.32171044921875,-0.012383690103888512,-0.0002663159102667123,0.09081372618675232
1771082008331651600,7.331651611328125,-0.01771000772714615,0.003994738683104515,0.07696529477834702
1771082008341593000,7.341593017578125,-0.002796316985040903,0.03382211923599243,0.05352949723601341
1771082008351534600,7.35153466796875,0.007856319658458233,0.05086633935570717,0.029028434306383133
1771082008361475800,7.361475830078125,0.0035952648613601923,0.035952646285295486,0.010918952524662018
1771082008371417300,7.371417236328125,-0.009187898598611355,0.018908429890871048,0.00985368900001049
1771082008381358600,7.381358642578125,-0.014514217153191566,0.012516847811639309,0.02157158963382244
1771082008391300000,7.391300048828125,-0.013448953628540039,-0.007723161485046148,0.03435475379228592
1771082008401241600,7.40124169921875,-0.013448953628540039,-0.026897907257080078,0.04287686198949814
1771082008411182800,7.411182861328125,-0.018775271251797676,-0.04181159660220146,0.04181159660220146
1771082008421124400,7.421124267578125,-0.02197106182575226,-0.04287686198949814,0.03435475379228592
1771082008431065600,7.431065673828125,-0.01771000772714615,-0.029028434306383133,0.02157158963382244
1771082008441007000,7.441007080078125,-0.003861580742523074,-0.011984216049313545,0.006657897960394621
1771082008450948600,7.450948486328125,0.004660528618842363,-0.007723161485046148,0.0034621069207787514
1771082008460889900,7.460889892578125,0.00892158318310976,-0.020506324246525764,0.010918952524662018
1771082008470831400,7.470831298828125,0.014247900806367397,-0.0354200154542923,0.03009369783103466
1771082008480772900,7.48077294921875,0.01850895583629608,-0.040746334940195084,0.05566002428531647
1771082008490714000,7.490714111328125,0.01850895583629608,-0.03968106955289841,0.07696529477834702
1771082008500655600,7.500655517578125,0.017443692311644554,-0.02263685315847397,0.09294424951076508
1771082008510596900,7.510596923828125,0.014247900806367397,0.003994738683104515,0.10359688848257065
1771082008520538400,7.520538330078125,0.006791055668145418,0.018908429890871048,0.10466215014457703
1771082008530479900,7.53047998046875,0.005725792143493891,0.021038956940174103,0.10040109604597092
1771082008540421000,7.540421142578125,0.01318263728171587,0.024234747514128685,0.09294424951076508
1771082008550362600,7.550362548828125,0.014247900806367397,0.02210422046482563,0.08761793375015259
1771082008560304000,7.56030419921875,0.02277000993490219,0.003994738683104515,0.08335687965154648
1771082008570245400,7.570245361328125,0.029161592945456505,-0.001331579522229731,0.07057371735572815
1771082008580187000,7.580186767578125,0.01957421936094761,0.002929474925622344,0.04287686198949814
1771082008590128000,7.590128173828125,-0.004926844500005245,0.008255792781710625,0.015180006623268127
1771082008600069600,7.600069580078125,-0.027297381311655045,0.008255792781710625,0.0002663159102667123
1771082008610011100,7.61001123046875,-0.035819489508867264,0.010386320762336254,0.0023968431632965803
1771082008619952400,7.619952392578125,-0.03262370079755783,0.011451584286987782,0.00985368900001049
1771082008629894000,7.629893798828125,-0.023036325350403786,0.00612526573240757,0.017310533672571182
1771082008639835100,7.639835205078125,-0.01664474420249462,-0.00985368900001049,0.02263685315847397
1771082008649776600,7.649776611328125,-0.014514217153191566,-0.02157158963382244,0.027963170781731606
1771082008659718100,7.65971826171875,-0.013448953628540039,-0.015180006623268127,0.036485280841588974
1771082008669659400,7.669659423828125,-0.010253162123262882,0.0050600022077560425,0.04394212365150452
1771082008679601000,7.679600830078125,-0.0006657897611148655,0.029561065137386322,0.04713791608810425
1771082008689542400,7.68954248046875,0.005725792143493891,0.04234423115849495,0.040746334940195084
1771082008699483600,7.699483642578125,0.011052110232412815,0.028495801612734795,0.02263685315847397
1771082008709425200,7.709425048828125,0.00892158318310976,-0.007723161485046148,-0.0007989477599039674
1771082008719366400,7.719366455078125,-0.009187898598611355,-0.03755054250359535,-0.010386320762336254
1771082008729308000,7.729307861328125,-0.023036325350403786,-0.05459476262331009,-0.00612526573240757
1771082008739249200,7.739249267578125,-0.03262370079755783,-0.04607265070080757,0.007723161485046148
1771082008749190400,7.7491904296875,-0.03795001655817032,-0.040746334940195084,0.020506324246525764
1771082008769073200,7.7690732421875,-0.018775271251797676,-0.0354200154542923,0.04181159660220146
1771082008779014700,7.7790146484375,-0.0017310534603893757,-0.027963170781731606,0.05459476262331009
1771082008788956000,7.788955810546875,0.009986846707761288,-0.015180006623268127,0.07057371735572815
1771082008798897400,7.7988974609375,0.009986846707761288,-0.001331579522229731,0.08335687965154648
1771082008808838700,7.808838623046875,0.001464737462811172,0.007190529722720385,0.08974846452474594
1771082008818780000,7.81877978515625,-0.002796316985040903,0.013582111336290836,0.09081372618675232
1771082008828721400,7.828721435546875,0.0003994738799519837,0.010386320762336254,0.07696529477834702
1771082008838662700,7.83866259765625,0.00892158318310976,0.0018642114009708166,0.05139897018671036
1771082008848604200,7.848604248046875,0.02277000993490219,0.003994738683104515,0.024767380207777023
1771082008858545400,7.85854541015625,0.030226856470108032,0.012516847811639309,0.00985368900001049
1771082008868486700,7.868486572265625,0.0153131652623415,0.02636527456343174,0.005592633970081806
1771082008878428200,7.87842822265625,0.0035952648613601923,0.019973693415522575,0.006657897960394621
1771082008888369400,7.888369384765625,-0.0017310534603893757,0.02636527456343174,0.0141147430986166
1771082008898311000,7.898310791015625,0.0003994738799519837,0.028495801612734795,0.020506324246525764
1771082008908252200,7.908252197265625,0.006791055668145418,0.012516847811639309,0.013049479573965073
1771082008918193400,7.918193359375,0.014247900806367397,-0.0034621069207787514,0.005592633970081806
1771082008928135000,7.928135009765625,0.007856319658458233,-0.017310533672571182,-0.0018642114009708166
1771082008938076200,7.938076171875,-0.0017310534603893757,-0.03435475379228592,-0.016777902841567993
1771082008948017700,7.948017578125,-0.004926844500005245,-0.03755054250359535,-0.03382211923599243
1771082008957959000,7.957958984375,-0.003861580742523074,-0.032224226742982864,-0.04554001986980438
1771082008977841700,7.977841552734375,-0.002796316985040903,-0.023702116683125496,-0.04767054691910744
1771082008997724400,7.997724365234375,-0.005992108024656773,-0.03009369783103466,-0.016777902841567993
1771082009017607200,8.017607177734375,0.004660528618842363,-0.029028434306383133,0.0141147430986166
1771082009027548400,8.02754833984375,0.004660528618842363,-0.024767380207777023,0.011984216049313545
1771082009047431200,8.04743115234375,0.016378428786993027,-0.020506324246525764,-0.010386320762336254
1771082009057372400,8.057372314453126,0.020639482885599136,-0.019441060721874237,-0.007190529722720385
1771082009077255200,8.077255126953125,0.011052110232412815,-0.015180006623268127,0.026897907257080078
1771082009097138000,8.097137939453125,-0.012383690103888512,-0.03968106955289841,0.02583264373242855
1771082009117020700,8.117020751953126,-0.027297381311655045,-0.06205160543322563,-0.0007989477599039674
1771082009126962000,8.1269619140625,-0.031558435410261154,-0.052464235574007034,-0.009321057237684727
1771082009146844700,8.1468447265625,-0.03688475489616394,-0.013049479573965073,-0.011451584286987782
1771082009166727400,8.1667275390625,-0.03368896245956421,-0.0034621069207787514,0.0023968431632965803
1771082009186610200,8.186610107421876,-0.01664474420249462,0.012516847811639309,0.032224226742982864
1771082009206493000,8.206492919921875,-0.013448953628540039,-0.007723161485046148,0.056725289672613144
1771082009216434400,8.216434326171875,-0.02197106182575226,-0.016245270147919655,0.05033370852470398
1771082009226375700,8.226375732421875,-0.012383690103888512,-0.0141147430986166,0.04607265070080757
1771082009246258700,8.2462587890625,0.01957421936094761,0.04340949282050133,0.048203181475400925
1771082009256200000,8.256199951171874,0.025965800508856773,0.04660528525710106,0.05992107838392258
1771082009276082700,8.276082763671875,0.024900536984205246,0.035952646285295486,0.060986343771219254
1771082009295965700,8.295965576171875,0.01957421936094761,0.044474758207798004,0.03861580789089203
1771082009305907000,8.305906982421876,0.01850895583629608,0.015712639316916466,0.010918952524662018
1771082009325790000,8.3257900390625,0.020639482885599136,0.035952646285295486,-0.008255792781710625
1771082009335731200,8.335731201171875,0.020639482885599136,0.008255792781710625,-0.014647374860942364
1771082009345672700,8.345672607421875,0.02277000993490219,-0.004527370445430279,-0.015712639316916466
1771082009355614000,8.355614013671875,0.025965800508856773,-0.005592633970081806,-0.015712639316916466
1771082009365555500,8.365555419921876,0.03129211813211441,-0.006657897960394621,-0.02636527456343174
1771082009375497000,8.3754970703125,0.03448791056871414,-0.004527370445430279,-0.03275685757398605
1771082009385438200,8.385438232421874,0.03768370300531387,-0.0023968431632965803,-0.03701791167259216
1771082009395379700,8.395379638671875,0.04407528415322304,0.0007989477599039674,-0.03488738462328911
1771082009405321000,8.405321044921875,0.04727107286453247,0.003994738683104515,-0.030626330524683
1771082009415262500,8.415262451171875,0.045140545815229416,0.0050600022077560425,-0.027430538088083267
1771082009425204000,8.425203857421875,0.04407528415322304,0.003994738683104515,-0.019973693415522575
1771082009435145200,8.435145263671876,0.04194475710391998,0.002929474925622344,-0.009321057237684727
1771082009445086700,8.445086669921874,0.04407528415322304,0.002929474925622344,0.0023968431632965803
1771082009455028200,8.4550283203125,0.0504668653011322,0.011451584286987782,0.007723161485046148
1771082009474911000,8.474910888671875,0.045140545815229416,0.016777902841567993,0.0002663159102667123
1771082009484852200,8.484852294921875,0.04194475710391998,0.0050600022077560425,-0.018908429890871048
1771082009494793700,8.494793701171876,0.040879491716623306,0.007190529722720385,-0.04340949282050133
1771082009504735200,8.5047353515625,0.029161592945456505,0.008255792781710625,-0.0636495053768158
1771082009514676500,8.514676513671875,0.01318263728171587,-0.0034621069207787514,-0.0732368752360344
1771082009524618000,8.524617919921875,0.001464737462811172,-0.010918952524662018,-0.0636495053768158
1771082009544500700,8.544500732421875,-0.005992108024656773,-0.0023968431632965803,-0.010386320762336254
1771082009554442200,8.554442138671876,-0.0017310534603893757,-0.010918952524662018,0.013049479573965073
1771082009574325000,8.574324951171874,0.017443692311644554,-0.019441060721874237,0.03009369783103466
1771082009584266500,8.5842666015625,0.025965800508856773,-0.00985368900001049,0.026897907257080078
1771082009604149200,8.604149169921875,0.0270310640335083,0.02210422046482563,0.013049479573965073
1771082009614090500,8.614090576171876,0.02277000993490219,0.02636527456343174,0.00985368900001049
1771082009624032000,8.624031982421876,0.01850895583629608,0.02210422046482563,0.008788425475358963
1771082009633973500,8.633973388671874,0.016378428786993027,0.013582111336290836,0.015180006623268127
1771082009643914800,8.643914794921875,0.0153131652623415,0.0050600022077560425,0.027963170781731606
1771082009653856300,8.653856201171875,0.01318263728171587,-0.010918952524662018,0.036485280841588974
1771082009663797500,8.663797607421875,0.00892158318310976,-0.02583264373242855,0.036485280841588974
1771082009673738800,8.67373876953125,0.006791055668145418,-0.026897907257080078,0.032224226742982864
1771082009683680300,8.68368017578125,0.0035952648613601923,-0.016245270147919655,0.02157158963382244
1771082009693621500,8.69362158203125,-0.0006657897611148655,-0.007723161485046148,0.00985368900001049
1771082009703563000,8.70356298828125,-0.009187898598611355,-0.0034621069207787514,0.0002663159102667123
1771082009713504300,8.713504150390625,-0.01664474420249462,-0.0023968431632965803,-0.003994738683104515
1771082009723445500,8.723445556640625,-0.019840534776449203,-0.008788425475358963,-0.0007989477599039674
1771082009733387000,8.733386962890625,-0.019840534776449203,-0.019441060721874237,0.004527370445430279
1771082009743328300,8.743328369140626,-0.01664474420249462,-0.024767380207777023,0.008788425475358963
1771082009753269800,8.753269775390624,-0.010253162123262882,-0.02157158963382244,0.00985368900001049
1771082009763211000,8.7632109375,-0.0070573715493083,-0.017310533672571182,0.006657897960394621
1771082009773152500,8.773152587890625,-0.004926844500005245,-0.015180006623268127,0.001331579522229731
1771082009783093800,8.78309375,-0.002796316985040903,-0.007723161485046148,0.001331579522229731
1771082009793035000,8.793034912109375,-0.004926844500005245,0.0018642114009708166,0.0023968431632965803
1771082009802976500,8.8029765625,-0.013448953628540039,0.0018642114009708166,0.005592633970081806
1771082009812917800,8.812917724609376,-0.019840534776449203,0.00612526573240757,0.00985368900001049
1771082009822859300,8.822859375,-0.02197106182575226,0.011451584286987782,0.010918952524662018
1771082009832800500,8.832800537109375,-0.01771000772714615,0.002929474925622344,0.0034621069207787514
1771082009842741800,8.84274169921875,-0.012383690103888512,-0.0023968431632965803,-0.009321057237684727
1771082009852683300,8.852683349609375,-0.005992108024656773,0.003994738683104515,-0.02210422046482563
1771082009862624500,8.86262451171875,-0.0017310534603893757,0.015712639316916466,-0.030626330524683
1771082009872566000,8.87256591796875,-0.003861580742523074,0.018908429890871048,-0.03488738462328911
1771082009882507300,8.88250732421875,-0.010253162123262882,0.014647374860942364,-0.03488738462328911
1771082009892448500,8.892448486328124,-0.014514217153191566,0.016777902841567993,-0.025300011038780212
1771082009902390000,8.90239013671875,-0.014514217153191566,0.012516847811639309,-0.013582111336290836
1771082009912331300,8.912331298828125,-0.011318426579236984,-0.0023968431632965803,0.001331579522229731
1771082009922272800,8.922272705078125,-0.009187898598611355,-0.011984216049313545,0.013049479573965073
1771082009932214000,8.932214111328125,-0.008122635073959827,-0.017310533672571182,0.02263685315847397
1771082009942155500,8.942155517578126,-0.004926844500005245,-0.02157158963382244,0.027963170781731606
1771082009952096800,8.9520966796875,0.0035952648613601923,-0.015180006623268127,0.027963170781731606
1771082009962038000,8.9620380859375,0.00892158318310976,-0.004527370445430279,0.02263685315847397
1771082009971979500,8.9719794921875,0.01318263728171587,0.007190529722720385,0.013049479573965073
1771082009981920800,8.981920654296875,0.014247900806367397,0.02210422046482563,0.006657897960394621
1771082009991862300,8.9918623046875,0.01318263728171587,0.03169159218668938,0.006657897960394621
1771082010001803500,9.001803466796876,0.006791055668145418,0.027430538088083267,0.008788425475358963
1771082010011744800,9.011744873046876,0.0025300011038780212,0.018908429890871048,0.00985368900001049
1771082010021686300,9.021686279296874,0.005725792143493891,0.018908429890871048,0.00985368900001049
1771082010041569000,9.041569091796875,0.01957421936094761,0.018908429890871048,-0.002929474925622344
1771082010051510300,9.05151025390625,0.016378428786993027,0.018908429890871048,-0.010386320762336254
1771082010061451800,9.06145166015625,0.009986846707761288,0.029561065137386322,-0.009321057237684727
1771082010071393000,9.07139306640625,0.006791055668145418,0.03169159218668938,0.001331579522229731
1771082010081334300,9.081334228515624,-0.008122635073959827,0.02210422046482563,0.008788425475358963
1771082010091275800,9.09127587890625,-0.02197106182575226,0.002929474925622344,0.00985368900001049
1771082010101217000,9.101217041015625,-0.024101590737700462,-0.020506324246525764,0.008788425475358963
1771082010111158500,9.111158447265625,-0.018775271251797676,-0.027963170781731606,0.006657897960394621
1771082010121099800,9.121099853515625,-0.012383690103888512,-0.03328948840498924,0.006657897960394621
1771082010131041000,9.131041015625,-0.008122635073959827,-0.026897907257080078,0.015180006623268127
1771082010140982500,9.140982421875,-0.008122635073959827,-0.010918952524662018,0.024767380207777023
1771082010150923800,9.150923828125,-0.011318426579236984,0.0050600022077560425,0.024767380207777023
1771082010160865300,9.160865234375,-0.011318426579236984,0.02210422046482563,0.0141147430986166
1771082010170806500,9.170806640625,-0.0070573715493083,0.03808317333459854,0.001331579522229731
1771082010180748000,9.180748046875,-0.004926844500005245,0.04554001986980438,-0.003994738683104515
1771082010190689300,9.190689208984375,-0.004926844500005245,0.04234423115849495,-0.0018642114009708166
1771082010200630500,9.200630615234376,-0.008122635073959827,0.03275685757398605,0.0023968431632965803
1771082010210572000,9.210572021484374,-0.014514217153191566,0.010386320762336254,0.005592633970081806
1771082010220513300,9.22051318359375,-0.024101590737700462,-0.015180006623268127,0.0023968431632965803
1771082010230454800,9.230454833984375,-0.03262370079755783,-0.03328948840498924,-0.00612526573240757
1771082010240396000,9.24039599609375,-0.03262370079755783,-0.0354200154542923,-0.012516847811639309
1771082010250337500,9.250337646484375,-0.027297381311655045,-0.029028434306383133,-0.01784316636621952
1771082010260278800,9.26027880859375,-0.02197106182575226,-0.015180006623268127,-0.024234747514128685
1771082010270220300,9.27022021484375,-0.015579480677843094,0.0007989477599039674,-0.02636527456343174
1771082010280161500,9.28016162109375,-0.004926844500005245,0.009321057237684727,-0.019973693415522575
1771082010290103000,9.29010302734375,0.009986846707761288,0.016777902841567993,-0.003994738683104515
1771082010300044500,9.30004443359375,0.017443692311644554,0.018908429890871048,0.015180006623268127
1771082010309985800,9.30998583984375,0.01318263728171587,0.016777902841567993,0.026897907257080078
1771082010319927300,9.31992724609375,0.0035952648613601923,0.011451584286987782,0.032224226742982864
1771082010339810000,9.33981005859375,-0.003861580742523074,-0.00985368900001049,0.02583264373242855
1771082010349751600,9.34975146484375,0.0025300011038780212,-0.016245270147919655,0.020506324246525764
1771082010359692800,9.35969287109375,0.009986846707761288,-0.0141147430986166,0.019441060721874237
1771082010369634300,9.36963427734375,0.014247900806367397,-0.0023968431632965803,0.02263685315847397
1771082010379575800,9.379575927734376,0.017443692311644554,0.013582111336290836,0.027963170781731606
1771082010389517000,9.38951708984375,0.020639482885599136,0.02210422046482563,0.03755054250359535
1771082010399458600,9.39945849609375,0.02277000993490219,0.023169483989477158,0.05459476262331009
1771082010409400000,9.409400146484375,0.01850895583629608,0.01784316636621952,0.06418213248252869
1771082010419341300,9.41934130859375,0.0035952648613601923,0.007190529722720385,0.0588558167219162
1771082010429282800,9.42928271484375,-0.013448953628540039,-0.005592633970081806,0.0354200154542923
1771082010439224000,9.43922412109375,-0.026232117787003517,-0.015180006623268127,0.001331579522229731
1771082010449165600,9.44916552734375,-0.031558435410261154,-0.017310533672571182,-0.03169159218668938
1771082010459107000,9.459107177734374,-0.031558435410261154,-0.013049479573965073,-0.0540621280670166
1771082010469048300,9.46904833984375,-0.030493171885609627,-0.0002663159102667123,-0.060453712940216064
1771082010478989800,9.47898974609375,-0.028362644836306572,0.015712639316916466,-0.05086633935570717
1771082010488931000,9.48893115234375,-0.024101590737700462,0.02636527456343174,-0.03382211923599243
1771082010498872600,9.49887255859375,-0.015579480677843094,0.029561065137386322,-0.00612526573240757
1771082010508814000,9.50881396484375,-0.004926844500005245,0.024234747514128685,0.020506324246525764
1771082010518755300,9.51875537109375,0.0003994738799519837,0.00612526573240757,0.03861580789089203
1771082010528696800,9.52869677734375,0.0035952648613601923,-0.010918952524662018,0.04607265070080757
1771082010538638300,9.538638427734375,0.0035952648613601923,-0.016245270147919655,0.0492684431374073
1771082010548579600,9.54857958984375,0.001464737462811172,-0.016245270147919655,0.04607265070080757
1771082010568462300,9.56846240234375,-0.005992108024656773,0.003994738683104515,0.023702116683125496
1771082010578403800,9.57840380859375,-0.005992108024656773,0.019973693415522575,0.006657897960394621
1771082010588345300,9.588345458984374,-0.003861580742523074,0.03169159218668938,-0.007190529722720385
1771082010598286600,9.59828662109375,-0.002796316985040903,0.03914843872189522,-0.015712639316916466
1771082010608228000,9.60822802734375,-0.003861580742523074,0.03275685757398605,-0.018908429890871048
1771082010618169300,9.61816943359375,-0.0070573715493083,0.015712639316916466,-0.01784316636621952
1771082010628110800,9.62811083984375,-0.0070573715493083,-0.007723161485046148,-0.009321057237684727
1771082010638052000,9.638052001953126,-0.004926844500005245,-0.02263685315847397,0.0034621069207787514
1771082010657934800,9.657934814453125,-0.004926844500005245,-0.019441060721874237,0.03755054250359535
1771082010667876400,9.66787646484375,-0.002796316985040903,-0.013049479573965073,0.048203181475400925
1771082010687758800,9.6877587890625,0.0035952648613601923,0.007190529722720385,0.03328948840498924
1771082010697700400,9.697700439453126,0.004660528618842363,0.030626330524683,0.02157158963382244
1771082010717583000,9.7175830078125,-0.0017310534603893757,0.024234747514128685,0.001331579522229731
1771082010737465600,9.737465576171875,-0.003861580742523074,0.010386320762336254,0.027963170781731606
1771082010757348400,9.757348388671875,-0.003861580742523074,-0.00985368900001049,0.05352949723601341
1771082010767289900,9.767289794921876,-0.0017310534603893757,-0.008788425475358963,0.052464235574007034
1771082010777231000,9.777231201171874,-0.0017310534603893757,-0.005592633970081806,0.04394212365150452
1771082010787172600,9.787172607421875,-0.002796316985040903,-0.001331579522229731,0.031158961355686188
1771082010807055000,9.80705517578125,-0.023036325350403786,0.002929474925622344,0.010918952524662018
1771082010816996600,9.81699658203125,-0.034754227846860886,0.013582111336290836,0.011984216049313545
1771082010826937900,9.826937744140626,-0.039015281945466995,0.015712639316916466,0.008788425475358963
1771082010836879400,9.83687939453125,-0.035819489508867264,0.007190529722720385,-0.0007989477599039674
1771082010846820600,9.846820556640624,-0.026232117787003517,0.003994738683104515,-0.00612526573240757
1771082010856761900,9.856761962890625,-0.012383690103888512,0.010386320762336254,0.001331579522229731
1771082010866703400,9.866703369140625,-0.003861580742523074,0.027430538088083267,0.0141147430986166
1771082010876644600,9.87664453125,-0.002796316985040903,0.035952646285295486,0.024767380207777023
1771082010896527400,9.89652734375,-0.012383690103888512,0.013582111336290836,0.026897907257080078
1771082010906468900,9.90646875,-0.015579480677843094,-0.0141147430986166,0.005592633970081806
1771082010916410000,9.91641015625,-0.02197106182575226,-0.036485280841588974,-0.02210422046482563
1771082010926351400,9.926351318359375,-0.0294279083609581,-0.03435475379228592,-0.04660528525710106
1771082010946234000,9.946234130859375,-0.02516685426235199,-0.007723161485046148,-0.06258423626422882
1771082010956175600,9.956175537109376,-0.014514217153191566,0.002929474925622344,-0.04980107396841049
1771082010976058000,9.97605810546875,0.011052110232412815,0.00612526573240757,-0.0050600022077560425
1771082010995940900,9.99594091796875,0.005725792143493891,-0.005592633970081806,0.027963170781731606
1771082011005882400,10.00588232421875,-0.002796316985040903,-0.013049479573965073,0.0354200154542923
1771082011025764900,10.025764892578126,-0.002796316985040903,-0.024767380207777023,0.029028434306383133
1771082011045647600,10.045647705078125,0.005725792143493891,-0.019441060721874237,0.007723161485046148
1771082011055589000,10.055589111328125,0.005725792143493891,-0.008788425475358963,0.0002663159102667123
1771082011065530400,10.0655302734375,0.0035952648613601923,0.0018642114009708166,-0.002929474925622344
1771082011075472000,10.075471923828125,-0.0006657897611148655,0.014647374860942364,-0.0018642114009708166
1771082011085413000,10.0854130859375,-0.005992108024656773,0.019973693415522575,0.001331579522229731
1771082011095354400,10.095354248046876,-0.010253162123262882,0.011451584286987782,0.0002663159102667123
1771082011105296000,10.1052958984375,-0.011318426579236984,-0.0002663159102667123,-0.0018642114009708166
1771082011115237000,10.115237060546875,-0.009187898598611355,-0.0034621069207787514,-0.002929474925622344
1771082011125178600,10.1251787109375,-0.0070573715493083,-0.007723161485046148,-0.0018642114009708166
1771082011135120000,10.135119873046875,-0.008122635073959827,-0.005592633970081806,-0.0007989477599039674
1771082011145061000,10.14506103515625,-0.009187898598611355,0.003994738683104515,0.001331579522229731
1771082011155002600,10.155002685546876,-0.012383690103888512,0.013582111336290836,0.007723161485046148
1771082011164944000,10.16494384765625,-0.01664474420249462,0.025300011038780212,0.015180006623268127
1771082011174885400,10.174885498046875,-0.01664474420249462,0.035952646285295486,0.02157158963382244
1771082011184826600,10.18482666015625,-0.008122635073959827,0.04234423115849495,0.02157158963382244
1771082011194768100,10.19476806640625,0.004660528618842363,0.04980107396841049,0.011984216049313545
1771082011204709400,10.20470947265625,0.0153131652623415,0.048735812306404114,0.004527370445430279
1771082011224592100,10.224592041015624,0.017443692311644554,0.02210422046482563,0.0023968431632965803
1771082011244475000,10.244474853515625,-0.0017310534603893757,-0.004527370445430279,0.02157158963382244
1771082011254416100,10.254416015625,-0.010253162123262882,-0.005592633970081806,0.026897907257080078
1771082011274299000,10.274298828125,-0.014514217153191566,-0.017310533672571182,0.02157158963382244
1771082011284240100,10.284240234375,-0.013448953628540039,-0.026897907257080078,0.015180006623268127
1771082011294181600,10.294181640625,-0.010253162123262882,-0.031158961355686188,0.00985368900001049
1771082011314064400,10.314064453125,-0.004926844500005245,-0.0141147430986166,-0.008255792781710625
1771082011324005600,10.324005615234375,0.0003994738799519837,0.0050600022077560425,-0.011451584286987782
1771082011333947000,10.33394677734375,0.006791055668145418,0.024234747514128685,-0.008255792781710625
1771082011343888400,10.343888427734376,0.00892158318310976,0.027430538088083267,-0.0007989477599039674
1771082011353829600,10.35382958984375,0.004660528618842363,0.016777902841567993,0.0034621069207787514
1771082011363771100,10.363771240234374,0.001464737462811172,0.008255792781710625,0.011984216049313545
1771082011383653600,10.383653564453125,0.006791055668145418,-0.016245270147919655,0.017310533672571182
1771082011403536400,10.403536376953125,0.01318263728171587,-0.0023968431632965803,0.019441060721874237
1771082011423419100,10.423419189453124,0.004660528618842363,0.019973693415522575,0.017310533672571182
1771082011433360400,10.4333603515625,0.001464737462811172,0.008255792781710625,0.011984216049313545
1771082011443302000,10.443302001953125,0.0003994738799519837,-0.008788425475358963,0.005592633970081806
1771082011453243100,10.4532431640625,0.0003994738799519837,-0.01837579719722271,0.005592633970081806
1771082011463184600,10.4631845703125,-0.0070573715493083,-0.023702116683125496,0.005592633970081806
1771082011473126000,10.4731259765625,-0.015579480677843094,-0.024767380207777023,0.0023968431632965803
1771082011483067400,10.4830673828125,-0.019840534776449203,-0.016245270147919655,-0.0018642114009708166
1771082011493008600,10.493008544921874,-0.01771000772714615,-0.006657897960394621,-0.0050600022077560425
1771082011502950000,10.502949951171875,-0.013448953628540039,0.002929474925622344,-0.009321057237684727
1771082011512891400,10.512891357421875,-0.008122635073959827,0.013582111336290836,-0.0018642114009708166
1771082011532774100,10.532774169921876,-0.011318426579236984,0.014647374860942364,0.017310533672571182
1771082011542715400,10.54271533203125,-0.018775271251797676,-0.007723161485046148,0.015180006623268127
1771082011552657000,10.552656982421874,-0.02516685426235199,-0.03328948840498924,0.005592633970081806
1771082011572539600,10.57253955078125,-0.039015281945466995,-0.05352949723601341,-0.028495801612734795
1771082011592422700,10.592422607421875,-0.03688475489616394,-0.016245270147919655,-0.040213704109191895
1771082011602364000,10.602364013671876,-0.027297381311655045,0.015712639316916466,-0.030626330524683
1771082011612305400,10.612305419921874,-0.015579480677843094,0.03488738462328911,-0.01784316636621952
1771082011622246700,10.62224658203125,-0.0006657897611148655,0.03382211923599243,-0.0050600022077560425
1771082011632188200,10.632188232421875,0.011052110232412815,0.021038956940174103,0.008788425475358963
1771082011652071000,10.65207080078125,0.028096329420804977,-0.005592633970081806,0.04287686198949814
1771082011662012400,10.662012451171876,0.024900536984205246,-0.015180006623268127,0.052464235574007034
1771082011671954000,10.671953857421874,0.020639482885599136,-0.019441060721874237,0.052464235574007034
1771082011691836700,10.691836669921875,0.01850895583629608,0.0018642114009708166,0.03328948840498924
1771082011711719400,10.711719482421875,0.0270310640335083,0.024234747514128685,0.017310533672571182
1771082011731602200,10.731602294921874,0.030226856470108032,0.014647374860942364,0.005592633970081806
1771082011751485000,10.75148486328125,0.017443692311644554,-0.01837579719722271,-0.011451584286987782
1771082011771368000,10.771367919921875,-0.004926844500005245,-0.0354200154542923,-0.012516847811639309
1771082011791250700,10.791250732421876,-0.01664474420249462,0.0007989477599039674,-0.003994738683104515
1771082011811133400,10.811133544921875,-0.0017310534603893757,0.010386320762336254,-0.011451584286987782
1771082011831016200,10.83101611328125,0.009986846707761288,-0.004527370445430279,-0.014647374860942364
1771082011840957700,10.840957763671875,0.005725792143493891,-0.004527370445430279,-0.002929474925622344
1771082011850899000,10.85089892578125,0.004660528618842363,-0.005592633970081806,0.016245270147919655
1771082011860840400,10.86084033203125,0.006791055668145418,-0.0034621069207787514,0.03968106955289841
1771082011870781700,10.87078173828125,0.012117373757064342,-0.001331579522229731,0.05779055133461952
1771082011890664400,10.89066455078125,0.006791055668145418,-0.011984216049313545,0.04713791608810425
1771082011900605700,10.900605712890625,0.004660528618842363,-0.006657897960394621,0.019441060721874237
1771082011920488400,10.920488525390626,0.006791055668145418,0.01784316636621952,-0.03382211923599243
1771082011940371200,10.94037109375,0.0035952648613601923,0.04554001986980438,-0.056192658841609955
1771082011960254000,10.96025390625,0.004660528618842363,0.02636527456343174,-0.03169159218668938
1771082011970195200,10.9701953125,0.005725792143493891,0.0050600022077560425,-0.0050600022077560425
1771082011980136700,10.98013671875,0.006791055668145418,-0.0141147430986166,0.02157158963382244
1771082011990078000,10.990077880859374,0.00892158318310976,-0.020506324246525764,0.03968106955289841
1771082012009960700,11.009960693359375,0.01318263728171587,-0.017310533672571182,0.03755054250359535
1771082012019902000,11.01990185546875,0.016378428786993027,-0.016245270147919655,0.02263685315847397
1771082012029843500,11.029843505859375,0.01850895583629608,-0.0141147430986166,0.008788425475358963
1771082012049726200,11.049726318359374,0.0025300011038780212,-0.011984216049313545,0.004527370445430279
1771082012059667500,11.05966748046875,-0.0070573715493083,-0.013049479573965073,0.013049479573965073
1771082012069608700,11.069608642578125,-0.010253162123262882,-0.020506324246525764,0.017310533672571182
1771082012079550200,11.07955029296875,-0.002796316985040903,-0.024767380207777023,0.02157158963382244
1771082012089491500,11.089491455078125,0.007856319658458233,-0.024767380207777023,0.020506324246525764
1771082012099433000,11.099432861328125,0.007856319658458233,-0.023702116683125496,0.0141147430986166
1771082012109374200,11.109374267578126,0.001464737462811172,-0.027963170781731606,0.007723161485046148
1771082012119315500,11.1193154296875,-0.009187898598611355,-0.03009369783103466,0.001331579522229731
1771082012129257000,11.129257080078125,-0.01664474420249462,-0.031158961355686188,0.0023968431632965803
1771082012139198200,11.1391982421875,-0.018775271251797676,-0.029028434306383133,0.013049479573965073
1771082012149139700,11.1491396484375,-0.013448953628540039,-0.02583264373242855,0.027963170781731606
1771082012159081000,11.1590810546875,-0.004926844500005245,-0.01837579719722271,0.03968106955289841
1771082012169022200,11.169022216796876,0.005725792143493891,-0.015180006623268127,0.03861580789089203
1771082012178963700,11.178963623046876,0.011052110232412815,-0.015180006623268127,0.02157158963382244
1771082012188905000,11.188905029296874,0.006791055668145418,-0.02157158963382244,-0.007190529722720385
1771082012198846500,11.198846435546875,-0.0017310534603893757,-0.03009369783103466,-0.03275685757398605
1771082012208787700,11.20878759765625,-0.012383690103888512,-0.0354200154542923,-0.04767054691910744
1771082012218729200,11.218729248046875,-0.01664474420249462,-0.03009369783103466,-0.04340949282050133
1771082012228670500,11.22867041015625,-0.015579480677843094,-0.017310533672571182,-0.027430538088083267
1771082012238611700,11.23861181640625,-0.008122635073959827,-0.007723161485046148,-0.00612526573240757
1771082012248553200,11.24855322265625,0.004660528618842363,0.0050600022077560425,0.006657897960394621
1771082012258494500,11.258494384765624,0.020639482885599136,0.015712639316916466,0.013049479573965073
1771082012268436000,11.26843603515625,0.033422645181417465,0.023169483989477158,0.016245270147919655
1771082012278377200,11.278377197265625,0.040879491716623306,0.024234747514128685,0.020506324246525764
1771082012288318500,11.288318359375,0.04407528415322304,0.015712639316916466,0.024767380207777023
1771082012298260000,11.298260009765626,0.04194475710391998,0.0007989477599039674,0.03009369783103466
1771082012308201200,11.308201171875,0.03874896466732025,-0.011984216049313545,0.031158961355686188
1771082012318142700,11.318142822265624,0.0366184376180172,-0.016245270147919655,0.023702116683125496
1771082012328084000,11.328083984375,0.03768370300531387,-0.016245270147919655,0.010918952524662018
1771082012338025500,11.338025390625,0.03874896466732025,-0.013049479573965073,0.0002663159102667123
1771082012347966700,11.347966796875,0.03981423005461693,-0.005592633970081806,-0.0018642114009708166
1771082012357908000,11.357907958984375,0.03981423005461693,-0.0023968431632965803,0.0002663159102667123
1771082012377790700,11.377790771484374,0.03448791056871414,-0.005592633970081806,0.008788425475358963
1771082012387732200,11.387732177734375,0.033422645181417465,-0.006657897960394621,0.008788425475358963
1771082012397673500,11.397673583984375,0.029161592945456505,-0.006657897960394621,0.008788425475358963
1771082012407614700,11.40761474609375,0.02383527345955372,-0.007723161485046148,0.008788425475358963
1771082012417556200,11.41755615234375,0.017443692311644554,-0.006657897960394621,0.00985368900001049
1771082012427497500,11.42749755859375,0.016378428786993027,0.0007989477599039674,0.0141147430986166
1771082012437439000,11.43743896484375,0.020639482885599136,0.008255792781710625,0.01837579719722271
1771082012447380200,11.447380126953124,0.025965800508856773,0.010386320762336254,0.020506324246525764
1771082012457321700,11.45732177734375,0.025965800508856773,0.010386320762336254,0.019441060721874237
1771082012467263000,11.467262939453125,0.021704746410250664,0.015712639316916466,0.016245270147919655
1771082012477204200,11.477204345703125,0.011052110232412815,0.025300011038780212,0.015180006623268127
1771082012487145700,11.487145751953125,0.0025300011038780212,0.025300011038780212,0.010918952524662018
1771082012497087000,11.4970869140625,-0.002796316985040903,0.018908429890871048,0.005592633970081806
1771082012507028500,11.507028564453124,-0.005992108024656773,0.012516847811639309,-0.0007989477599039674
1771082012516969700,11.5169697265625,-0.010253162123262882,0.0018642114009708166,-0.011451584286987782
1771082012526911000,11.526910888671875,-0.013448953628540039,-0.00985368900001049,-0.018908429890871048
1771082012536852500,11.5368525390625,-0.01664474420249462,-0.016245270147919655,-0.018908429890871048
1771082012546793700,11.546793701171875,-0.024101590737700462,-0.011984216049313545,-0.011451584286987782
1771082012556735200,11.5567353515625,-0.0294279083609581,-0.005592633970081806,-0.003994738683104515
1771082012566676500,11.566676513671876,-0.0294279083609581,0.003994738683104515,-0.0050600022077560425
1771082012586559200,11.586559326171875,-0.013448953628540039,0.018908429890871048,-0.024234747514128685
1771082012596500500,11.59650048828125,-0.0070573715493083,0.023169483989477158,-0.03701791167259216
1771082012606442000,11.60644189453125,-0.005992108024656773,0.02636527456343174,-0.04234423115849495
1771082012616383200,11.61638330078125,-0.008122635073959827,0.028495801612734795,-0.03488738462328911
1771082012626324700,11.62632470703125,-0.014514217153191566,0.015712639316916466,-0.02210422046482563
1771082012636266000,11.636265869140624,-0.019840534776449203,-0.0034621069207787514,-0.003994738683104515
1771082012646207200,11.646207275390625,-0.02197106182575226,-0.011984216049313545,0.010918952524662018
1771082012656148700,11.656148681640625,-0.018775271251797676,-0.020506324246525764,0.020506324246525764
1771082012666090000,11.666090087890625,-0.012383690103888512,-0.029028434306383133,0.019441060721874237
1771082012685972700,11.68597265625,0.005725792143493891,-0.008788425475358963,-0.002929474925622344
1771082012705855500,11.70585546875,0.0003994738799519837,0.014647374860942364,-0.014647374860942364
1771082012715796700,11.715796630859375,-0.010253162123262882,0.010386320762336254,-0.01784316636621952
1771082012725738200,11.72573828125,-0.019840534776449203,-0.004527370445430279,-0.021038956940174103
1771082012745621000,11.74562109375,-0.019840534776449203,-0.024767380207777023,-0.015712639316916466
1771082012765503500,11.76550341796875,0.005725792143493891,-0.01837579719722271,0.011984216049313545
1771082012775445000,11.775445068359375,0.01318263728171587,-0.00985368900001049,0.019441060721874237
1771082012785386200,11.78538623046875,0.01318263728171587,-0.007723161485046148,0.010918952524662018
1771082012795327700,11.79532763671875,0.006791055668145418,-0.02157158963382244,-0.009321057237684727
1771082012805269000,11.80526904296875,-0.0006657897611148655,-0.032224226742982864,-0.02636527456343174
1771082012815210200,11.815210205078126,-0.010253162123262882,-0.032224226742982864,-0.03169159218668938
1771082012825151700,11.82515185546875,-0.018775271251797676,-0.024767380207777023,-0.027430538088083267
1771082012835093000,11.835093017578124,-0.018775271251797676,-0.004527370445430279,-0.012516847811639309
1771082012854975700,11.854975830078125,0.0003994738799519837,0.04340949282050133,0.017310533672571182
1771082012874858500,11.8748583984375,0.021704746410250664,0.03275685757398605,0.024767380207777023
1771082012894741200,11.8947412109375,0.025965800508856773,0.011451584286987782,0.03328948840498924
1771082012914624000,11.9146240234375,0.0153131652623415,-0.007723161485046148,0.040746334940195084
1771082012934506500,11.934506591796875,0.005725792143493891,-0.005592633970081806,0.04607265070080757
1771082012944448000,11.944447998046876,0.005725792143493891,-0.008788425475358963,0.03755054250359535
1771082012954389200,11.95438916015625,0.009986846707761288,-0.005592633970081806,0.026897907257080078
1771082012964330800,11.964330810546874,0.017443692311644554,0.0050600022077560425,0.016245270147919655
1771082012974272000,11.97427197265625,0.025965800508856773,0.013582111336290836,0.00985368900001049
1771082012984213500,11.984213623046875,0.028096329420804977,0.010386320762336254,0.008788425475358963
1771082012994154800,11.99415478515625,0.02277000993490219,0.0018642114009708166,0.0141147430986166
1771082013004096000,12.004095947265625,0.00892158318310976,-0.008788425475358963,0.02263685315847397
1771082013014037500,12.01403759765625,-0.008122635073959827,-0.019441060721874237,0.023702116683125496
1771082013033920300,12.033920166015625,-0.0294279083609581,-0.02157158963382244,0.008788425475358963
1771082013053802800,12.053802734375,-0.014514217153191566,0.016777902841567993,-0.008255792781710625
1771082013063744300,12.063744140625,-0.002796316985040903,0.025300011038780212,-0.011451584286987782
1771082013083627000,12.083626953125,0.0035952648613601923,0.01784316636621952,-0.010386320762336254
1771082013093568300,12.093568359375,-0.004926844500005245,0.011451584286987782,-0.00612526573240757
1771082013103509500,12.103509521484375,-0.013448953628540039,0.01784316636621952,-0.0018642114009708166
1771082013113451000,12.113450927734375,-0.02197106182575226,0.02210422046482563,0.0034621069207787514
1771082013133333800,12.133333740234375,-0.014514217153191566,0.03701791167259216,0.0002663159102667123
1771082013153216500,12.153216552734374,0.001464737462811172,0.02636527456343174,-0.013582111336290836
1771082013163157800,12.16315771484375,-0.0006657897611148655,0.019973693415522575,-0.014647374860942364
1771082013173099000,12.17309912109375,-0.004926844500005245,0.008255792781710625,-0.0018642114009708166
1771082013183040500,12.18304052734375,-0.010253162123262882,0.010386320762336254,0.017310533672571182
1771082013192981800,12.192981689453125,-0.011318426579236984,0.013582111336290836,0.032224226742982864
1771082013212864500,12.212864501953124,-0.010253162123262882,-0.007723161485046148,0.01837579719722271
1771082013232747300,12.232747314453125,-0.005992108024656773,0.009321057237684727,-0.012516847811639309
1771082013252630000,12.252630126953125,-0.009187898598611355,0.030626330524683,-0.02210422046482563
1771082013272512800,12.2725126953125,-0.012383690103888512,0.016777902841567993,0.006657897960394621
1771082013282454000,12.2824541015625,-0.013448953628540039,-0.00985368900001049,0.020506324246525764
1771082013302336800,12.302336669921875,-0.01771000772714615,-0.04607265070080757,0.03009369783103466
1771082013322219500,12.322219482421875,-0.024101590737700462,-0.04181159660220146,0.011984216049313545
1771082013342102000,12.34210205078125,-0.03368896245956421,-0.010918952524662018,-0.03169159218668938
1771082013352043500,12.35204345703125,-0.031558435410261154,0.0007989477599039674,-0.04554001986980438
1771082013361984800,12.36198486328125,-0.030493171885609627,0.0007989477599039674,-0.04127896577119827
1771082013371926300,12.37192626953125,-0.030493171885609627,-0.001331579522229731,-0.02210422046482563
1771082013391809000,12.39180908203125,-0.03262370079755783,-0.019441060721874237,0.026897907257080078
1771082013411691500,12.41169140625,-0.035819489508867264,-0.056725289672613144,0.017310533672571182
1771082013431574300,12.43157421875,-0.03688475489616394,-0.05352949723601341,-0.024234747514128685
1771082013451457000,12.45145703125,-0.03368896245956421,0.012516847811639309,-0.03382211923599243
1771082013461398300,12.461398193359376,-0.030493171885609627,0.028495801612734795,-0.030626330524683
1771082013471339800,12.47133984375,-0.02197106182575226,0.02636527456343174,-0.02636527456343174
1771082013481281000,12.481281005859374,-0.009187898598611355,0.024234747514128685,-0.012516847811639309
1771082013491222500,12.491222412109375,0.0003994738799519837,0.021038956940174103,0.005592633970081806
1771082013501163800,12.501163818359375,0.001464737462811172,0.016777902841567993,0.020506324246525764
1771082013511105000,12.51110498046875,-0.0006657897611148655,0.023169483989477158,0.026897907257080078
1771082013521046500,12.521046630859376,0.0003994738799519837,0.029561065137386322,0.023702116683125496
1771082013530987800,12.53098779296875,0.011052110232412815,0.02636527456343174,0.015180006623268127
1771082013540929300,12.54092919921875,0.025965800508856773,0.02210422046482563,0.010918952524662018
1771082013550870500,12.55087060546875,0.033422645181417465,0.019973693415522575,0.016245270147919655
1771082013560812000,12.56081201171875,0.03129211813211441,0.016777902841567993,0.026897907257080078
1771082013570753300,12.570753173828125,0.02383527345955372,0.013582111336290836,0.03861580789089203
1771082013580694500,12.580694580078125,0.01957421936094761,0.011451584286987782,0.04394212365150452
1771082013600577300,12.600577392578124,0.02277000993490219,0.003994738683104515,0.02157158963382244
1771082013610518800,12.610518798828124,0.024900536984205246,0.0050600022077560425,0.007723161485046148
1771082013620460000,12.6204599609375,0.024900536984205246,0.007190529722720385,0.0002663159102667123
1771082013630401300,12.6304013671875,0.01850895583629608,0.0050600022077560425,0.0002663159102667123
1771082013640342800,12.6403427734375,0.009986846707761288,-0.0023968431632965803,0.004527370445430279
1771082013650284000,12.650283935546875,0.0003994738799519837,-0.00985368900001049,0.010918952524662018
1771082013670166800,12.670166748046874,-0.0006657897611148655,-0.005592633970081806,0.020506324246525764
1771082013680108300,12.6801083984375,0.0025300011038780212,-0.0034621069207787514,0.01837579719722271
1771082013690049500,12.690049560546875,0.007856319658458233,-0.004527370445430279,0.015180006623268127
1771082013699990800,12.69999072265625,0.00892158318310976,-0.0023968431632965803,0.010918952524662018
1771082013709932300,12.709932373046875,0.011052110232412815,0.00612526573240757,0.008788425475358963
1771082013719873500,12.71987353515625,0.00892158318310976,0.013582111336290836,0.010918952524662018
1771082013729815000,12.72981494140625,0.004660528618842363,0.01784316636621952,0.007723161485046148
1771082013739756300,12.73975634765625,-0.0017310534603893757,0.012516847811639309,-0.014647374860942364
1771082013749697500,12.749697509765625,-0.0070573715493083,0.0050600022077560425,-0.04340949282050133
1771082013759639000,12.75963916015625,-0.0017310534603893757,0.01784316636621952,-0.05832318589091301
1771082013769580300,12.769580322265625,0.007856319658458233,0.040213704109191895,-0.05725792050361633
1771082013779521800,12.779521728515626,0.00892158318310976,0.040213704109191895,-0.04554001986980438
1771082013789463000,12.789463134765626,0.0003994738799519837,0.025300011038780212,-0.029561065137386322
1771082013799404500,12.799404541015624,-0.009187898598611355,-0.001331579522229731,-0.021038956940174103
1771082013809345800,12.809345703125,-0.014514217153191566,-0.032224226742982864,-0.019973693415522575
1771082013819287000,12.819287109375,-0.013448953628540039,-0.0492684431374073,-0.025300011038780212
1771082013829228500,12.829228515625,-0.012383690103888512,-0.05139897018671036,-0.03701791167259216
1771082013839169800,12.839169677734375,-0.015579480677843094,-0.04607265070080757,-0.05512739345431328
1771082013849111300,12.849111328125,-0.019840534776449203,-0.032224226742982864,-0.07217161357402802
1771082013859052500,12.859052490234374,-0.02090579830110073,-0.02157158963382244,-0.08388951420783997
1771082013868993800,12.868993896484374,-0.02197106182575226,-0.016245270147919655,-0.09028109163045883
1771082013878935300,12.878935302734375,-0.014514217153191566,-0.005592633970081806,-0.08175898343324661
1771082013888876500,12.88887646484375,-0.008122635073959827,-0.0002663159102667123,-0.06258423626422882
1771082013898818000,12.898818115234375,-0.009187898598611355,-0.016245270147919655,-0.04127896577119827
1771082013908759300,12.90875927734375,-0.014514217153191566,-0.032224226742982864,-0.021038956940174103
1771082013918700500,12.918700439453126,-0.02090579830110073,-0.04607265070080757,-0.00612526573240757
1771082013938583300,12.938583251953125,-0.04114580899477005,-0.03009369783103466,0.0023968431632965803
1771082013948524800,12.94852490234375,-0.051798444241285324,-0.013049479573965073,-0.007190529722720385
1771082013958466000,12.958466064453125,-0.05392897129058838,0.003994738683104515,-0.01784316636621952
1771082013968407600,12.968407470703125,-0.04434159770607948,0.021038956940174103,-0.02210422046482563
1771082013978348800,12.978348876953126,-0.028362644836306572,0.030626330524683,-0.01784316636621952
1771082013988290000,12.9882900390625,-0.01664474420249462,0.028495801612734795,-0.003994738683104515
1771082013998231600,12.9982314453125,-0.014514217153191566,0.013582111336290836,0.010918952524662018
1771082014008172800,13.0081728515625,-0.018775271251797676,-0.0002663159102667123,0.027963170781731606
1771082014018114300,13.0181142578125,-0.026232117787003517,-0.008788425475358963,0.040746334940195084
1771082014028055600,13.0280556640625,-0.031558435410261154,-0.013049479573965073,0.04181159660220146
1771082014037996800,13.037996826171875,-0.039015281945466995,-0.01837579719722271,0.02583264373242855
1771082014047938300,13.047938232421876,-0.043276336044073105,-0.015180006623268127,0.0002663159102667123
1771082014057879600,13.057879638671874,-0.04114580899477005,-0.011984216049313545,-0.02636527456343174
1771082014067821000,13.067821044921875,-0.03368896245956421,-0.016245270147919655,-0.04554001986980438
1771082014077762300,13.07776220703125,-0.024101590737700462,-0.013049479573965073,-0.04554001986980438
1771082014087703800,13.087703857421875,-0.013448953628540039,0.0007989477599039674,-0.029561065137386322
1771082014097645000,13.09764501953125,-0.002796316985040903,0.011451584286987782,-0.010386320762336254
1771082014107586300,13.10758642578125,0.0035952648613601923,0.018908429890871048,0.00985368900001049
1771082014117527800,13.11752783203125,0.012117373757064342,0.029561065137386322,0.031158961355686188
1771082014127469000,13.127468994140624,0.020639482885599136,0.040213704109191895,0.05139897018671036
1771082014137410600,13.13741064453125,0.030226856470108032,0.04554001986980438,0.06418213248252869
1771082014147351800,13.147351806640625,0.04301001876592636,0.04767054691910744,0.06524740159511566
1771082014157293000,13.15729296875,0.05792371183633804,0.05299686640501022,0.05779055133461952
1771082014167234600,13.167234619140626,0.07070687413215637,0.05086633935570717,0.04500738903880119
1771082014177175800,13.17717578125,0.07603318989276886,0.044474758207798004,0.031158961355686188
1771082014187117300,13.187117431640624,0.07283740490674973,0.03808317333459854,0.02263685315847397
1771082014197058600,13.19705859375,0.061119500547647476,0.03275685757398605,0.020506324246525764
1771082014207000000,13.207,0.04620581120252609,0.029561065137386322,0.016245270147919655
1771082014216941300,13.21694140625,0.03981423005461693,0.03275685757398605,0.008788425475358963
1771082014226882600,13.226882568359375,0.04194475710391998,0.029561065137386322,0.001331579522229731
1771082014236824000,13.236823974609376,0.049401599913835526,0.023169483989477158,-0.009321057237684727
1771082014246765300,13.246765380859374,0.05579318478703499,0.016777902841567993,-0.015712639316916466
1771082014256706800,13.256706787109374,0.05579318478703499,0.008255792781710625,-0.02210422046482563
1771082014276589300,13.27658935546875,0.03981423005461693,-0.008788425475358963,-0.027430538088083267
1771082014296472000,13.29647216796875,0.024900536984205246,0.0007989477599039674,-0.019973693415522575
1771082014306413600,13.30641357421875,0.025965800508856773,0.013582111336290836,-0.014647374860942364
1771082014316354800,13.316354736328124,0.03129211813211441,0.019973693415522575,-0.012516847811639309
1771082014326296000,13.326296142578125,0.0366184376180172,0.016777902841567993,-0.012516847811639309
1771082014336237600,13.336237548828125,0.040879491716623306,0.014647374860942364,-0.010386320762336254
1771082014346178800,13.3461787109375,0.04194475710391998,0.007190529722720385,0.001331579522229731
1771082014356120300,13.356120361328125,0.03555317223072052,-0.0023968431632965803,0.01837579719722271
1771082014366061600,13.3660615234375,0.02277000993490219,-0.013049479573965073,0.031158961355686188
1771082014385944300,13.3859443359375,-0.003861580742523074,-0.02583264373242855,0.008788425475358963
1771082014395885600,13.395885498046875,-0.008122635073959827,-0.020506324246525764,-0.014647374860942364
1771082014405827000,13.4058271484375,-0.009187898598611355,-0.008788425475358963,-0.03382211923599243
1771082014415768300,13.415768310546875,-0.013448953628540039,0.002929474925622344,-0.044474758207798004
1771082014425709800,13.425709716796876,-0.019840534776449203,0.008255792781710625,-0.04340949282050133
1771082014435651000,13.435651123046876,-0.02197106182575226,0.0050600022077560425,-0.03275685757398605
1771082014445592300,13.44559228515625,-0.024101590737700462,-0.0034621069207787514,-0.02210422046482563
1771082014455533800,13.455533935546875,-0.026232117787003517,-0.013049479573965073,-0.015712639316916466
1771082014465475000,13.46547509765625,-0.028362644836306572,-0.015180006623268127,-0.019973693415522575
1771082014475416600,13.47541650390625,-0.0294279083609581,-0.006657897960394621,-0.029561065137386322
1771082014485357800,13.48535791015625,-0.027297381311655045,0.007190529722720385,-0.03701791167259216
1771082014495299300,13.49529931640625,-0.026232117787003517,0.030626330524683,-0.03914843872189522
1771082014505240600,13.505240478515624,-0.0294279083609581,0.04767054691910744,-0.040213704109191895
1771082014515181800,13.515181884765624,-0.03368896245956421,0.044474758207798004,-0.035952646285295486
1771082014525123300,13.525123291015625,-0.035819489508867264,0.028495801612734795,-0.019973693415522575
1771082014535064600,13.535064697265625,-0.034754227846860886,0.012516847811639309,0.0023968431632965803
1771082014545006000,13.545006103515625,-0.028362644836306572,-0.005592633970081806,0.027963170781731606
1771082014554947300,13.554947265625,-0.02090579830110073,-0.016245270147919655,0.05139897018671036
1771082014564888600,13.564888671875,-0.01664474420249462,-0.015180006623268127,0.06950845569372177
1771082014574830000,13.574830078125,-0.018775271251797676,-0.011984216049313545,0.07376950979232788
1771082014584771300,13.584771240234375,-0.02197106182575226,-0.007723161485046148,0.06418213248252869
1771082014594712800,13.594712890625,-0.019840534776449203,0.0007989477599039674,0.0492684431374073
1771082014604654000,13.604654052734375,-0.015579480677843094,0.008255792781710625,0.03435475379228592
1771082014614595600,13.614595703125,-0.0070573715493083,0.009321057237684727,0.026897907257080078
1771082014624536800,13.624536865234376,-0.0017310534603893757,0.013582111336290836,0.03755054250359535
1771082014634478000,13.63447802734375,-0.002796316985040903,0.01784316636621952,0.05459476262331009
1771082014644419600,13.644419677734374,-0.011318426579236984,0.008255792781710625,0.06524740159511566
1771082014654360800,13.65436083984375,-0.02090579830110073,-0.007723161485046148,0.060986343771219254
1771082014664302300,13.66430224609375,-0.028362644836306572,-0.023702116683125496,0.040746334940195084
1771082014674243600,13.67424365234375,-0.03262370079755783,-0.040746334940195084,0.011984216049313545
1771082014684184800,13.684184814453126,-0.03688475489616394,-0.04394212365150452,-0.013582111336290836
1771082014694126300,13.694126220703126,-0.035819489508867264,-0.019441060721874237,-0.019973693415522575
1771082014704067600,13.704067626953124,-0.030493171885609627,0.007190529722720385,-0.008255792781710625
1771082014714009000,13.714009033203125,-0.023036325350403786,0.02210422046482563,0.00985368900001049
1771082014733891600,13.7338916015625,-0.0017310534603893757,0.027430538088083267,0.040746334940195084
1771082014743833000,13.7438330078125,0.004660528618842363,0.01784316636621952,0.04394212365150452
1771082014753774300,13.7537744140625,0.00892158318310976,0.002929474925622344,0.036485280841588974
1771082014763715800,13.7637158203125,0.01318263728171587,-0.0034621069207787514,0.027963170781731606
1771082014773657000,13.773656982421874,0.017443692311644554,-0.004527370445430279,0.02263685315847397
1771082014783598600,13.7835986328125,0.020639482885599136,-0.007723161485046148,0.019441060721874237
1771082014793539800,13.793539794921875,0.02277000993490219,-0.006657897960394621,0.02263685315847397
1771082014803481000,13.803481201171875,0.0270310640335083,-0.0002663159102667123,0.03009369783103466
1771082014813422600,13.813422607421876,0.03235738351941109,0.0007989477599039674,0.031158961355686188
1771082014823363800,13.82336376953125,0.03448791056871414,0.002929474925622344,0.027963170781731606
1771082014833305300,13.833305419921874,0.03555317223072052,0.011451584286987782,0.020506324246525764
1771082014843246600,13.84324658203125,0.033422645181417465,0.021038956940174103,0.011984216049313545
