time,seconds_elapsed,z,y,x
1771082067133089800,0.02108984375,0,0,0
1771082067202678000,0.090677978515625,-0.10814285278320312,0.019084811210632324,0.07532793283462524
1771082067222561500,0.1105615234375,-0.3256797790527344,-0.12805700302124023,-0.1501745581626892
1771082067232503800,0.12050390625,-0.498870849609375,-0.08743739128112793,-0.1719350963830948
1771082067242446000,0.130446044921875,-0.5524606704711914,0.0325620174407959,-0.07400713115930557
1771082067252388400,0.140388427734375,-0.43821239471435547,0.13683247566223145,0.0379314087331295
1771082067262331000,0.150330810546875,-0.2727193832397461,0.13134074211120605,0.139154851436615
1771082067272273400,0.1602734375,-0.15775394439697266,0.09406304359436035,0.16321024298667908
1771082067282215000,0.17021484375,-0.11365413665771484,0.07153630256652832,0.08392749726772308
1771082067292156000,0.180156005859375,-0.12680912017822266,0.03335893154144287,-0.0009507015347480774
1771082067302097200,0.19009716796875,-0.09015655517578125,0.0009256601333618164,-0.04469180852174759
1771082067312038400,0.200038330078125,0.04171466827392578,-0.006541013717651367,-0.026468751952052116
1771082067321979400,0.2099794921875,0.08075523376464844,-0.002664804458618164,-0.03689585626125336
1771082067331920600,0.219920654296875,0.029463768005371094,0.00879204273223877,-0.04278651252388954
1771082067341861600,0.229861572265625,-0.0008459091186523438,0.043247342109680176,-0.04870302602648735
1771082067351803000,0.239802978515625,-0.01590251922607422,0.045461416244506836,-0.08404356241226196
1771082067361744100,0.249744140625,-0.03724098205566406,0.004076480865478516,-0.11414217203855515
1771082067371685000,0.25968505859375,-0.10627460479736328,-0.02988433837890625,-0.12227083742618561
1771082067381626400,0.26962646484375,-0.07421684265136719,-0.028316140174865723,-0.101520836353302
1771082067391567400,0.2795673828125,-0.04835796356201172,0.0115966796875,-0.03610875457525253
1771082067401508600,0.289508544921875,-0.06759452819824219,0.055985093116760254,0.03219398111104965
1771082067411449900,0.299449951171875,-0.03787803649902344,0.10210692882537842,0.0786447525024414
1771082067421390800,0.309390869140625,0.11566925048828125,0.14045846462249756,0.0737556591629982
1771082067431332000,0.31933203125,0.2852659225463867,0.09422242641448975,0.02756199985742569
1771082067441273000,0.329273193359375,0.3896331787109375,0.005071163177490234,-0.015447140671312809
1771082067451214300,0.33921435546875,0.4356107711791992,-0.07267391681671143,-0.0571000911295414
1771082067461155600,0.349155517578125,0.4040660858154297,-0.11160683631896973,-0.13452230393886566
1771082067481037800,0.369037841796875,0.26078033447265625,-0.07252371311187744,-0.11308466643095016
1771082067490978800,0.378978759765625,0.04477500915527344,-0.0252377986907959,-0.055144693702459335
1771082067500920000,0.388920166015625,-0.06978797912597656,0.022326946258544922,-0.026343457400798798
1771082067510861300,0.398861328125,-0.1860942840576172,0.03350067138671875,-0.05842788890004158
1771082067520802300,0.40880224609375,-0.27414798736572266,0.022168397903442383,-0.09584803879261017
1771082067530743600,0.41874365234375,-0.22748279571533203,-0.03350567817687988,-0.12582312524318695
1771082067540684500,0.4286845703125,-0.16835689544677734,-0.08151745796203613,-0.13112689554691315
1771082067550625800,0.438625732421875,-0.13894939422607422,-0.08070027828216553,-0.09848447889089584
1771082067560567000,0.448567138671875,-0.09635734558105469,-0.0629734992980957,-0.0667746365070343
1771082067570508000,0.458508056640625,-0.02432727813720703,-0.03865253925323486,-0.042784564197063446
1771082067580449300,0.46844921875,-0.02872943878173828,0.0010182857513427734,0.03235108032822609
1771082067600331500,0.48833154296875,-0.0040111541748046875,0.04697620868682861,0.035373225808143616
1771082067610272800,0.498272705078125,0.07089614868164062,-0.039584994316101074,-0.054803699254989624
1771082067620213800,0.5082138671875,0.1162557601928711,-0.1365642547607422,-0.1338285207748413
1771082067630155000,0.518155029296875,0.2102336883544922,-0.16687870025634766,-0.12713831663131714
1771082067640096000,0.528095947265625,0.23470115661621094,-0.11374270915985107,-0.08395503461360931
1771082067650037200,0.538037353515625,0.038336753845214844,-0.051703810691833496,-0.023356184363365173
1771082067659978500,0.547978515625,-0.22247028350830078,0.013571381568908691,0.0448886901140213
1771082067669919500,0.55791943359375,-0.3518991470336914,0.09992468357086182,0.04394666850566864
1771082067679860700,0.56786083984375,-0.35497570037841797,0.1377873420715332,0.007876075804233551
1771082067689801700,0.5778017578125,-0.20333003997802734,0.11391305923461914,0.006606161594390869
1771082067699743000,0.587742919921875,-0.0734853744506836,0.04737210273742676,0.010067112743854523
1771082067709684200,0.597684326171875,0.08227157592773438,0.001399993896484375,0.020751286298036575
1771082067719625200,0.607625244140625,0.22852802276611328,-0.018605828285217285,0.03124340996146202
1771082067729566500,0.61756640625,0.2950172424316406,0.011624693870544434,0.06328363716602325
1771082067739507500,0.627507568359375,0.2548503875732422,0.03455245494842529,0.07343195378780365
1771082067749448700,0.63744873046875,0.22267913818359375,0.022743582725524902,0.029293140396475792
1771082067769331000,0.6573310546875,0.05244731903076172,-0.07240509986877441,-0.07594599574804306
1771082067779272200,0.667272216796875,0.02111339569091797,-0.05308973789215088,-0.07539872825145721
1771082067789213200,0.677213134765625,-0.06630706787109375,-0.017018675804138184,-0.04979531839489937
1771082067799154400,0.687154541015625,-0.1617431640625,0.018751859664916992,-0.03429803624749184
1771082067809095700,0.697095703125,-0.1662139892578125,0.03313887119293213,-0.05395978316664696
1771082067819036700,0.70703662109375,-0.09531974792480469,0.04277694225311279,-0.06567306071519852
1771082067828978000,0.71697802734375,-0.06098365783691406,0.010175585746765137,-0.10165077447891235
1771082067838919000,0.7269189453125,-0.0013990402221679688,-0.07563531398773193,-0.1255510300397873
1771082067848860200,0.736860107421875,0.033652305603027344,-0.11293661594390869,-0.11374594271183014
1771082067858801400,0.746801513671875,0.03756904602050781,-0.060457468032836914,-0.11868679523468018
1771082067868742400,0.756742431640625,0.04379081726074219,0.009879350662231445,-0.041918158531188965
1771082067878683600,0.76668359375,0.09701061248779297,0.07423889636993408,0.061117835342884064
1771082067888624600,0.776624755859375,0.1446208953857422,0.09996318817138672,0.07170400768518448
1771082067898566000,0.78656591796875,0.14902973175048828,0.09250438213348389,0.045967213809490204
1771082067908507100,0.796507080078125,0.16512489318847656,0.019352316856384277,-0.029643535614013672
1771082067918448000,0.8064482421875,0.15270709991455078,-0.01726698875427246,-0.06508283317089081
1771082067928389400,0.816389404296875,0.11936473846435547,-0.039451003074645996,-0.07389017939567566
1771082067938330400,0.826330322265625,0.12432193756103516,-0.042832374572753906,-0.1086224913597107
1771082067948271600,0.836271728515625,0.13173961639404297,-0.05893146991729736,-0.10274600982666016
1771082067958212900,0.846212890625,0.07802486419677734,-0.03584325313568115,-0.07158198952674866
1771082067968153900,0.85615380859375,0.01597118377685547,-0.007079124450683594,-0.060727961361408234
1771082067978095000,0.86609521484375,-0.030890464782714844,0.013942480087280273,-0.060372427105903625
1771082067988036000,0.8760361328125,-0.0628824234008789,0.020688295364379883,-0.06257743388414383
1771082067997977300,0.885977294921875,-0.08976173400878906,0.013895988464355469,-0.05012023448944092
1771082068007918600,0.895918701171875,-0.10456466674804688,-0.03436005115509033,-0.07206690311431885
1771082068017859600,0.905859619140625,-0.19686412811279297,-0.05561816692352295,-0.12139397859573364
1771082068027800800,0.91580078125,-0.2735719680786133,-0.00794994831085205,-0.07101888954639435
1771082068037741800,0.925741943359375,-0.17015457153320312,0.0745396614074707,0.02940809354186058
1771082068047683000,0.93568310546875,-0.03317070007324219,0.10632097721099854,0.07513946294784546
1771082068057624300,0.945624267578125,0.0850362777709961,0.03879880905151367,0.08785494416952133
1771082068067565300,0.9555654296875,0.1259298324584961,-0.02749454975128174,0.0669722706079483
1771082068077506600,0.965506591796875,0.17080402374267578,-0.05471360683441162,-0.012721173465251923
1771082068087447600,0.975447509765625,0.200836181640625,-0.10747730731964111,-0.05343145132064819
1771082068097388800,0.985388916015625,0.13635635375976562,-0.12484979629516602,-0.06835278123617172
1771082068107330000,0.995330078125,0.02605438232421875,-0.09114062786102295,-0.045349981635808945
1771082068117271000,1.00527099609375,-0.0987691879272461,-0.023378968238830566,-0.02464842051267624
1771082068127212300,1.01521240234375,-0.16736316680908203,0.03138458728790283,0.016128215938806534
1771082068137153300,1.0251533203125,-0.07012081146240234,0.04571712017059326,0.06104191392660141
1771082068147094500,1.035094482421875,-0.012333869934082031,0.027752995491027832,0.07718811184167862
1771082068157035800,1.045035888671875,0.046555519104003906,-0.030690312385559082,0.043524760752916336
1771082068166976800,1.054976806640625,0.09714889526367188,-0.07499110698699951,-0.001163247972726822
1771082068176918000,1.06491796875,0.15152549743652344,-0.0874490737915039,-0.0359211266040802
1771082068186859000,1.07485888671875,0.16509342193603516,-0.08852779865264893,-0.06179341301321983
1771082068196800300,1.08480029296875,0.11986351013183594,-0.08873450756072998,-0.0588381253182888
1771082068206741500,1.094741455078125,0.06626510620117188,-0.09053921699523926,-0.06885891407728195
1771082068216682500,1.1046826171875,0.04210186004638672,-0.07979142665863037,-0.06157168745994568
1771082068226623700,1.114623779296875,-0.009713172912597656,-0.03736555576324463,-0.006440706551074982
1771082068236565000,1.12456494140625,-0.044200897216796875,-0.004965543746948242,0.06664931029081345
1771082068246506200,1.13450634765625,-0.1417837142944336,0.025142550468444824,0.10681687295436859
1771082068256447200,1.144447265625,-0.24978923797607422,0.06802654266357422,0.14492911100387573
1771082068266388500,1.154388427734375,-0.3069305419921875,0.07924187183380127,0.1284635365009308
1771082068276329700,1.164329833984375,-0.2151632308959961,0.061568260192871094,0.09017243981361389
1771082068286271000,1.17427099609375,-0.045037269592285156,0.03557181358337402,0.04215967655181885
1771082068296212200,1.184212158203125,0.14824390411376953,-0.014032959938049316,0.004082918167114258
1771082068306153200,1.1941533203125,0.251556396484375,-0.09531521797180176,-0.03742583096027374
1771082068316094500,1.204094482421875,0.18411540985107422,-0.14242959022521973,-0.06775817275047302
1771082068326035700,1.21403564453125,-0.02076435089111328,-0.11758065223693848,-0.09509918838739395
1771082068335977000,1.22397705078125,-0.23157691955566406,-0.03940296173095703,-0.10186408460140228
1771082068345918200,1.233918212890625,-0.3660402297973633,0.012271642684936523,-0.06823071092367172
1771082068355859200,1.243859130859375,-0.40199947357177734,0.05967581272125244,0.013942603021860123
1771082068365800400,1.253800537109375,-0.26346588134765625,0.12908101081848145,0.10787054896354675
1771082068375741700,1.26374169921875,0.032660484313964844,0.17243778705596924,0.14928485453128815
1771082068385683000,1.273682861328125,0.25551605224609375,0.12601351737976074,0.15138427913188934
1771082068395624200,1.283624267578125,0.3192176818847656,0.028969645500183105,0.11486625671386719
1771082068405565200,1.293565185546875,0.29932308197021484,-0.046823978424072266,0.03559793531894684
1771082068415506400,1.30350634765625,0.28670406341552734,-0.057089924812316895,-0.04870498925447464
1771082068425447700,1.31344775390625,0.22484683990478516,-0.04589581489562988,-0.10876636207103729
1771082068435389000,1.323388916015625,0.20180225372314453,-0.05432283878326416,-0.12118992209434509
1771082068445330200,1.333330078125,0.2571687698364258,-0.0785362720489502,-0.13010922074317932
1771082068455271200,1.343271240234375,0.24383926391601562,-0.10034358501434326,-0.1212320402264595
1771082068465212400,1.35321240234375,0.13939380645751953,-0.07024562358856201,-0.09029116481542587
1771082068475153700,1.363153564453125,0.01583099365234375,-0.03539133071899414,-0.06379668414592743
1771082068485095000,1.373094970703125,-0.1433277130126953,-0.017697453498840332,-0.03669070452451706
1771082068495036200,1.3830361328125,-0.17298412322998047,0.020038843154907227,0.008198142051696777
1771082068504977200,1.39297705078125,-0.1272134780883789,0.04757881164550781,0.05154234543442726
1771082068514918400,1.40291845703125,-0.13200950622558594,0.04134798049926758,0.08261404931545258
1771082068524859600,1.412859619140625,-0.1111593246459961,0.044087767601013184,0.1077369749546051
1771082068534801000,1.42280078125,-0.07439994812011719,0.03386127948760986,0.055819034576416016
1771082068544742100,1.4327421875,-0.01702404022216797,0.007128357887268066,0.002387329936027527
1771082068554683100,1.44268310546875,-0.009917259216308594,-0.02221202850341797,-0.003967665135860443
1771082068564624400,1.452624267578125,-0.012186050415039062,-0.009583234786987305,0.00009332597255706787
1771082068574565400,1.4625654296875,0.011582374572753906,-0.02601146697998047,-0.025550462305545807
1771082068584506600,1.472506591796875,0.04920482635498047,-0.04286396503448486,-0.08478839695453644
1771082068594448000,1.48244775390625,0.11686325073242188,-0.10211622714996338,-0.12900789082050323
1771082068604388900,1.492388916015625,0.12222957611083984,-0.1464635133743286,-0.1359851062297821
1771082068614330000,1.502330078125,0.052196502685546875,-0.13367784023284912,-0.09969601780176163
1771082068624271000,1.51227099609375,0.01862812042236328,-0.07157003879547119,-0.07098805904388428
1771082068634212400,1.52221240234375,-0.012048721313476562,-0.017461061477661133,-0.0524945929646492
1771082068644153600,1.532153564453125,-0.0068817138671875,-0.011439085006713867,-0.050970546901226044
1771082068654094600,1.542094482421875,0.012414932250976562,-0.010725855827331543,-0.033491723239421844
1771082068673976800,1.561976806640625,0.007236480712890625,-0.023132681846618652,-0.02175728976726532
1771082068683918000,1.57191796875,-0.10764122009277344,-0.023520469665527344,-0.03234117478132248
1771082068693859300,1.581859375,-0.15252685546875,-0.008775830268859863,-0.02461402863264084
1771082068703800300,1.59180029296875,-0.1403951644897461,0.030464768409729004,-0.01763422042131424
1771082068713741600,1.601741455078125,-0.10515308380126953,0.03258335590362549,0.0031935274600982666
1771082068723682600,1.6116826171875,0.032898902893066406,0.012124300003051758,0.03302967548370361
1771082068733623800,1.621623779296875,0.1569232940673828,-0.0034830570220947266,0.025436915457248688
1771082068743565000,1.63156494140625,0.22728443145751953,-0.019826412200927734,0.0069556161761283875
1771082068753506000,1.641506103515625,0.24495983123779297,-0.039748191833496094,-0.0020429641008377075
1771082068763447300,1.651447265625,0.2649574279785156,-0.058383941650390625,-0.002074003219604492
1771082068773388300,1.66138818359375,0.26129817962646484,-0.061334967613220215,-0.03651386499404907
1771082068783329500,1.67132958984375,0.13306903839111328,-0.06494629383087158,-0.026753775775432587
1771082068793270800,1.681270751953125,-0.04951763153076172,-0.026123523712158203,-0.00023296475410461426
1771082068813153000,1.701153076171875,-0.2236194610595703,-0.0012826919555664062,0.012634262442588806
1771082068833035300,1.72103515625,-0.09218311309814453,0.019806385040283203,0.06583012640476227
1771082068842976500,1.7309765625,-0.008426666259765625,0.041640400886535645,0.07485256344079971
1771082068852917500,1.74091748046875,0.10460948944091797,0.008570075035095215,0.061990220099687576
1771082068862858800,1.750858642578125,0.18541336059570312,-0.04643213748931885,0.04778384044766426
1771082068872799700,1.7607998046875,0.13099956512451172,-0.0856395959854126,0.011732891201972961
1771082068882741000,1.770740966796875,-0.011739730834960938,-0.08772802352905273,-0.019165754318237305
1771082068892682200,1.78068212890625,-0.055469512939453125,-0.05978131294250488,-0.0060332342982292175
1771082068902623200,1.790623291015625,-0.0866079330444336,-0.018677115440368652,0.06272588670253754
1771082068912564500,1.800564453125,-0.11725044250488281,0.047746896743774414,0.15339873731136322
1771082068922505500,1.81050537109375,-0.10986804962158203,0.06914830207824707,0.16025209426879883
1771082068932446700,1.82044677734375,-0.07448577880859375,0.0014404058456420898,0.09011425822973251
1771082068942388000,1.830387939453125,-0.0845499038696289,-0.07150208950042725,-0.022686362266540527
1771082068952329000,1.840328857421875,-0.07102012634277344,-0.12615692615509033,-0.10295727849006653
1771082068962270200,1.850270263671875,-0.04358863830566406,-0.13047313690185547,-0.09032652527093887
1771082068972211200,1.860211181640625,-0.0801839828491211,-0.10882961750030518,-0.04542124271392822
1771082068992093700,1.88009375,-0.17769241333007812,0.010527729988098145,0.01360590010881424
1771082069002034700,1.89003466796875,-0.24281024932861328,0.04700922966003418,0.022558383643627167
1771082069011976000,1.899975830078125,-0.2387228012084961,0.050626397132873535,0.027510076761245728
1771082069021917000,1.9099169921875,-0.1923980712890625,0.04507136344909668,0.01707608997821808
1771082069031858200,1.919858154296875,-0.13282394409179688,0.04717528820037842,0.027326151728630066
1771082069041799400,1.92979931640625,-0.02261066436767578,0.019438505172729492,0.017872661352157593
1771082069051740400,1.939740478515625,0.12807273864746094,-0.009792447090148926,-0.00964086502790451
1771082069061681700,1.949681640625,0.16790485382080078,-0.026468276977539062,-0.03985115885734558
1771082069071622700,1.95962255859375,0.23763179779052734,-0.05434119701385498,-0.08274737745523453
1771082069081564000,1.96956396484375,0.3557271957397461,-0.09627854824066162,-0.10717106610536575
1771082069091505200,1.979505126953125,0.4037904739379883,-0.10320603847503662,-0.09904192388057709
1771082069101446100,1.989446044921875,0.3995695114135742,-0.08797955513000488,-0.087051160633564
1771082069111387400,1.999387451171875,0.327545166015625,-0.0750114917755127,-0.10007277131080627
1771082069121328400,2.009328369140625,0.14885234832763672,-0.057402849197387695,-0.10375502705574036
1771082069131269600,2.01926953125,-0.04068946838378906,-0.06288158893585205,-0.12307891249656677
1771082069141211000,2.0292109375,-0.2223043441772461,-0.0639641284942627,-0.11816180497407913
1771082069151151900,2.03915185546875,-0.32341670989990234,-0.016949892044067383,-0.07310525327920914
1771082069161093000,2.049093017578125,-0.29613685607910156,0.05727565288543701,0.0122208371758461
1771082069171034000,2.0590341796875,-0.18257617950439453,0.1180429458618164,0.0983787328004837
1771082069180975400,2.068975341796875,-0.12769126892089844,0.115744948387146,0.14465096592903137
1771082069190916600,2.07891650390625,-0.02687835693359375,0.07477331161499023,0.10439693182706833
1771082069200857600,2.088857666015625,0.05804252624511719,0.02321922779083252,0.01670847088098526
1771082069210798800,2.098798828125,0.1063232421875,-0.02552008628845215,-0.056849390268325806
1771082069220740000,2.108739990234375,0.06688594818115234,-0.07444953918457031,-0.09171071648597717
1771082069240622300,2.128622314453125,0.0777130126953125,-0.017378807067871094,-0.03138343244791031
1771082069250563300,2.138563232421875,0.1496725082397461,0.019153714179992676,0.057712264358997345
1771082069260504600,2.148504638671875,0.10750675201416016,0.024179577827453613,0.07908276468515396
1771082069270445800,2.15844580078125,0.047226905822753906,0.01500391960144043,0.059156082570552826
1771082069280386800,2.16838671875,0.058548927307128906,-0.012646317481994629,-0.018478065729141235
1771082069290328000,2.178328125,0.046227455139160156,-0.06848812103271484,-0.09190404415130615
1771082069300269000,2.18826904296875,-0.005740165710449219,-0.0748680830001831,-0.12966853380203247
1771082069310210300,2.198210205078125,0.021042823791503906,-0.06341552734375,-0.10539281368255615
1771082069320151600,2.208151611328125,0.02642822265625,-0.027559280395507812,-0.02208636701107025
1771082069330092500,2.218092529296875,-0.027019500732421875,0.0023975372314453125,0.026252396404743195
1771082069340033800,2.22803369140625,-0.06086921691894531,0.004309654235839844,0.043978504836559296
1771082069349974800,2.237974853515625,-0.09437847137451172,0.005036711692810059,0.02252431958913803
1771082069369857300,2.257857177734375,-0.05944538116455078,-0.0032731294631958008,0.018562868237495422
1771082069389739500,2.277739501953125,0.13635826110839844,-0.006500720977783203,0.025410272181034088
1771082069409621800,2.297621826171875,0.11932945251464844,-0.06287109851837158,-0.022260203957557678
1771082069419563000,2.30756298828125,0.06427955627441406,-0.08605062961578369,-0.0716559886932373
1771082069439445200,2.3274453125,-0.06387996673583984,-0.07334446907043457,-0.05352094769477844
1771082069459327500,2.347327392578125,-0.07063579559326172,-0.046930551528930664,0.0018724054098129272
1771082069479209700,2.367209716796875,-0.025508880615234375,0.002420663833618164,0.06315546482801437
1771082069489151000,2.37715087890625,-0.00118255615234375,0.012439489364624023,0.06748102605342865
1771082069499092000,2.387092041015625,-0.050116539001464844,-0.018419742584228516,0.03311183303594589
1771082069509033200,2.397033203125,-0.029895782470703125,-0.06564080715179443,-0.027836322784423828
1771082069528915500,2.41691552734375,0.009387016296386719,-0.09921181201934814,-0.07627229392528534
1771082069538856700,2.426856689453125,-0.011514663696289062,-0.1161651611328125,-0.04857896268367767
1771082069548797700,2.436797607421875,-0.1169443130493164,-0.07564342021942139,0.015439115464687347
1771082069568680200,2.45668017578125,-0.16378498077392578,0.029873132705688477,0.08619838953018188
1771082069578621200,2.46662109375,-0.1562032699584961,0.026201248168945312,0.06883472204208374
1771082069588562400,2.4765625,-0.05218791961669922,0.0011125802993774414,0.05442310869693756
1771082069598503400,2.48650341796875,0.0666952133178711,-0.05475640296936035,0.0047211796045303345
1771082069618386000,2.506385986328125,-0.06878280639648438,-0.11710679531097412,-0.058883748948574066
1771082069638268200,2.52626806640625,-0.12833881378173828,0.064491868019104,-0.005436412990093231
1771082069658150400,2.546150390625,-0.042580604553222656,0.03277575969696045,0.002092704176902771
1771082069668091600,2.556091552734375,0.049574851989746094,0.017331480979919434,-0.013910651206970215
1771082069687974000,2.575973876953125,0.247528076171875,-0.03514277935028076,-0.06146201491355896
1771082069707856100,2.595856201171875,0.4510211944580078,-0.09827733039855957,-0.09951425343751907
1771082069727738400,2.61573828125,0.31220149993896484,-0.0647423267364502,-0.07891526073217392
1771082069737679600,2.6256796875,0.14091110229492188,-0.02876412868499756,-0.06881359219551086
1771082069757561900,2.645561767578125,-0.17424678802490234,-0.03016507625579834,-0.13392825424671173
1771082069777444400,2.6654443359375,-0.14185619354248047,-0.034432291984558105,-0.056811586022377014
1771082069797326600,2.68532666015625,-0.2299976348876953,0.01833820343017578,0.07232454419136047
1771082069817209000,2.705208984375,-0.3104095458984375,0.08095777034759521,0.09216602146625519
1771082069837091600,2.725091552734375,-0.20216655731201172,0.06893336772918701,0.09711148589849472
1771082069856973800,2.744973876953125,0.005947113037109375,0.0015004873275756836,0.0854274332523346
1771082069866915000,2.7549150390625,0.07343769073486328,-0.03528642654418945,0.05004462972283363
1771082069886797600,2.774797607421875,0.0838479995727539,-0.03173494338989258,-0.004097990691661835
1771082069906679800,2.7946796875,0.22715187072753906,-0.03250396251678467,-0.0068950355052948
1771082069926562300,2.814562255859375,0.3524589538574219,-0.049697279930114746,-0.0349041223526001
1771082069946444500,2.834444580078125,0.091094970703125,-0.022281527519226074,0.00702589750289917
1771082069966327000,2.8543271484375,-0.19825363159179688,0.05419433116912842,0.012175746262073517
1771082069976268300,2.864268310546875,-0.23913097381591797,0.06704986095428467,0.0059568434953689575
1771082069986209500,2.87420947265625,-0.2137908935546875,0.07677984237670898,0.04324101656675339
1771082069996150500,2.884150634765625,-0.0055675506591796875,0.06440389156341553,0.07051192224025726
1771082070006091800,2.894091796875,0.13076305389404297,0.029490351676940918,0.06161358207464218
1771082070016033000,2.904032958984375,0.16597270965576172,0.011542201042175293,0.05186574533581734
1771082070025974300,2.913974365234375,0.20537471771240234,-0.018175959587097168,0.007883280515670776
1771082070035915500,2.92391552734375,0.20433330535888672,-0.05555832386016846,-0.027326710522174835
1771082070045856500,2.9338564453125,0.1447458267211914,-0.07488358020782471,-0.04281892627477646
1771082070055797800,2.9437978515625,0.0510406494140625,-0.05721926689147949,-0.0514708012342453
1771082070065738800,2.95373876953125,-0.0386199951171875,-0.031133174896240234,-0.02161295711994171
1771082070075680000,2.963679931640625,-0.011426925659179688,0.00383603572845459,0.03145056962966919
1771082070095562200,2.983562255859375,0.10645103454589844,0.006006360054016113,0.12022431939840317
1771082070115444500,3.003444580078125,-0.036101341247558594,-0.045018672943115234,0.06813718378543854
1771082070125385700,3.0133857421875,-0.1926727294921875,-0.03264284133911133,0.02888128161430359
1771082070135327000,3.023326904296875,-0.2763023376464844,-0.02613973617553711,-0.012794427573680878
1771082070145268000,3.03326806640625,-0.2528839111328125,-0.0490574836730957,-0.0508248507976532
1771082070155209200,3.043209228515625,-0.18993282318115234,-0.0947420597076416,-0.040558457374572754
1771082070175091500,3.063091552734375,0.042778968811035156,-0.05302751064300537,0.06657460331916809
1771082070194973700,3.0829736328125,0.13818740844726562,-0.08317124843597412,0.043868400156497955
1771082070204915000,3.0929150390625,0.0863790512084961,-0.13309192657470703,0.006484881043434143
1771082070224797200,3.112797119140625,0.043915748596191406,-0.11133313179016113,-0.031142741441726685
1771082070244679400,3.132679443359375,-0.19392967224121094,-0.1008448600769043,-0.03896121680736542
1771082070254620700,3.14262060546875,-0.29094982147216797,-0.09927105903625488,-0.07768907397985458
1771082070264561700,3.152561767578125,-0.40534210205078125,-0.07348895072937012,-0.05805373936891556
1771082070274503000,3.1625029296875,-0.5017766952514648,0.007999777793884277,0.039926476776599884
1771082070284444200,3.172444091796875,-0.46544456481933594,0.11250746250152588,0.11597802489995956
1771082070294385200,3.18238525390625,-0.2750434875488281,0.14803242683410645,0.14806364476680756
1771082070304326400,3.192326416015625,-0.0035495758056640625,0.10530900955200195,0.15179181098937988
1771082070314267600,3.202267578125,0.2844820022583008,0.04045581817626953,0.1310146600008011
1771082070324208600,3.212208740234375,0.4761476516723633,-0.019692420959472656,0.0798078328371048
1771082070334150000,3.22214990234375,0.5167264938354492,-0.06904804706573486,0.012446485459804535
1771082070344091000,3.2320908203125,0.5170478820800781,-0.10789716243743896,-0.07179469615221024
1771082070354032000,3.2420322265625,0.4589853286743164,-0.13897883892059326,-0.13494843244552612
1771082070363973400,3.251973388671875,0.30576324462890625,-0.11965608596801758,-0.14698036015033722
1771082070373914400,3.261914306640625,0.152984619140625,-0.07125866413116455,-0.1311245858669281
1771082070393796600,3.281796630859375,-0.032501220703125,0.014006733894348145,-0.0004374384880065918
1771082070403737900,3.29173779296875,-0.12049484252929688,0.07515215873718262,0.057402029633522034
1771082070413679000,3.30167919921875,-0.15769004821777344,0.11695122718811035,0.11342377215623856
1771082070433561300,3.321561279296875,-0.20559215545654297,0.08362770080566406,0.13531863689422607
1771082070453443600,3.341443603515625,-0.2796049118041992,0.04514002799987793,0.05909520760178566
1771082070463384800,3.351384765625,-0.20440959930419922,0.03534889221191406,0.027672480791807175
1771082070473325800,3.361325927734375,-0.13542556762695312,0.001016378402709961,-0.0055014267563819885
1771082070493208000,3.3812080078125,-0.036251068115234375,-0.029407024383544922,0.0008385777473449707
1771082070513090600,3.401090576171875,0.04312324523925781,0.013025522232055664,0.05160081759095192
1771082070532972800,3.420972900390625,0.1400156021118164,0.0349041223526001,0.026286914944648743
1771082070542913800,3.430913818359375,0.20134449005126953,-0.0015065670013427734,-0.02106238156557083
1771082070562796300,3.45079638671875,0.13909912109375,-0.07451808452606201,-0.15240983664989471
1771082070572737300,3.4607373046875,0.08291339874267578,-0.09342944622039795,-0.18848112225532532
1771082070582678500,3.470678466796875,-0.03128242492675781,-0.0903463363647461,-0.21291154623031616
1771082070602560800,3.490560791015625,-0.19042110443115234,0.026699542999267578,-0.11221509426832199
1771082070612502000,3.500501953125,-0.07184219360351562,0.08476912975311279,-0.057431817054748535
1771082070622443000,3.510443115234375,0.0142669677734375,0.09183800220489502,-0.0052487850189208984
1771082070632384300,3.52038427734375,0.10129451751708984,0.0705423355102539,0.0617942251265049
1771082070642325200,3.5303251953125,0.24801063537597656,0.04058635234832764,0.07959757000207901
1771082070652266500,3.5402666015625,0.32158660888671875,0.03271746635437012,0.08825962245464325
1771082070662207700,3.550207763671875,0.3538627624511719,0.03705191612243652,0.11327663064002991
1771082070672148700,3.560148681640625,0.4728260040283203,0.010211944580078125,0.09767630696296692
1771082070682090000,3.570090087890625,0.4512462615966797,-0.029547929763793945,0.07984523475170135
1771082070692031000,3.580031005859375,0.33392906188964844,-0.05180835723876953,0.08264702558517456
1771082070711913500,3.59991357421875,-0.1374969482421875,-0.022512197494506836,0.06635082513093948
1771082070721854500,3.6098544921875,-0.3739500045776367,0.0020568370819091797,0.06872362643480301
1771082070731795700,3.619795654296875,-0.5408449172973633,0.006434202194213867,0.05994558334350586
1771082070741736700,3.62973681640625,-0.5900583267211914,0.029322147369384766,0.06768042594194412
1771082070751678000,3.639677978515625,-0.5095348358154297,0.03559160232543945,0.07068993151187897
1771082070761619200,3.649619140625,-0.3108196258544922,-0.009899616241455078,0.0730237066745758
1771082070771560200,3.659560302734375,-0.12051010131835938,-0.09747481346130371,0.03950251266360283
1771082070781501400,3.66950146484375,-0.023006439208984375,-0.14267504215240479,0.013270482420921326
1771082070791442400,3.6794423828125,0.06817436218261719,-0.12355625629425049,0.002529822289943695
1771082070801383700,3.6893837890625,0.1486968994140625,-0.12017428874969482,-0.0573168620467186
1771082070811325000,3.699324951171875,0.12941741943359375,-0.14944541454315186,-0.10920824110507965
1771082070821266000,3.709265869140625,-0.011574745178222656,-0.17070794105529785,-0.17081385850906372
1771082070831207200,3.719207275390625,-0.12415027618408203,-0.18781495094299316,-0.21462026238441467
1771082070841148200,3.729148193359375,-0.19246768951416016,-0.1788548231124878,-0.20311781764030457
1771082070861030700,3.74903076171875,-0.1386709213256836,-0.07374393939971924,-0.042779505252838135
1771082070870971600,3.7589716796875,-0.0775461196899414,-0.05128741264343262,0.015509545803070068
1771082070880913000,3.768912841796875,-0.05041027069091797,-0.038519978523254395,0.06444571912288666
1771082070890854000,3.77885400390625,-0.07780647277832031,-0.009778738021850586,0.08038484305143356
1771082070900795100,3.788795166015625,-0.15176868438720703,0.022899985313415527,0.05861339718103409
1771082070910736400,3.798736328125,-0.2622861862182617,0.04376673698425293,0.045000385493040085
1771082070920677400,3.808677490234375,-0.19467735290527344,0.04439520835876465,0.03853907808661461
1771082070930618600,3.81861865234375,-0.043776512145996094,0.03247714042663574,0.03812131658196449
1771082070940559600,3.8285595703125,0.15381240844726562,0.03607630729675293,0.052692193537950516
1771082070950500900,3.8385009765625,0.28441715240478516,0.01206350326538086,0.06942497938871384
1771082070960442000,3.848442138671875,0.28098011016845703,0.0004279613494873047,0.07204411923885345
1771082070970383000,3.858383056640625,0.26352596282958984,-0.022977352142333984,0.015040826052427292
1771082070980324400,3.868324462890625,0.3218955993652344,-0.11751413345336914,-0.06063148379325867
1771082070990265300,3.878265380859375,0.2477884292602539,-0.12260603904724121,-0.07772833108901978
1771082071000206600,3.88820654296875,0.20349502563476562,-0.0703500509262085,-0.06894337385892868
1771082071010147800,3.89814794921875,0.11555290222167969,-0.0347825288772583,-0.04891056567430496
1771082071030030000,3.918030029296875,-0.059615135192871094,-0.0006189346313476562,-0.02713150531053543
1771082071039971000,3.92797119140625,-0.03002166748046875,-0.0046700239181518555,-0.05046124756336212
1771082071049912300,3.937912353515625,-0.010477066040039062,-0.03385341167449951,-0.06338704377412796
1771082071059853600,3.947853515625,0.025146484375,-0.05038166046142578,-0.03521888703107834
1771082071069794600,3.957794677734375,0.02243518829345703,-0.04269254207611084,0.002992406487464905
1771082071079735800,3.96773583984375,-0.0226593017578125,-0.03953742980957031,0.018300652503967285
1771082071089676800,3.9776767578125,-0.0670919418334961,-0.031224727630615234,0.03951752558350563
1771082071099618000,3.9876181640625,-0.10154247283935547,0.029646754264831543,0.08228850364685059
1771082071109559300,3.997559326171875,-0.04846477508544922,0.05264151096343994,0.10403724014759064
1771082071119500300,4.007500244140625,-0.09756660461425781,0.0026786327362060547,0.06125817447900772
1771082071129441500,4.017441650390625,-0.237762451171875,-0.03181862831115723,0.016937091946601868
1771082071139382500,4.027382568359375,-0.3052539825439453,-0.0504155158996582,-0.06156033277511597
1771082071149323800,4.03732373046875,-0.22827720642089844,-0.06515359878540039,-0.11320982873439789
1771082071159265000,4.04726513671875,-0.025626182556152344,-0.08592343330383301,-0.13026276230812073
1771082071169206000,4.0572060546875,0.14307022094726562,-0.12058424949645996,-0.0999714583158493
1771082071189088300,4.077088134765625,0.19866943359375,-0.10322189331054688,-0.07598072290420532
1771082071199029500,4.087029541015625,0.0937042236328125,-0.11558473110198975,-0.11547572910785675
1771082071208970800,4.096970703125,-0.004765510559082031,-0.1185382604598999,-0.15482991933822632
1771082071218911700,4.106911865234375,-0.028725624084472656,-0.07859337329864502,-0.14797456562519073
1771082071228853000,4.11685302734375,0.034770965576171875,0.005593776702880859,-0.055297285318374634
1771082071238794000,4.1267939453125,0.04547119140625,0.04334235191345215,0.02145172655582428
1771082071248735200,4.1367353515625,0.032479286193847656,0.06614696979522705,0.09634286165237427
1771082071258676500,4.146676513671875,0.05508613586425781,0.08582890033721924,0.09181445837020874
1771082071268617500,4.156617431640625,0.05145549774169922,0.08615279197692871,0.04963245242834091
1771082071278558700,4.166558837890625,0.03848457336425781,0.08401596546173096,0.04079490900039673
1771082071298441000,4.18644091796875,0.062050819396972656,0.0920863151550293,0.07425231486558914
1771082071308382200,4.19638232421875,0.06760597229003906,0.09291625022888184,0.10548379272222519
1771082071318323200,4.2063232421875,0.11544227600097656,0.12444281578063965,0.07143024355173111
1771082071328264400,4.216264404296875,0.07311820983886719,0.1267998218536377,0.06531678140163422
1771082071338205400,4.226205322265625,0.010375022888183594,0.11940765380859375,0.06910067796707153
1771082071348146700,4.236146728515625,-0.030020713806152344,0.11390078067779541,0.027869373559951782
1771082071358088000,4.246087890625,-0.06730079650878906,0.0750284194946289,-0.025124788284301758
1771082071368029000,4.25602880859375,-0.10151195526123047,0.02207660675048828,-0.04826529324054718
1771082071377970200,4.26597021484375,-0.04086780548095703,0.030416369438171387,-0.036202892661094666
1771082071387911200,4.2759111328125,0.016469955444335938,0.035860538482666016,0.004829198122024536
1771082071397852400,4.285852294921875,0.09877586364746094,0.031702518463134766,0.07841610908508301
1771082071407793700,4.295793701171875,0.1467151641845703,0.0514606237411499,0.10771937668323517
1771082071417734700,4.305734619140625,0.13965797424316406,0.08307182788848877,0.13174401223659515
1771082071437617000,4.325616943359375,0.1845102310180664,0.02493155002593994,0.05429817736148834
1771082071457499400,4.34549951171875,0.15931129455566406,-0.04624068737030029,-0.01576945185661316
1771082071477381600,4.365381591796875,0.03371238708496094,-0.03670763969421387,-0.02477698028087616
1771082071487322600,4.375322509765625,-0.05125999450683594,-0.09167540073394775,-0.08647029101848602
1771082071497263900,4.385263916015625,-0.08321762084960938,-0.1517937183380127,-0.13308948278427124
1771082071507205000,4.395205078125,-0.06298065185546875,-0.1960982084274292,-0.1670602262020111
1771082071517146000,4.40514599609375,-0.07602119445800781,-0.2090761661529541,-0.13849325478076935
1771082071527087400,4.41508740234375,-0.19472026824951172,-0.17977023124694824,-0.07257390022277832
1771082071537028400,4.4250283203125,-0.31619739532470703,-0.09199559688568115,-0.016435548663139343
1771082071546969600,4.434969482421875,-0.33695411682128906,0.006800055503845215,0.041116863489151
1771082071556910800,4.444910888671875,-0.21873855590820312,0.027474641799926758,0.03216564655303955
1771082071566851800,4.454851806640625,-0.0720672607421875,-0.050167083740234375,-0.02143034338951111
1771082071576793000,4.46479296875,0.060291290283203125,-0.1565229892730713,-0.0753929615020752
1771082071586734000,4.474734130859375,0.10807609558105469,-0.23747718334197998,-0.1401495635509491
1771082071596675300,4.48467529296875,0.02100849151611328,-0.2610996961593628,-0.1551019251346588
1771082071606616600,4.494616455078125,-0.12570762634277344,-0.20961344242095947,-0.15162351727485657
1771082071626498800,4.514498779296875,-0.18935680389404297,-0.15587067604064941,-0.12478466331958771
1771082071636439800,4.524439697265625,-0.07618141174316406,-0.14817214012145996,-0.09232096374034882
1771082071646381000,4.534381103515625,0.12449836730957031,-0.14266133308410645,-0.02366398274898529
1771082071656322300,4.544322265625,0.28184986114501953,-0.14194762706756592,0.0031837821006774902
1771082071676204500,4.56420458984375,0.26802921295166016,-0.1984497308731079,-0.0772634744644165
1771082071686145500,4.5741455078125,0.1805267333984375,-0.20074748992919922,-0.13064351677894592
1771082071706028000,4.594028076171875,0.10871219635009766,-0.14055383205413818,-0.11688509583473206
1771082071725910300,4.61391015625,0.16789913177490234,-0.08376002311706543,-0.05285525321960449
1771082071745792500,4.63379248046875,0.0996541976928711,-0.05995643138885498,-0.007210001349449158
1771082071755733800,4.643733642578125,-0.026411056518554688,-0.011896967887878418,0.03179086744785309
1771082071775616000,4.663615966796875,-0.12076568603515625,0.11431479454040527,0.15924906730651855
1771082071795498200,4.683498291015625,0.05498027801513672,0.18027544021606445,0.2480204999446869
1771082071805439500,4.693439453125,0.10997200012207031,0.17566680908203125,0.2336450219154358
1771082071825321700,4.71332177734375,-0.0049266815185546875,0.08597254753112793,0.11833299696445465
1771082071845204000,4.733203857421875,-0.1050577163696289,0.11083400249481201,0.04739144444465637
1771082071865086200,4.753086181640625,-0.047530174255371094,0.10321938991546631,0.05227069556713104
1771082071875027500,4.76302734375,0.05915546417236328,0.0825122594833374,0.06964803487062454
1771082071894909700,4.78290966796875,0.07331466674804688,0.09013795852661133,0.13394711911678314
1771082071914792000,4.8027919921875,0.06097888946533203,0.1415165662765503,0.1760006546974182
1771082071934674200,4.822674072265625,-0.035938262939453125,0.10912048816680908,0.13458110392093658
1771082071954556700,4.842556640625,0.013514518737792969,-0.0329669713973999,-0.047877468168735504
1771082071974439000,4.86243896484375,0.1668233871459961,-0.10326600074768066,-0.07607351243495941
1771082071994321200,4.882321044921875,0.22107601165771484,-0.08889949321746826,0.019424833357334137
1771082072014203400,4.902203369140625,-0.0303497314453125,-0.019898176193237305,0.04503259435296059
1771082072024144600,4.91214453125,-0.10471916198730469,-0.03147423267364502,0.01069774478673935
1771082072044027000,4.93202685546875,-0.18486690521240234,-0.1077871322631836,-0.07561426609754562
1771082072053968100,4.941968017578125,-0.13983535766601562,-0.12250721454620361,-0.10643690824508667
1771082072073850400,4.961850341796875,-0.08291244506835938,-0.12575232982635498,-0.15176230669021606
1771082072093732600,4.981732666015625,0.0801687240600586,-0.184287428855896,-0.21024690568447113
1771082072113614800,5.00161474609375,0.009351730346679688,-0.11592662334442139,-0.08589951694011688
1771082072133497000,5.0214970703125,-0.25438976287841797,-0.05537557601928711,-0.08994036167860031
1771082072153379600,5.041379638671875,-0.15175724029541016,-0.12039339542388916,-0.17260131239891052
1771082072163320600,5.051320556640625,0.03831768035888672,-0.15179228782653809,-0.17296549677848816
1771082072173261800,5.06126171875,0.10991477966308594,-0.14275884628295898,-0.11246846616268158
1771082072193144000,5.08114404296875,-0.02098560333251953,0.016881108283996582,-0.009371653199195862
1771082072203085300,5.091085205078125,-0.16448497772216797,0.06739771366119385,-0.02261856198310852
1771082072213026300,5.1010263671875,-0.28208446502685547,0.07941007614135742,-0.033245012164115906
1771082072222967600,5.110967529296875,-0.2520122528076172,0.08065390586853027,-0.02279461920261383
1771082072242849800,5.130849853515625,0.12091064453125,0.01146543025970459,0.006745249032974243
1771082072252791000,5.140791015625,0.27813720703125,0.0087738037109375,0.03299953043460846
1771082072262732000,5.15073193359375,0.3222818374633789,0.02641582489013672,0.02566470205783844
1771082072272673300,5.16067333984375,0.24112415313720703,0.04501986503601074,0.021607302129268646
1771082072292555500,5.180555419921875,0.09502601623535156,0.07418882846832275,0.009027190506458282
1771082072302496800,5.190496826171875,0.06267452239990234,0.07156169414520264,0.00033937394618988037
1771082072322379000,5.21037890625,0.12859344482421875,0.047419190406799316,0.03378262370824814
1771082072332320000,5.220320068359375,0.1923980712890625,0.05590033531188965,0.04731561988592148
1771082072342261200,5.23026123046875,0.1611347198486328,0.051566481590270996,0.07064157724380493
1771082072352202500,5.240202392578125,0.10458183288574219,0.049161314964294434,0.10500342398881912
1771082072362143500,5.2501435546875,0.11960124969482422,0.03031611442565918,0.10828682035207748
1771082072372084700,5.260084716796875,0.10854721069335938,0.006771564483642578,0.10815654695034027
1771082072382025700,5.270025634765625,0.02003192901611328,0.004604816436767578,0.14175483584403992
1771082072391967000,5.279967041015625,-0.05992603302001953,0.01885390281677246,0.1725388616323471
1771082072401908200,5.289908203125,-0.12441253662109375,0.07044196128845215,0.2353770136833191
1771082072411849200,5.29984912109375,-0.16437435150146484,0.12394058704376221,0.25340428948402405
1771082072431731500,5.3197314453125,-0.037087440490722656,0.06844794750213623,0.23185372352600098
1771082072441672700,5.329672607421875,-0.04575824737548828,0.007855415344238281,0.20390495657920837
1771082072451614000,5.339614013671875,-0.09907054901123047,-0.02081453800201416,0.17427808046340942
1771082072471496200,5.35949609375,-0.0303955078125,-0.08431172370910645,0.01727147400379181
1771082072491378400,5.37937841796875,0.08207416534423828,-0.18796396255493164,-0.08152713626623154
1771082072511260700,5.3992607421875,0.06793594360351562,-0.11823511123657227,-0.04351341724395752
1771082072531143200,5.41914306640625,-0.07770156860351562,-0.07341456413269043,-0.024366430938243866
1771082072541084200,5.429084228515625,-0.11586856842041016,-0.025986909866333008,0.0066822245717048645
1771082072551025400,5.439025390625,-0.11111736297607422,-0.016515612602233887,0.0413399338722229
1771082072570907600,5.45890771484375,-0.04166412353515625,-0.05357170104980469,0.02106519043445587
1771082072580849000,5.468848876953125,-0.03150749206542969,-0.057713866233825684,-0.030067898333072662
1771082072590790000,5.478789794921875,-0.019256591796875,-0.0636439323425293,-0.04734327644109726
1771082072610672000,5.498672119140625,0.011927604675292969,-0.035630226135253906,-0.034745268523693085
1771082072630554600,5.5185546875,0.23697280883789062,-0.040616631507873535,-0.03962720185518265
1771082072650436900,5.538436767578125,0.13817119598388672,0.00499415397644043,0.03805430978536606
1771082072660377900,5.5483779296875,0.03059101104736328,0.03648650646209717,0.02668651193380356
1771082072670319000,5.558319091796875,-0.06808185577392578,0.017715930938720703,-0.025061413645744324
1771082072680260400,5.56826025390625,-0.1345806121826172,-0.0003420114517211914,-0.041269756853580475
1771082072690201300,5.578201416015625,-0.14602184295654297,-0.007581591606140137,-0.038327619433403015
1771082072700142600,5.588142578125,-0.1291961669921875,-0.027825117111206055,-0.00394497811794281
1771082072710083600,5.59808349609375,-0.14567184448242188,-0.023787379264831543,0.024103716015815735
1771082072729966000,5.617966064453125,-0.23608112335205078,0.09408092498779297,0.15290994942188263
1771082072739907000,5.627906982421875,-0.2059621810913086,0.15201199054718018,0.1682233363389969
1771082072749848300,5.637848388671875,-0.14572429656982422,0.10765588283538818,0.11454199254512787
1771082072759789300,5.647789306640625,-0.14301013946533203,0.024121403694152832,0.049871884286403656
1771082072769730600,5.65773046875,-0.16407394409179688,0.011254191398620605,-0.007661785930395126
1771082072779671800,5.667671875,-0.010867118835449219,-0.028053641319274902,-0.03203669935464859
1771082072789612800,5.67761279296875,0.1631183624267578,-0.06080448627471924,-0.08540645241737366
1771082072799554000,5.687553955078125,0.27524757385253906,-0.1300826072692871,-0.09147090464830399
1771082072809495000,5.6974951171875,0.4232454299926758,-0.1631927490234375,-0.06943381577730179
1771082072819436300,5.707436279296875,0.4819612503051758,-0.16429269313812256,-0.06586410850286484
1771082072829377500,5.71737744140625,0.33998584747314453,-0.12274551391601562,-0.0835663229227066
1771082072839318500,5.727318603515625,0.13710784912109375,-0.07172095775604248,-0.10773345828056335
1771082072849259800,5.737259765625,-0.09995269775390625,-0.015085220336914062,-0.14450716972351074
1771082072859200800,5.74720068359375,-0.2673215866088867,0.006194472312927246,-0.1593659520149231
1771082072869142000,5.75714208984375,-0.26511192321777344,0.012542128562927246,-0.18555256724357605
1771082072879083300,5.767083251953125,-0.1408214569091797,-0.0008069276809692383,-0.14667510986328125
1771082072889024300,5.777024169921875,0.04716777801513672,0.0033435821533203125,-0.08783071488142014
1771082072898965500,5.786965576171875,0.2061290740966797,0.005072593688964844,-0.034339241683483124
1771082072908906500,5.796906494140625,0.34138965606689453,-0.012758731842041016,-0.018334560096263885
1771082072918847700,5.80684765625,0.3804759979248047,-0.05984532833099365,-0.06679646670818329
1771082072928789000,5.8167890625,0.29911231994628906,-0.08165645599365234,-0.11302018165588379
1771082072938730000,5.82672998046875,0.20279979705810547,-0.10401391983032227,-0.15771672129631042
1771082072948671200,5.836671142578125,0.12698841094970703,-0.10041153430938721,-0.17758750915527344
1771082072958612200,5.8466123046875,0.06425952911376953,-0.10885417461395264,-0.20606200397014618
1771082072968553500,5.856553466796875,-0.020904541015625,-0.1080554723739624,-0.20114028453826904
1771082072978494700,5.86649462890625,-0.11633491516113281,-0.08424317836761475,-0.16670100390911102
1771082072988435700,5.876435791015625,-0.1818704605102539,-0.04005098342895508,-0.08309668302536011
1771082072998377000,5.886376953125,-0.21569061279296875,0.0032042264938354492,-0.03086278587579727
1771082073008318000,5.89631787109375,-0.22783374786376953,0.03898131847381592,0.06120917201042175
1771082073018259200,5.90625927734375,-0.13627243041992188,0.06751096248626709,0.15045444667339325
1771082073028200400,5.916200439453125,-0.013363838195800781,0.08666455745697021,0.2057567536830902
1771082073038141400,5.926141357421875,0.03917407989501953,0.05411946773529053,0.18712595105171204
1771082073048082700,5.936082763671875,-0.017531394958496094,-0.019750118255615234,0.10280192643404007
1771082073058023700,5.946023681640625,-0.08993339538574219,-0.0538175106048584,0.02295708656311035
1771082073067965000,5.95596484375,-0.10952472686767578,-0.07219624519348145,-0.02536424994468689
1771082073077906200,5.96590625,-0.07707881927490234,-0.040436506271362305,0.020240776240825653
1771082073087847200,5.97584716796875,0.018393516540527344,0.026006221771240234,0.1246587485074997
1771082073097788400,5.985788330078125,0.20655155181884766,0.06250035762786865,0.21269714832305908
1771082073107729400,5.9957294921875,0.26709556579589844,0.04275047779083252,0.2212047278881073
1771082073117670700,6.005670654296875,0.15265369415283203,-0.0014057159423828125,0.17487689852714539
1771082073127612000,6.01561181640625,0.0025720596313476562,-0.021879196166992188,0.08325084298849106
1771082073137553000,6.025552978515625,-0.10733509063720703,-0.02788400650024414,0.009751684963703156
1771082073147494100,6.035494140625,-0.17081260681152344,-0.04721486568450928,-0.046499624848365784
1771082073157435100,6.04543505859375,-0.18625164031982422,-0.06572699546813965,-0.07487708330154419
1771082073167376400,6.05537646484375,-0.166168212890625,-0.08373534679412842,-0.05926456302404404
1771082073177317600,6.065317626953125,-0.16055679321289062,-0.05671513080596924,-0.014582544565200806
1771082073187258600,6.075258544921875,-0.15045452117919922,-0.013064384460449219,0.026000916957855225
1771082073197200000,6.085199951171875,-0.08887577056884766,0.035370707511901855,0.06125706061720848
1771082073207140900,6.095140869140625,-0.037957191467285156,0.04417884349822998,0.07365855574607849
1771082073217082000,6.10508203125,-0.0022401809692382812,0.02589273452758789,0.08088454604148865
1771082073227023400,6.1150234375,-0.0049266815185546875,-0.02189171314239502,0.04226028174161911
1771082073236964400,6.12496435546875,0.018291473388671875,-0.031008481979370117,-0.009908519685268402
1771082073246905600,6.134905517578125,0.08363819122314453,-0.045481085777282715,-0.06496203690767288
1771082073256846600,6.1448466796875,0.16466045379638672,-0.08015012741088867,-0.09507620334625244
1771082073266787800,6.154787841796875,0.2517051696777344,-0.11123907566070557,-0.062336333096027374
1771082073276729000,6.16472900390625,0.2623262405395508,-0.09663176536560059,-0.008567459881305695
1771082073286670000,6.174670166015625,0.1788196563720703,-0.048056840896606445,0.03361531347036362
1771082073296611300,6.184611328125,0.03549003601074219,-0.021377921104431152,0.029467664659023285
1771082073306552300,6.19455224609375,-0.08915042877197266,-0.02239096164703369,0.0004502013325691223
1771082073316493600,6.20449365234375,-0.1602163314819336,-0.045329928398132324,-0.03949308395385742
1771082073326434800,6.214434814453125,-0.18094539642333984,-0.04520058631896973,-0.04127888381481171
1771082073336375800,6.224375732421875,-0.13802623748779297,-0.048384904861450195,-0.03112132102251053
1771082073346317000,6.234317138671875,-0.0959920883178711,-0.029429912567138672,-0.011754520237445831
1771082073356258000,6.244258056640625,0.015987396240234375,-0.02972543239593506,-0.007036566734313965
1771082073366199300,6.25419921875,0.04390716552734375,-0.0334700345993042,-0.014368601143360138
1771082073386081500,6.27408154296875,-0.010724067687988281,-0.05599105358123779,-0.04088889807462692
1771082073396022800,6.284022705078125,-0.033598899841308594,-0.06004941463470459,-0.048297129571437836
1771082073405963800,6.2939638671875,-0.06783199310302734,-0.054828763008117676,-0.053822651505470276
1771082073415905000,6.303905029296875,-0.07091331481933594,-0.04488945007324219,-0.03156144917011261
1771082073425846300,6.31384619140625,-0.06928825378417969,-0.030110478401184082,-0.007174238562583923
1771082073435787300,6.323787353515625,-0.13608932495117188,-0.005460500717163086,0.01750599592924118
1771082073445728500,6.333728515625,-0.19269847869873047,0.03235125541687012,0.05643849074840546
1771082073455669500,6.34366943359375,-0.16403961181640625,0.027101993560791016,0.07664434611797333
1771082073465610800,6.35361083984375,-0.09376144409179688,0.03285789489746094,0.09942445158958435
1771082073475552000,6.363552001953125,0.07177352905273438,0.036669373512268066,0.10741420090198517
1771082073485493000,6.373492919921875,0.2583293914794922,-0.0007940530776977539,0.05941902846097946
1771082073495434200,6.383434326171875,0.29867076873779297,-0.08260416984558105,-0.014690801501274109
1771082073505375200,6.393375244140625,0.1528949737548828,-0.1305391788482666,-0.07722359150648117
1771082073515316500,6.40331640625,-0.07488250732421875,-0.12759029865264893,-0.1388653665781021
1771082073525257700,6.4132578125,-0.32238292694091797,-0.0707547664642334,-0.1397772580385208
1771082073535198700,6.42319873046875,-0.4859962463378906,0.03115713596343994,-0.06611347943544388
1771082073545140000,6.433139892578125,-0.4519948959350586,0.12445509433746338,0.014658704400062561
1771082073555081000,6.4430810546875,-0.23076438903808594,0.13660216331481934,0.0669662207365036
1771082073565022200,6.453022216796875,0.06410694122314453,0.0705033540725708,0.08433863520622253
1771082073574963500,6.46296337890625,0.27158260345458984,0.013173937797546387,0.08537345379590988
1771082073584904400,6.472904541015625,0.37215423583984375,-0.022600889205932617,0.05849148705601692
1771082073594845700,6.482845703125,0.38656139373779297,-0.03552901744842529,0.0007325559854507446
1771082073604786700,6.49278662109375,0.3328056335449219,-0.05945611000061035,-0.06449960917234421
1771082073614728000,6.50272802734375,0.24497032165527344,-0.07301998138427734,-0.10770528018474579
1771082073624669200,6.512669189453125,0.13763046264648438,-0.07108736038208008,-0.11101773381233215
1771082073634610200,6.522610107421875,0.08870506286621094,-0.06283426284790039,-0.10836310684680939
1771082073644551400,6.532551513671875,0.05009651184082031,-0.04109978675842285,-0.07839612662792206
1771082073654492400,6.542492431640625,0.052201271057128906,-0.024740219116210938,-0.05920342355966568
1771082073664433700,6.55243359375,0.06137371063232422,-0.04181718826293945,-0.030970945954322815
1771082073674375000,6.562375,0.013916015625,-0.025753378868103027,0.0019421949982643127
1771082073684316000,6.57231591796875,-0.035172462463378906,0.006923317909240723,0.05609492212533951
1771082073694257200,6.582257080078125,-0.0717172622680664,0.034652113914489746,0.11022062599658966
1771082073714139400,6.602139404296875,-0.1712331771850586,0.0673520565032959,0.13737714290618896
1771082073724080600,6.61208056640625,-0.19185256958007812,0.047167301177978516,0.0737462043762207
1771082073734021600,6.622021728515625,-0.21468067169189453,-0.0022836923599243164,0.001315586268901825
1771082073743963000,6.631962890625,-0.15726470947265625,-0.03353524208068848,-0.026233136653900146
1771082073753903900,6.64190380859375,-0.04670238494873047,-0.049945831298828125,-0.037518441677093506
1771082073763845000,6.65184521484375,0.04090118408203125,-0.07119596004486084,-0.013677000999450684
1771082073773786400,6.661786376953125,0.06368446350097656,-0.06729674339294434,0.03285355120897293
1771082073783727400,6.671727294921875,0.11454486846923828,-0.03159606456756592,0.0595506876707077
1771082073793668600,6.681668701171875,0.09651756286621094,-0.007100462913513184,0.08865176886320114
1771082073803609600,6.691609619140625,0.03182220458984375,0.00697934627532959,0.08946843445301056
1771082073813550800,6.70155078125,-0.0365753173828125,0.004752039909362793,0.03420192003250122
1771082073823492000,6.7114921875,-0.056946754455566406,-0.04106593132019043,-0.059190697968006134
1771082073833433000,6.72143310546875,-0.08896541595458984,-0.10847353935241699,-0.1547895073890686
1771082073843374300,6.731374267578125,-0.1065073013305664,-0.1455228328704834,-0.2132296860218048
1771082073853315300,6.7413154296875,-0.09087371826171875,-0.14155054092407227,-0.18405340611934662
1771082073863256600,6.751256591796875,-0.1060476303100586,-0.0744924545288086,-0.09573924541473389
1771082073873197800,6.76119775390625,-0.076141357421875,0.02371048927307129,-0.030407562851905823
1771082073883138800,6.771138916015625,0.028726577758789062,0.03944039344787598,-0.005915626883506775
1771082073893080000,6.781080078125,0.10606002807617188,0.011936664581298828,0.02017967402935028
1771082073903021000,6.79102099609375,0.1467723846435547,-0.021967649459838867,0.03316814452409744
1771082073912962300,6.80096240234375,0.1467723846435547,-0.03391706943511963,0.01284102350473404
1771082073922903600,6.810903564453125,0.07138252258300781,-0.028787851333618164,-0.012212477624416351
1771082073932844500,6.820844482421875,0.011302947998046875,-0.009217500686645508,-0.02485790103673935
1771082073952726800,6.840726806640625,0.08117294311523438,0.0013457536697387695,-0.047132909297943115
1771082073962668000,6.85066796875,0.1528463363647461,-0.01540672779083252,-0.03724672645330429
1771082073972609300,6.860609375,0.1316852569580078,-0.04220080375671387,-0.04120839387178421
1771082073982550300,6.87055029296875,0.031000137329101562,-0.043552398681640625,-0.04051447659730911
1771082073992491500,6.880491455078125,-0.0680704116821289,-0.023394227027893066,-0.026325464248657227
1771082074002432500,6.8904326171875,-0.07153129577636719,-0.009540081024169922,-0.017457664012908936
1771082074012373800,6.900373779296875,-0.02577495574951172,0.019703388214111328,0.029155001044273376
1771082074022315000,6.91031494140625,0.09911346435546875,0.0539703369140625,0.08700048923492432
1771082074032256000,6.920256103515625,0.22199153900146484,0.047350287437438965,0.11672518402338028
1771082074042197200,6.930197265625,0.1923694610595703,-0.004980683326721191,0.09551243484020233
1771082074052138200,6.94013818359375,0.10465335845947266,-0.029586076736450195,0.04899471253156662
1771082074062079500,6.95007958984375,-0.021442413330078125,-0.03359723091125488,-0.004667907953262329
1771082074072020700,6.960020751953125,-0.13835716247558594,-0.0142059326171875,-0.014519922435283661
1771082074081961700,6.969961669921875,-0.0932931900024414,0.0027049779891967773,0.034946054220199585
1771082074091903000,6.979903076171875,0.005164146423339844,0.019335389137268066,0.11143907904624939
1771082074101844000,6.989843994140625,0.014883041381835938,0.030988097190856934,0.15461111068725586
1771082074111785200,6.99978515625,-0.0014858245849609375,0.02617490291595459,0.14149391651153564
1771082074121726500,7.0097265625,-0.03183460235595703,0.012729525566101074,0.07512286305427551
1771082074131667500,7.01966748046875,-0.005301475524902344,-0.002147078514099121,0.04810743033885956
1771082074141608700,7.029608642578125,0.001903533935546875,-0.02118849754333496,0.0433540977537632
1771082074151549700,7.0395498046875,-0.023935317993164062,-0.00009059906005859375,0.0713210478425026
1771082074161491000,7.049490966796875,0.004906654357910156,0.02476978302001953,0.0976179763674736
1771082074171432200,7.05943212890625,0.04053497314453125,0.0010364055633544922,0.0874774158000946
1771082074181373200,7.069373291015625,0.005148887634277344,-0.013979911804199219,0.07011991739273071
1771082074191314400,7.079314453125,-0.048445701599121094,-0.036006927490234375,0.050436221063137054
1771082074201255400,7.08925537109375,-0.05179309844970703,-0.07129323482513428,0.038924261927604675
1771082074211196700,7.09919677734375,-0.1093893051147461,-0.06507313251495361,0.010672301054000854
1771082074221138000,7.109137939453125,-0.23682403564453125,-0.02980828285217285,0.006875708699226379
1771082074231079000,7.119078857421875,-0.2822990417480469,0.005870938301086426,0.031908079981803894
1771082074241020200,7.129020263671875,-0.21891021728515625,0.05833852291107178,0.04500675946474075
1771082074250961200,7.138961181640625,-0.10965919494628906,0.07071316242218018,0.04467448219656944
1771082074260902400,7.14890234375,0.047039031982421875,0.0202181339263916,0.03486664593219757
1771082074270843600,7.15884375,0.210479736328125,-0.03374218940734863,-0.010773926973342896
1771082074280784600,7.16878466796875,0.2794761657714844,-0.08484792709350586,-0.05553366243839264
1771082074300667000,7.1886669921875,0.18575763702392578,-0.12417745590209961,-0.1377142071723938
1771082074320549400,7.20854931640625,0.14300155639648438,-0.07795679569244385,-0.12489274889230728
1771082074340431600,7.228431640625,-0.0052509307861328125,-0.11575126647949219,-0.13295163214206696
1771082074360313900,7.24831396484375,-0.14659690856933594,-0.08382260799407959,-0.1682717502117157
1771082074370255000,7.258255126953125,-0.1768169403076172,-0.0392611026763916,-0.12119835615158081
1771082074380196000,7.268196044921875,-0.13596248626708984,0.00711214542388916,-0.02275952696800232
1771082074390137300,7.278137451171875,-0.03923988342285156,0.043001651763916016,0.0727362334728241
1771082074400078300,7.288078369140625,0.0064945220947265625,0.04975259304046631,0.09660325944423676
1771082074419960800,7.3079609375,-0.05146026611328125,0.029410958290100098,0.052750423550605774
1771082074429901800,7.31790185546875,-0.05303192138671875,0.003386974334716797,-0.007433734834194183
1771082074439843000,7.327843017578125,0.015839576721191406,-0.03523147106170654,-0.05957118421792984
1771082074449784000,7.3377841796875,0.10706901550292969,-0.06359493732452393,-0.08252333849668503
1771082074459725300,7.347725341796875,0.20636749267578125,-0.07355654239654541,-0.060814887285232544
1771082074469666600,7.35766650390625,0.2690410614013672,-0.03335893154144287,0.012049511075019836
1771082074479607600,7.367607666015625,0.23692607879638672,0.011034488677978516,0.08170224726200104
1771082074489548800,7.377548828125,0.15859413146972656,0.04828596115112305,0.1202610656619072
1771082074499489800,7.38748974609375,0.008709907531738281,0.06784331798553467,0.11679306626319885
1771082074509431000,7.39743115234375,-0.1411600112915039,0.05246615409851074,0.07624996453523636
1771082074519372300,7.407372314453125,-0.2394723892211914,0.02993142604827881,-0.021616891026496887
1771082074539254500,7.427254638671875,-0.2286815643310547,-0.04797673225402832,-0.10894929617643356
1771082074549195500,7.437195556640625,-0.15916919708251953,-0.04131114482879639,-0.06861308962106705
1771082074559136800,7.44713671875,-0.020101547241210938,0.021245121955871582,0.03543490171432495
1771082074569078000,7.457078125,0.05570507049560547,0.06724202632904053,0.0997174084186554
1771082074579019000,7.46701904296875,0.029209136962890625,0.06204211711883545,0.10416632890701294
1771082074588960300,7.476960205078125,0.010275840759277344,0.018967866897583008,0.06378594040870667
1771082074598901200,7.4869013671875,-0.0036897659301757812,-0.00425410270690918,0.021943777799606323
1771082074608842500,7.496842529296875,0.0036497116088867188,-0.010010957717895508,-0.007149443030357361
1771082074618783700,7.50678369140625,0.04838275909423828,-0.024291276931762695,-0.0306694433093071
1771082074628724700,7.516724853515625,0.0899810791015625,-0.04755353927612305,-0.02275131642818451
1771082074638666000,7.526666015625,0.14032459259033203,-0.04227769374847412,-0.0029333680868148804
1771082074658548200,7.54654833984375,0.08438777923583984,-0.03445315361022949,-0.00978737324476242
1771082074678430500,7.566430419921875,-0.05726432800292969,-0.020620107650756836,0.006457291543483734
1771082074688371700,7.576371826171875,-0.09619808197021484,-0.02560710906982422,-0.022693559527397156
1771082074698313000,7.58631298828125,-0.07815742492675781,-0.036678194999694824,-0.03280270844697952
1771082074708254000,7.59625390625,0.010128974914550781,-0.023624181747436523,-0.024347834289073944
1771082074718195200,7.6061953125,0.06881332397460938,-0.027865052223205566,-0.029920749366283417
1771082074728136200,7.61613623046875,0.06315231323242188,-0.06599390506744385,-0.03745540976524353
1771082074738077400,7.626077392578125,0.013087272644042969,-0.0976264476776123,-0.05220548063516617
1771082074748018700,7.636018798828125,-0.06194591522216797,-0.05860769748687744,-0.029658064246177673
1771082074757959700,7.645959716796875,-0.16402435302734375,-0.005914449691772461,0.010729074478149414
1771082074767901000,7.65590087890625,-0.19864368438720703,0.023157954216003418,0.03348351642489433
1771082074777842000,7.665842041015625,-0.19286441802978516,0.02920401096343994,0.0670907273888588
1771082074787783200,7.675783203125,-0.097900390625,0.03369760513305664,0.06677776575088501
1771082074797724400,7.685724365234375,-0.039885520935058594,0.0007499456405639648,0.05312133580446243
1771082074807665400,7.69566552734375,-0.03231334686279297,-0.02909231185913086,0.028378941118717194
1771082074817606700,7.705606689453125,0.019866943359375,-0.03960287570953369,-0.009777843952178955
1771082074827547600,7.715547607421875,0.012326240539550781,-0.012272000312805176,-0.030079960823059082
1771082074837489000,7.725489013671875,-0.06096363067626953,-0.009140610694885254,-0.014170229434967041
1771082074847430100,7.73543017578125,-0.1259937286376953,0.0011038780212402344,0.012806005775928497
1771082074857371100,7.74537109375,-0.1287221908569336,0.011081337928771973,0.01898147165775299
1771082074867312400,7.7553125,-0.09382820129394531,-0.00460207462310791,0.0023688077926635742
1771082074877253400,7.76525341796875,0.01813030242919922,-0.03630363941192627,-0.019333817064762115
1771082074887194600,7.775194580078125,0.12581729888916016,-0.10014259815216064,-0.06361860781908035
1771082074897135900,7.785135986328125,0.18002605438232422,-0.1304624080657959,-0.07522168010473251
1771082074907076900,7.795076904296875,0.13220691680908203,-0.11369311809539795,-0.052173830568790436
1771082074917018000,7.80501806640625,0.01226806640625,-0.04806375503540039,-0.03100559115409851
1771082074926959000,7.814958984375,-0.13167381286621094,0.019327282905578613,-0.017992518842220306
1771082074936900400,7.824900390625,-0.11806201934814453,0.039609670639038086,-0.02103949338197708
1771082074946841600,7.834841552734375,-0.013025283813476562,0.02268505096435547,-0.006239652633666992
1771082074956782600,7.844782470703125,0.12787437438964844,-0.017198681831359863,-0.010263405740261078
1771082074966723800,7.854723876953125,0.21701335906982422,-0.06357884407043457,-0.03684695065021515
1771082074976664800,7.864664794921875,0.25064659118652344,-0.08624136447906494,-0.06171055883169174
1771082074986606000,7.874606201171875,0.23913288116455078,-0.08803868293762207,-0.08043070137500763
1771082074996547300,7.88454736328125,0.1973438262939453,-0.07873809337615967,-0.10807193070650101
1771082075006488300,7.89448828125,0.1728687286376953,-0.08677899837493896,-0.11872638761997223
1771082075016429600,7.9044296875,0.12307929992675781,-0.08617615699768066,-0.12700265645980835
1771082075026370600,7.91437060546875,0.0648345947265625,-0.06510090827941895,-0.09788741171360016
1771082075036311800,7.924311767578125,0.014684677124023438,-0.04468071460723877,-0.07627822458744049
1771082075046253000,7.934253173828125,-0.0887594223022461,-0.036477088928222656,-0.03627229481935501
1771082075056194000,7.944194091796875,-0.12700748443603516,0.026137471199035645,0.025090619921684265
1771082075066135300,7.95413525390625,-0.046973228454589844,0.06917893886566162,0.06772845983505249
1771082075076076300,7.964076171875,0.02703571319580078,0.03842568397521973,0.09778065979480743
1771082075086017500,7.974017578125,0.04566764831542969,-0.02005898952484131,0.0926523432135582
1771082075095958800,7.983958740234375,0.06635570526123047,-0.039898037910461426,0.04401559382677078
1771082075105899800,7.993899658203125,0.009001731872558594,-0.05695319175720215,0.004731893539428711
1771082075115841000,8.003841064453125,-0.08987998962402344,-0.059004902839660645,-0.028305545449256897
1771082075125782000,8.013781982421875,-0.17779922485351562,-0.046404361724853516,-0.012087665498256683
1771082075135723300,8.02372314453125,-0.1583871841430664,0.0039511919021606445,0.05369808152318001
1771082075145664500,8.03366455078125,-0.06870365142822266,0.04886519908905029,0.13584020733833313
1771082075155605500,8.04360546875,0.010083198547363281,0.06469058990478516,0.178758442401886
1771082075165546800,8.053546630859374,0.06166553497314453,0.03553187847137451,0.17225293815135956
1771082075175487700,8.06348779296875,0.09360027313232422,-0.002749800682067871,0.13386903703212738
1771082075185429000,8.073428955078125,0.10612201690673828,-0.04244506359100342,0.07876624166965485
1771082075195370200,8.083370361328125,0.07371997833251953,-0.06735360622406006,0.014589056372642517
1771082075205311200,8.093311279296875,0.006554603576660156,-0.08714056015014648,-0.030997417867183685
1771082075215252500,8.10325244140625,-0.07122230529785156,-0.08796823024749756,-0.06171470135450363
1771082075225193500,8.113193359375,-0.11702823638916016,-0.07741773128509521,-0.0672769546508789
1771082075235134700,8.123134765625,-0.1643667221069336,-0.048614501953125,-0.05121771991252899
1771082075245076000,8.133075927734374,-0.1755657196044922,-0.030009865760803223,-0.004601627588272095
1771082075255017000,8.143016845703125,-0.12308311462402344,0.009774208068847656,0.039959654211997986
1771082075264958200,8.152958251953125,-0.05277538299560547,0.02369999885559082,0.0530313104391098
1771082075274899200,8.162899169921875,0.013837814331054688,0.012396454811096191,0.06426817923784256
1771082075284840400,8.17284033203125,0.07215309143066406,-0.005081057548522949,0.05526532977819443
1771082075294781700,8.18278173828125,0.11067581176757812,-0.01284801959991455,0.061974070966243744
1771082075304722700,8.19272265625,0.09921932220458984,-0.011565327644348145,0.057536981999874115
1771082075314664000,8.202663818359374,0.03623771667480469,-0.010701298713684082,0.04624960198998451
1771082075324605000,8.21260498046875,0.026113510131835938,-0.009951472282409668,0.01797138899564743
1771082075334546200,8.222546142578125,0.013856887817382812,-0.01422417163848877,0.0038523077964782715
1771082075344487200,8.232487060546875,0.04190349578857422,-0.028244853019714355,0.01796259731054306
1771082075354428400,8.242428466796875,0.04124641418457031,-0.025652647018432617,0.03848189860582352
1771082075364369400,8.252369384765625,0.02884960174560547,-0.01143026351928711,0.03760891407728195
1771082075384251600,8.272251708984374,0.013880729675292969,0.0004018545150756836,0.043565165251493454
1771082075404134000,8.2921337890625,0.032176971435546875,0.016872167587280273,0.05903878062963486
1771082075424016100,8.31201611328125,-0.015625,0.025065064430236816,0.08115033805370331
1771082075443898000,8.331898193359375,-0.019374847412109375,-0.005020737648010254,-0.016332484781742096
1771082075453839400,8.34183935546875,-0.0073413848876953125,-0.0423283576965332,-0.059156157076358795
1771082075463780400,8.3517802734375,0.04672050476074219,-0.059388160705566406,-0.05620874464511871
1771082075473721600,8.3617216796875,0.10923099517822266,-0.04045450687408447,-0.014558643102645874
1771082075483662600,8.37166259765625,0.11426162719726562,-0.008011937141418457,0.022449761629104614
1771082075493603600,8.381603515625,0.09817123413085938,0.013677000999450684,0.04920167848467827
1771082075503544800,8.391544921875,0.1249532699584961,0.019681096076965332,0.039832133799791336
1771082075513485800,8.40148583984375,0.045594215393066406,0.017225027084350586,0.02331385761499405
1771082075523427000,8.411427001953125,-0.029921531677246094,0.0021404027938842773,0.010818429291248322
1771082075533368000,8.4213681640625,-0.0783071517944336,0.0038892030715942383,-0.018809646368026733
1771082075543309000,8.43130908203125,-0.09541988372802734,-0.014880657196044922,-0.02491956204175949
1771082075553250300,8.441250244140624,-0.05356884002685547,-0.008897542953491211,-0.008041813969612122
1771082075573132300,8.46113232421875,0.17206859588623047,-0.0330122709274292,0.018309395760297775
1771082075593014500,8.4810146484375,0.08232402801513672,-0.057303667068481445,0.0186149999499321
1771082075612896800,8.500896728515626,-0.22498226165771484,0.02343916893005371,-0.009149894118309021
1771082075632779000,8.520779052734374,-0.3464775085449219,0.0560222864151001,0.01843586564064026
1771082075652661200,8.5406611328125,0.00794219970703125,0.027281880378723145,0.054494794458150864
1771082075662602500,8.5506025390625,0.12754154205322266,-0.013863205909729004,0.07596636563539505
1771082075672543500,8.56054345703125,0.19336700439453125,-0.035483717918395996,0.02620846778154373
1771082075682484700,8.570484619140625,0.2063913345336914,-0.0712655782699585,-0.05177084356546402
1771082075692425700,8.58042578125,0.16996192932128906,-0.14512062072753906,-0.14392921328544617
1771082075712308200,8.60030810546875,-0.05467510223388672,-0.14666235446929932,-0.18694427609443665
1771082075732190500,8.6201904296875,-0.021474838256835938,-0.07228267192840576,-0.14289048314094543
1771082075752072700,8.64007275390625,0.023949623107910156,-0.06821656227111816,-0.04912477731704712
1771082075771955000,8.659954833984376,0.01389312744140625,-0.06842219829559326,-0.029775865375995636
1771082075781896200,8.669896240234374,-0.0850839614868164,-0.05850803852081299,-0.021201908588409424
1771082075801778400,8.6897783203125,-0.1827259063720703,-0.020092129707336426,0.01316870003938675
1771082075821660700,8.70966064453125,-0.06641578674316406,0.037102341651916504,0.010785862803459167
1771082075841543200,8.729543212890626,0.09592914581298828,-0.05555403232574463,-0.019766047596931458
1771082075851484200,8.739484130859376,0.14830398559570312,-0.06789076328277588,-0.034469760954380035
1771082075871366400,8.759366455078125,0.03778266906738281,-0.029226303100585938,0.025689207017421722
1771082075881307600,8.7693076171875,0.0017633438110351562,0.007033348083496094,0.05007779598236084
1771082075891249000,8.779248779296875,-0.005295753479003906,0.053866028785705566,0.07355690002441406
1771082075901190000,8.78918994140625,-0.01685810089111328,0.07588279247283936,0.07459200918674469
1771082075911131100,8.799131103515625,0.011830329895019531,0.03848302364349365,0.03308704495429993
1771082075931013400,8.819013427734374,-0.060394287109375,-0.011924266815185547,-0.051157884299755096
1771082075950895600,8.8388955078125,-0.10336589813232422,-0.0151900053024292,-0.04725369065999985
1771082075960836900,8.8488369140625,-0.10191059112548828,0.017029881477355957,-0.004516273736953735
1771082075970777900,8.85877783203125,0.03132915496826172,0.0558774471282959,0.01741572469472885
1771082075980719000,8.868718994140625,0.13890457153320312,0.05355966091156006,0.053484197705984116
1771082076000601300,8.888601318359376,0.07535076141357422,0.01717841625213623,0.07719135284423828
1771082076010542600,8.89854248046875,0.03398323059082031,0.026793599128723145,0.03627685457468033
1771082076020483600,8.908483642578124,0.023756980895996094,0.02527904510498047,0.007973268628120422
1771082076030424800,8.9184248046875,0.0888814926147461,-0.020143747329711914,-0.05078357458114624
1771082076040366000,8.928365966796875,0.2447948455810547,-0.07453370094299316,-0.10185212641954422
1771082076050307000,8.93830712890625,0.2806739807128906,-0.08704686164855957,-0.057071104645729065
1771082076060248300,8.948248291015625,0.1938314437866211,-0.09379231929779053,-0.033001549541950226
1771082076070189300,8.958189208984376,0.014460563659667969,-0.056696414947509766,-0.016233697533607483
1771082076080130600,8.968130615234376,-0.08894824981689453,0.00567626953125,0.013241760432720184
1771082076100012800,8.9880126953125,-0.10655593872070312,0.04425680637359619,0.08262618631124496
1771082076109954000,8.9979541015625,-0.09055614471435547,0.04770386219024658,0.08105198293924332
1771082076129836300,9.017836181640625,0.03597736358642578,-0.042623043060302734,-0.02353469282388687
1771082076149718500,9.037718505859376,-0.021201133728027344,-0.08522152900695801,-0.0778888538479805
1771082076169600800,9.057600830078124,0.03381156921386719,-0.03536093235015869,0.00010188668966293335
1771082076179542000,9.0675419921875,0.0713043212890625,-0.003949165344238281,0.021377816796302795
1771082076199424300,9.08742431640625,0.09984493255615234,-0.02330756187438965,0.04800346493721008
1771082076209365500,9.097365478515625,0.011495590209960938,-0.03211498260498047,0.038915473967790604
1771082076229247700,9.117247802734376,-0.08145999908447266,-0.030002355575561523,0.0018614158034324646
1771082076249130000,9.1371298828125,0.031058311462402344,-0.024489998817443848,0.0342840850353241
1771082076259071200,9.1470712890625,0.04965782165527344,-0.05376303195953369,0.029691144824028015
1771082076269012200,9.15701220703125,-0.004782676696777344,-0.08384668827056885,0.020585469901561737
1771082076278953500,9.166953369140625,-0.11467933654785156,-0.0670464038848877,0.0047911107540130615
1771082076288894700,9.176894775390625,-0.24870586395263672,-0.012556910514831543,0.005140222609043121
1771082076298835700,9.186835693359376,-0.3053913116455078,0.03741717338562012,0.046182163059711456
1771082076308777000,9.19677685546875,-0.2507495880126953,0.08315467834472656,0.09908611327409744
1771082076318718000,9.206718017578124,-0.12666797637939453,0.08009743690490723,0.11991932988166809
1771082076328659200,9.2166591796875,0.02577972412109375,0.05210089683532715,0.11011365056037903
1771082076348541400,9.23654150390625,0.28512096405029297,-0.09048938751220703,-0.042040251195430756
1771082076368423700,9.256423583984375,0.2515678405761719,-0.1521461009979248,-0.12642481923103333
1771082076378365000,9.266364990234376,0.22388362884521484,-0.11677443981170654,-0.14280462265014648
1771082076388306200,9.27630615234375,0.1545114517211914,-0.09968030452728271,-0.13592171669006348
1771082076398247200,9.2862470703125,0.1100625991821289,-0.09114205837249756,-0.09712784737348557
1771082076408188400,9.2961884765625,0.047667503356933594,-0.06000709533691406,-0.08563582599163055
1771082076418129400,9.30612939453125,-0.025363922119140625,-0.06050074100494385,-0.09097370505332947
1771082076438012000,9.326011962890625,-0.14404964447021484,-0.03707611560821533,0.006830401718616486
1771082076447953000,9.335952880859375,-0.07528495788574219,-0.010560750961303711,0.033729225397109985
1771082076457894100,9.34589404296875,-0.05481719970703125,-0.007628679275512695,0.07316958904266357
1771082076467835100,9.355835205078124,-0.08420085906982422,-0.02552962303161621,0.09850370138883591
1771082076477776400,9.3657763671875,-0.11075687408447266,-0.021838903427124023,0.08376964926719666
1771082076487717600,9.375717529296875,-0.16514015197753906,-0.003981471061706543,0.06941953301429749
1771082076497658600,9.38565869140625,-0.2563505172729492,0.018589258193969727,0.07829084992408752
1771082076507600000,9.395599853515625,-0.3179607391357422,0.020398497581481934,0.09040312469005585
1771082076517540900,9.405540771484375,-0.2870206832885742,0.02828812599182129,0.1143425777554512
1771082076527482000,9.415482177734376,-0.0708160400390625,0.048821330070495605,0.11994528025388718
1771082076537423400,9.42542333984375,0.1417379379272461,0.00575101375579834,0.1100081130862236
1771082076547364400,9.4353642578125,0.25901126861572266,-0.05573117733001709,0.08111867308616638
1771082076557305600,9.4453056640625,0.24978065490722656,-0.09845125675201416,0.03096240758895874
1771082076567246600,9.45524658203125,0.22207355499267578,-0.08260023593902588,-0.026596970856189728
1771082076577187800,9.465187744140625,0.11025524139404297,-0.09145998954772949,-0.08261384069919586
1771082076587129000,9.475129150390625,-0.0043163299560546875,-0.0841987133026123,-0.1007821261882782
1771082076597070000,9.485070068359375,-0.06983280181884766,-0.04450523853302002,-0.05242542922496796
1771082076607011300,9.49501123046875,-0.025997161865234375,0.025232553482055664,0.009608335793018341
1771082076626893600,9.5148935546875,0.09869098663330078,0.01704084873199463,0.010423466563224792
1771082076646775800,9.53477587890625,0.016115188598632812,-0.02919018268585205,-0.032040536403656006
1771082076666658000,9.554657958984375,-0.1145486831665039,0.04096400737762451,-0.0036725401878356934
1771082076676599300,9.564599365234375,-0.05145549774169922,0.059188127517700195,0.020933911204338074
1771082076686540500,9.57454052734375,0.02708148956298828,0.04875969886779785,0.03046395257115364
1771082076696481500,9.5844814453125,0.05492591857910156,0.019373536109924316,0.039594002068042755
1771082076706422800,9.5944228515625,0.12472152709960938,0.004404783248901367,0.02261354774236679
1771082076716363800,9.60436376953125,0.1675243377685547,-0.008258461952209473,0.009307704865932465
1771082076726305000,9.614304931640625,0.1861429214477539,-0.011594414710998535,0.025953955948352814
1771082076736246000,9.62424609375,0.1621999740600586,-0.006057381629943848,0.029496267437934875
1771082076746187000,9.63418701171875,0.051712989807128906,-0.006119251251220703,0.003312908113002777
1771082076756128300,9.644128173828125,-0.10630130767822266,-0.004222750663757324,-0.009248696267604828
1771082076766069200,9.6540693359375,-0.14168643951416016,0.005006670951843262,-0.04446874558925629
1771082076776010500,9.664010498046874,-0.11072444915771484,-0.003954768180847168,-0.05160776525735855
1771082076785951500,9.673951416015624,-0.063995361328125,-0.018833160400390625,-0.04220610111951828
1771082076795892500,9.683892578125,0.010095596313476562,-0.046991825103759766,-0.013566620647907257
1771082076805833700,9.693833740234375,0.09000682830810547,-0.041622042655944824,0.02303694188594818
1771082076815774700,9.703774658203125,0.02746295928955078,-0.025166749954223633,0.00899285078048706
1771082076825716000,9.713716064453125,-0.12574386596679688,-0.016644597053527832,-0.0030031949281692505
1771082076835657000,9.723656982421875,-0.15631389617919922,-0.010815978050231934,-0.03383687883615494
1771082076845598000,9.733597900390626,-0.07100963592529297,-0.03108036518096924,-0.0705423429608345
1771082076855539200,9.743539306640624,-0.013060569763183594,-0.07670855522155762,-0.07580876350402832
1771082076865480200,9.753480224609374,-0.024399757385253906,-0.09303081035614014,-0.0634273961186409
1771082076875421400,9.76342138671875,-0.061593055725097656,-0.06355369091033936,-0.06423945724964142
1771082076885362400,9.773362548828125,-0.09360694885253906,-0.03141498565673828,-0.05011395364999771
1771082076895303400,9.783303466796875,-0.1064157485961914,-0.029619574546813965,-0.07213728129863739
1771082076905244700,9.79324462890625,-0.0178070068359375,-0.07013475894927979,-0.10436715930700302
1771082076915185700,9.803185546875,0.088287353515625,-0.09184575080871582,-0.09707175940275192
1771082076925127000,9.813126953125,0.14813613891601562,-0.09801506996154785,-0.04522509127855301
1771082076935068000,9.82306787109375,0.11548900604248047,-0.08920037746429443,-0.026743143796920776
1771082076945009000,9.8330087890625,-0.03176689147949219,-0.055635929107666016,-0.028699323534965515
1771082076954950100,9.8429501953125,-0.21427631378173828,-0.02478623390197754,-0.023579895496368408
1771082076964891100,9.85289111328125,-0.2974843978881836,0.0327458381652832,-0.007852397859096527
1771082076974832400,9.862832275390625,-0.29724693298339844,0.07924675941467285,0.00442051887512207
1771082076984773400,9.8727734375,-0.21964073181152344,0.0606539249420166,0.01592959463596344
1771082076994714400,9.88271435546875,-0.10586166381835938,0.029245734214782715,0.038619231432676315
1771082077004655600,9.892655517578126,0.008316993713378906,0.02456200122833252,0.03966069966554642
1771082077014596600,9.9025966796875,0.1347179412841797,0.0058345794677734375,-0.006602652370929718
1771082077024537900,9.912537841796874,0.26140785217285156,-0.052802443504333496,-0.0591592863202095
1771082077034478800,9.922478759765625,0.3955535888671875,-0.10410130023956299,-0.10250066220760345
1771082077044419800,9.932419921875,0.3699769973754883,-0.12749910354614258,-0.11500845849514008
1771082077054361000,9.942361083984375,0.2861328125,-0.10187268257141113,-0.11942151188850403
1771082077064302000,9.952302001953125,0.2862224578857422,-0.07031595706939697,-0.13812212646007538
1771082077074243300,9.962243408203125,0.27471923828125,-0.07551014423370361,-0.13739041984081268
1771082077084184600,9.9721845703125,0.1977224349975586,-0.06534874439239502,-0.09428778290748596
1771082077094125600,9.98212548828125,0.11045265197753906,-0.025858402252197266,-0.019160769879817963
1771082077104066800,9.99206689453125,-0.010486602783203125,0.02609884738922119,0.047149330377578735
1771082077114008000,10.002008056640625,-0.12466907501220703,0.06757986545562744,0.08076295256614685
1771082077123949000,10.011948974609375,-0.17578411102294922,0.07091081142425537,0.09639106690883636
1771082077133890300,10.021890380859375,-0.19084644317626953,0.04418611526489258,0.08356470614671707
1771082077143831300,10.031831298828125,-0.24118900299072266,0.04019796848297119,0.0917600691318512
1771082077153772500,10.0417724609375,-0.2132244110107422,0.056215643882751465,0.09195607900619507
1771082077163713800,10.0517138671875,-0.1600637435913086,0.056688904762268066,0.08771948516368866
1771082077173654800,10.06165478515625,-0.11510467529296875,0.04668247699737549,0.11950668692588806
1771082077183596000,10.071595947265624,-0.042838096618652344,0.044907331466674805,0.1513623595237732
1771082077193537000,10.081537109375,0.035251617431640625,0.036301493644714355,0.14795081317424774
1771082077203478300,10.091478271484375,0.07205772399902344,0.03235280513763428,0.13306304812431335
1771082077213419500,10.10141943359375,0.1319103240966797,-0.0027322769165039062,0.09446070343255997
1771082077223360500,10.111360595703125,0.19567298889160156,-0.05706465244293213,0.05690064653754234
1771082077233301800,10.1213017578125,0.1456289291381836,-0.06705951690673828,0.05827455222606659
1771082077243242800,10.13124267578125,0.07538986206054688,-0.032955169677734375,0.06688815355300903
1771082077253184000,10.14118408203125,0.0111541748046875,-0.004727005958557129,0.05486855283379555
1771082077263125200,10.151125244140625,-0.14143085479736328,-0.005419611930847168,0.04839669540524483
1771082077273066200,10.161066162109375,-0.2986564636230469,-0.0007909536361694336,0.04157295078039169
1771082077283007500,10.171007568359375,-0.34052467346191406,0.04743766784667969,0.061278149485588074
1771082077292948500,10.180948486328125,-0.2596158981323242,0.07537257671356201,0.04907243698835373
1771082077312831000,10.2008310546875,-0.0439910888671875,-0.013959407806396484,-0.005990695208311081
1771082077332713200,10.220713134765624,0.12618160247802734,-0.10203492641448975,-0.08087813854217529
1771082077342654200,10.230654296875,0.1473245620727539,-0.09651327133178711,-0.09035585820674896
1771082077352595500,10.240595458984375,0.18947887420654297,-0.07314884662628174,-0.07234098017215729
1771082077362536700,10.25053662109375,0.25704288482666016,-0.034792304039001465,-0.01773565635085106
1771082077382419000,10.2704189453125,0.24160099029541016,-0.026650190353393555,0.015938540920615196
1771082077402301200,10.29030126953125,0.05024909973144531,-0.019982099533081055,-0.03155462071299553
1771082077422183400,10.310183349609375,-0.14878177642822266,-0.038881778717041016,-0.05451364815235138
1771082077442065700,10.330065673828125,-0.06941604614257812,0.00040650367736816406,-0.012732014060020447
1771082077461948200,10.3499482421875,0.010301589965820312,-0.006461739540100098,0.04122195765376091
1771082077471889200,10.35988916015625,0.022060394287109375,-0.011891603469848633,0.017856627702713013
1771082077491771400,10.379771484375,0.02700519561767578,-0.028163671493530273,0.023210443556308746
1771082077501712600,10.389712646484375,0.04575061798095703,-0.02952122688293457,0.01664535142481327
1771082077511654000,10.39965380859375,0.04303550720214844,-0.04989063739776611,-0.005811236798763275
1771082077521595000,10.409594970703125,0.035698890686035156,-0.07247507572174072,-0.027534114196896553
1771082077531536100,10.4195361328125,0.0050029754638671875,-0.05731511116027832,-0.03211526572704315
1771082077541477000,10.42947705078125,-0.07695484161376953,-0.03779911994934082,-0.02456914260983467
1771082077551418400,10.43941845703125,-0.17885684967041016,-0.022717714309692383,-0.005876438692212105
1771082077561359600,10.449359619140624,-0.18277740478515625,-0.0066890716552734375,0.006439410150051117
1771082077571300600,10.459300537109375,-0.06440925598144531,-0.011117935180664062,0.025075029581785202
1771082077581241900,10.469241943359375,0.01900768280029297,-0.022436022758483887,0.034601472318172455
1771082077601124000,10.4891240234375,0.08843040466308594,-0.07782864570617676,0.003925703465938568
1771082077611065300,10.4990654296875,0.037682533264160156,-0.08442282676696777,-0.035317011177539825
1771082077630947600,10.518947509765624,-0.1453561782836914,-0.07635045051574707,-0.11437247693538666
1771082077640888600,10.528888671875,-0.18058013916015625,-0.023416638374328613,-0.09077025949954987
1771082077650829800,10.538829833984375,-0.11647987365722656,0.015207409858703613,-0.027276916429400444
1771082077660771000,10.54877099609375,0.06179332733154297,0.01611781120300293,0.03895058482885361
1771082077670712000,10.558712158203125,0.26770496368408203,-0.008883118629455566,0.08428053557872772
1771082077690594300,10.57859423828125,0.2673463821411133,-0.04174017906188965,0.04857045039534569
1771082077700535600,10.58853564453125,0.1407146453857422,-0.06346142292022705,-0.008413701318204403
1771082077710476800,10.598476806640624,0.03740215301513672,-0.09198379516601562,-0.1019962728023529
1771082077720417800,10.608417724609374,-0.017080307006835938,-0.10129773616790771,-0.16650573909282684
1771082077740300000,10.628300048828125,-0.07596206665039062,-0.036554574966430664,-0.07699520885944366
1771082077750241300,10.6382412109375,-0.06487655639648438,-0.01678931713104248,-0.04487941414117813
1771082077760182500,10.6481826171875,-0.02342987060546875,-0.025305509567260742,-0.013358937576413155
1771082077770123500,10.65812353515625,0.010223388671875,0.0018347501754760742,0.03898429870605469
1771082077790005800,10.678005859375,0.07085990905761719,0.032965779304504395,0.12164322286844254
1771082077799947000,10.687947021484375,0.04429054260253906,0.02753472328186035,0.15485736727714539
1771082077809888000,10.697887939453125,-0.042987823486328125,0.03837573528289795,0.1362827867269516
1771082077819829200,10.707829345703125,-0.12653636932373047,0.03531026840209961,0.08733271807432175
1771082077839711200,10.727711181640625,-0.1612987518310547,-0.026551127433776855,0.02559044025838375
1771082077849652500,10.737652587890626,-0.05739021301269531,-0.00955963134765625,0.04686085879802704
1771082077859593500,10.747593505859374,0.0729990005493164,-0.016195178031921387,0.06330804526805878
1771082077879475700,10.767475830078125,0.1943826675415039,-0.019806504249572754,0.08338858932256699
1771082077899358000,10.78735791015625,-0.047341346740722656,-0.04521965980529785,0.00467030331492424
1771082077909299000,10.797298828125,-0.18969440460205078,-0.06327259540557861,-0.07547983527183533
1771082077919240200,10.807240234375,-0.25459861755371094,-0.0797264575958252,-0.12644332647323608
1771082077939122200,10.8271220703125,-0.16640281677246094,-0.025033950805664062,-0.02244269661605358
1771082077949063700,10.837063720703124,-0.07896995544433594,0.008811116218566895,0.03624098747968674
1771082077959005000,10.8470048828125,-0.05644035339355469,0.022660374641418457,0.05107389762997627
1771082077978887000,10.866886962890625,0.011262893676757812,0.004957675933837891,-0.025229433551430702
1771082077998769200,10.88676904296875,0.16671371459960938,-0.08244192600250244,-0.09644997864961624
1771082078018651400,10.9066513671875,0.2448282241821289,-0.09201371669769287,-0.10778024792671204
1771082078038533600,10.92653369140625,0.19734477996826172,-0.03823423385620117,-0.05396833270788193
1771082078048474600,10.936474609375,0.13347530364990234,-0.0430750846862793,-0.03873448446393013
1771082078068356900,10.95635693359375,-0.00960540771484375,-0.04819965362548828,-0.06471732258796692
1771082078088239000,10.976239013671876,-0.09502983093261719,-0.029390811920166016,-0.02221844159066677
1771082078098180000,10.98618017578125,-0.1309833526611328,-0.005988717079162598,0.022371046245098114
1771082078108121300,10.996121337890624,-0.1287708282470703,0.026939749717712402,0.06575863063335419
1771082078128003300,11.01600341796875,-0.0546112060546875,0.055014848709106445,0.08026237040758133
1771082078147885600,11.035885498046875,-0.06143760681152344,-0.03765714168548584,-0.008294629864394665
1771082078167767800,11.055767822265626,-0.07563400268554688,-0.05692696571350098,-0.018983032554388046
1771082078177709000,11.065708984375,-0.02486705780029297,-0.030411124229431152,0.008176255971193314
1771082078187650000,11.075650146484374,0.07213878631591797,0.0097883939743042,0.0703764259815216
1771082078197591300,11.08559130859375,0.0828561782836914,0.039502501487731934,0.1444682776927948
1771082078207532300,11.0955322265625,0.027555465698242188,0.08244895935058594,0.1615438163280487
1771082078217473500,11.1054736328125,-0.04801177978515625,0.06582272052764893,0.11972162127494812
1771082078227414800,11.115414794921875,-0.08237648010253906,0.016911983489990234,0.052044887095689774
1771082078247297000,11.135297119140626,0.03285408020019531,-0.07481741905212402,-0.09085024148225784
1771082078257238000,11.145238037109374,0.07943916320800781,-0.1091148853302002,-0.05668238550424576
1771082078267179300,11.15517919921875,0.03117847442626953,-0.10331606864929199,-0.04585238918662071
1771082078287061500,11.1750615234375,-0.18210601806640625,-0.004002571105957031,-0.0015941625460982323
1771082078297002800,11.185002685546875,-0.22132110595703125,0.08019042015075684,0.053151216357946396
1771082078316885000,11.204885009765626,-0.04753398895263672,0.059978365898132324,0.06633511930704117
1771082078336767200,11.224767333984374,0.2512397766113281,-0.06566190719604492,-0.015242395922541618
1771082078356649500,11.2446494140625,0.26036930084228516,-0.0971454381942749,-0.11184877157211304
1771082078366590700,11.2545908203125,0.21592998504638672,-0.11399352550506592,-0.1430538296699524
1771082078386473000,11.274472900390625,0.09261512756347656,-0.08016753196716309,-0.17194539308547974
1771082078406355200,11.294355224609374,0.0556182861328125,-0.04488182067871094,-0.09287203103303909
1771082078426237700,11.31423779296875,-0.021310806274414062,-0.03261840343475342,-0.045106641948223114
1771082078446120000,11.334119873046875,-0.026055335998535156,0.012108325958251953,0.03440720587968826
1771082078456061000,11.34406103515625,0.071319580078125,0.024007081985473633,0.08385050296783447
1771082078466002200,11.354002197265626,0.09644317626953125,0.01922762393951416,0.11050412058830261
1771082078475943400,11.363943359375,0.038788795471191406,0.016682147979736328,0.07899647951126099
1771082078495825700,11.38382568359375,-0.12720108032226562,-0.03639531135559082,-0.01901448890566826
1771082078505766700,11.3937666015625,-0.14614105224609375,-0.029354572296142578,-0.04150105640292168
1771082078515708000,11.4037080078125,-0.10369682312011719,-0.0076073408126831055,0.013677157461643219
1771082078525649200,11.413649169921875,-0.05254173278808594,0.011423110961914062,0.07452061772346497
1771082078545531400,11.433531494140626,0.01941967010498047,0.04412233829498291,0.1385730803012848
1771082078555472400,11.443472412109376,-0.011155128479003906,0.025180339813232422,0.09880900382995605
1771082078565413600,11.45341357421875,-0.06945037841796875,-0.019443392753601074,0.05097102373838425
1771082078575355000,11.46335498046875,-0.12691879272460938,-0.027311086654663086,-0.00047919806092977524
1771082078585296000,11.4732958984375,-0.13890361785888672,-0.04346776008605957,-0.04367242753505707
1771082078595237000,11.483237060546875,-0.12972545623779297,-0.07003021240234375,-0.07653304934501648
1771082078605178000,11.49317822265625,-0.09490489959716797,-0.05798304080963135,-0.06026767939329147
1771082078615119400,11.503119384765625,-0.048831939697265625,-0.022892236709594727,-0.021948905661702156
1771082078625060600,11.513060546875,0.0013065338134765625,0.006307482719421387,0.028583284467458725
1771082078635001600,11.523001708984374,0.04131603240966797,0.0226515531539917,0.06540951877832413
1771082078644942800,11.53294287109375,0.13482952117919922,0.022143006324768066,0.10174483805894852
1771082078654883800,11.5428837890625,0.16086292266845703,0.021641969680786133,0.11307356506586075
1771082078674766300,11.562766357421875,0.1603994369506836,-0.004898548126220703,0.020075244829058647
1771082078684707300,11.572707275390625,0.13887405395507812,-0.07302629947662354,-0.057573188096284866
1771082078694648600,11.582648681640626,0.0707254409790039,-0.10990917682647705,-0.1221613734960556
1771082078714530800,11.60253076171875,-0.014809608459472656,-0.059155821800231934,-0.05948447063565254
1771082078724472000,11.61247216796875,-0.028354644775390625,0.008478760719299316,0.008946158923208714
1771082078734413000,11.6224130859375,-0.02754688262939453,0.030254602432250977,0.056785933673381805
1771082078744354300,11.632354248046875,0.013251304626464844,0.021161317825317383,0.09000462293624878
1771082078754295300,11.64229541015625,0.018033981323242188,0.01938176155090332,0.07871801406145096
1771082078764236500,11.652236572265625,-0.007890701293945312,0.02008533477783203,0.06842023134231567
1771082078774177500,11.662177490234376,-0.038132667541503906,0.006850481033325195,0.037785980850458145
1771082078784118800,11.672118896484376,-0.07503604888916016,-0.008019566535949707,0.007741418667137623
1771082078794059800,11.682059814453124,-0.05963325500488281,-0.019788622856140137,-0.0057622711174190044
1771082078804001000,11.6920009765625,-0.02563190460205078,-0.01968967914581299,-0.0029010428115725517
1771082078813942000,11.70194189453125,-0.013323783874511719,-0.01753687858581543,0.011165154166519642
1771082078833824300,11.72182421875,0.02242279052734375,-0.037833571434020996,-0.002549929078668356
1771082078843765200,11.73176513671875,-0.015324592590332031,-0.05040085315704346,-0.02893172949552536
1771082078853706500,11.74170654296875,-0.012460708618164062,-0.02959883213043213,-0.012857189401984215
1771082078863647500,11.7516474609375,0.0256500244140625,-0.020815134048461914,0.012624315917491913
1771082078873588500,11.76158837890625,-0.014545440673828125,-0.005214691162109375,0.05701366811990738
1771082078883529700,11.77152978515625,-0.05646705627441406,0.0173872709274292,0.07949881255626678
1771082078893470700,11.781470703125,-0.05539512634277344,0.00940406322479248,0.04505157470703125
1771082078903412000,11.791411865234375,-0.0379638671875,-0.021491408348083496,0.01349527109414339
1771082078913353000,11.80135302734375,0.007325172424316406,-0.051373958587646484,-0.029128096997737885
1771082078923294000,11.8112939453125,0.08954715728759766,-0.09498298168182373,-0.060930535197257996
1771082078933235200,11.821235107421876,0.055161476135253906,-0.1125643253326416,-0.07479223608970642
1771082078943176200,11.83117626953125,-0.051468849182128906,-0.09768879413604736,-0.06707962602376938
1771082078953117400,11.841117431640624,-0.1986379623413086,-0.029210805892944336,-0.018296612426638603
1771082078963058400,11.851058349609374,-0.31755733489990234,0.0527498722076416,0.025389069691300392
1771082078972999400,11.86099951171875,-0.29119014739990234,0.10658562183380127,0.09216202050447464
1771082078982940700,11.870940673828125,-0.08428573608398438,0.09980165958404541,0.10733816772699356
1771082078992881700,11.880881591796875,0.1519451141357422,0.05870795249938965,0.09032420814037323
1771082079002823000,11.890822998046875,0.32066917419433594,-0.02878868579864502,0.03374670445919037
1771082079012764000,11.900763916015626,0.35014915466308594,-0.1083599328994751,-0.0498867966234684
1771082079022705000,11.910704833984376,0.29694080352783203,-0.16640841960906982,-0.14713647961616516
1771082079032646100,11.920646240234374,0.22605228424072266,-0.18711113929748535,-0.2096550613641739
1771082079042587100,11.930587158203124,0.1071329116821289,-0.15441417694091797,-0.18979696929454803
1771082079052528400,11.9405283203125,0.025716781616210938,-0.06911039352416992,-0.06463128328323364
1771082079072410400,11.960410400390625,0.12886524200439453,0.03681206703186035,0.09772144258022308
1771082079082351600,11.9703515625,0.1296548843383789,-0.009003400802612305,0.08654654026031494
1771082079092292600,11.980292724609376,0.05498695373535156,-0.07945442199707031,0.014726843684911728
1771082079102233900,11.99023388671875,-0.09154415130615234,-0.10104632377624512,-0.04681983217597008
1771082079112174800,12.0001748046875,-0.2711925506591797,-0.07870316505432129,-0.04365832731127739
1771082079132057000,12.02005712890625,-0.17755508422851562,-0.01359570026397705,-0.054314516484737396
1771082079141998000,12.029998046875,-0.07120513916015625,-0.031238555908203125,-0.04652233049273491
1771082079151939300,12.039939208984375,-0.018258094787597656,-0.054093122482299805,-0.029782628640532494
1771082079161880300,12.04988037109375,-0.060263633728027344,-0.05116760730743408,-0.030001157894730568
1771082079171821300,12.0598212890625,-0.1086740493774414,-0.026903152465820312,-0.05198466405272484
1771082079181762600,12.069762451171876,-0.06927108764648438,0.004517674446105957,-0.034378036856651306
1771082079191703600,12.07970361328125,-0.018793106079101562,0.019134044647216797,0.015813618898391724
1771082079201644800,12.089644775390624,0.02146625518798828,0.042725324630737305,0.09787125140428543
1771082079211585800,12.099585693359375,0.058661460876464844,0.06847763061523438,0.14311185479164124
1771082079221527000,12.109527099609375,0.13998985290527344,0.0466151237487793,0.12253888696432114
1771082079231468300,12.11946826171875,0.1494140625,0.022364020347595215,0.08493012934923172
1771082079241409300,12.1294091796875,0.13759422302246094,0.0050820112228393555,0.05107903480529785
1771082079251350500,12.1393505859375,0.06959056854248047,0.0016158819198608398,0.0394587367773056
1771082079261291500,12.14929150390625,-0.0018854141235351562,0.01654374599456787,0.04886021837592125
1771082079271232800,12.159232666015624,-0.027374267578125,0.049758076667785645,0.05281879007816315
1771082079281174000,12.169174072265625,-0.07825279235839844,0.07731175422668457,0.06810463964939117
1771082079291115000,12.179114990234375,-0.12357234954833984,0.07850873470306396,0.09664639830589294
1771082079301056300,12.18905615234375,-0.11411094665527344,0.10382580757141113,0.1289888620376587
1771082079310997200,12.198997314453125,-0.09549236297607422,0.10096490383148193,0.14246417582035065
1771082079320938500,12.2089384765625,-0.08670520782470703,0.08922934532165527,0.12304146587848663
1771082079330879700,12.218879638671876,-0.04989147186279297,0.06866753101348877,0.08928640186786652
1771082079340820700,12.22882080078125,0.03579139709472656,0.024703621864318848,0.05346665158867836
1771082079350762000,12.238761962890624,0.08479499816894531,-0.014120101928710938,0.004201482981443405
1771082079360703000,12.248702880859375,0.12364864349365234,-0.07153046131134033,-0.03480459377169609
1771082079370644200,12.258644287109375,0.20662593841552734,-0.09286737442016602,-0.07286648452281952
1771082079380585500,12.26858544921875,0.22714996337890625,-0.09335529804229736,-0.07175425440073013
1771082079390526500,12.2785263671875,0.1862630844116211,-0.09217667579650879,-0.048579245805740356
1771082079410408700,12.29840869140625,0.0504150390625,-0.06975531578063965,-0.027373893186450005
1771082079430291200,12.318291259765624,-0.12053871154785156,-0.08726739883422852,-0.07321102917194366
1771082079450173400,12.33817333984375,-0.17142486572265625,-0.08774423599243164,-0.10883890092372894
1771082079460114400,12.348114501953125,-0.12143230438232422,-0.11005866527557373,-0.13805879652500153
1771082079479997000,12.367996826171876,-0.01739501953125,-0.14257705211639404,-0.13901013135910034
1771082079499879200,12.387879150390624,0.02227306365966797,-0.11175763607025146,-0.09042900800704956
1771082079519761400,12.407761474609375,-0.0059452056884765625,-0.0743856430053711,-0.08934951573610306
1771082079529702700,12.41770263671875,0.034267425537109375,-0.06886577606201172,-0.08250971883535385
1771082079539643600,12.4276435546875,0.07851791381835938,-0.061083436012268066,-0.06622973829507828
1771082079549585000,12.4375849609375,0.07492446899414062,-0.05568540096282959,-0.04956550896167755
1771082079559526000,12.44752587890625,0.06903553009033203,-0.05979442596435547,-0.04684823006391525
1771082079569467100,12.457467041015626,0.056201934814453125,-0.06393444538116455,-0.05345620587468147
1771082079579408400,12.467408447265624,0.08837699890136719,-0.049469709396362305,-0.03936678171157837
1771082079589349400,12.477349365234375,0.12493133544921875,-0.036242127418518066,-0.018432578071951866
1771082079599290600,12.48729052734375,0.048035621643066406,-0.03815817832946777,-0.006708535365760326
1771082079609231600,12.497231689453125,-0.06280899047851562,-0.014543414115905762,0.024052416905760765
1771082079619172900,12.5071728515625,-0.17184734344482422,0.05831778049468994,0.05615587532520294
1771082079629114000,12.517114013671875,-0.2604408264160156,0.1262531280517578,0.09646837413311005
1771082079639055000,12.52705517578125,-0.25138282775878906,0.16885137557983398,0.13522176444530487
1771082079648996400,12.536996337890624,-0.11802864074707031,0.14641022682189941,0.12354253232479095
1771082079658937300,12.546937255859374,0.05993843078613281,0.09728384017944336,0.09386734664440155
1771082079668878600,12.556878662109375,0.1901836395263672,0.05849170684814453,0.06843844056129456
1771082079678819800,12.56681982421875,0.24539852142333984,0.036229491233825684,0.030464639887213707
1771082079688760800,12.5767607421875,0.25043773651123047,0.015796661376953125,0.007689615711569786
1771082079698702000,12.5867021484375,0.24382972717285156,-0.0029363632202148438,-0.0358361154794693
1771082079708643000,12.59664306640625,0.24227142333984375,-0.02245199680328369,-0.07209658622741699
1771082079718584300,12.606584228515626,0.2691774368286133,-0.028412580490112305,-0.0845753401517868
1771082079728525300,12.616525390625,0.26523780822753906,-0.03997921943664551,-0.08935108780860901
1771082079738466600,12.626466552734374,0.18852519989013672,-0.06382369995117188,-0.057838790118694305
1771082079758348500,12.6463486328125,0.04852485656738281,0.007902860641479492,0.00918668881058693
1771082079778230800,12.666230712890625,-0.10076141357421875,0.07164239883422852,0.14060468971729279
1771082079798113000,12.686113037109376,-0.08389568328857422,0.03991341590881348,0.1293664276599884
1771082079808054000,12.696053955078124,-0.11942005157470703,-0.030195236206054688,0.06489956378936768
1771082079817995300,12.705995361328124,-0.1357288360595703,-0.06988525390625,0.008905249647796154
1771082079837877500,12.72587744140625,-0.11200618743896484,-0.014249086380004883,0.04975388944149017
1771082079857759500,12.745759521484375,-0.05587482452392578,-0.0057430267333984375,0.10876353830099106
1771082079877641700,12.765641845703126,-0.0914459228515625,-0.07255125045776367,0.03394550457596779
1771082079897524000,12.78552392578125,-0.02454662322998047,-0.09399843215942383,-0.01346488855779171
1771082079917406200,12.80540625,0.016600608825683594,-0.09294462203979492,-0.04328199848532677
1771082079937288400,12.825288330078125,-0.13261699676513672,-0.09781694412231445,-0.07548844814300537
1771082079957170400,12.84517041015625,-0.1629953384399414,-0.06488299369812012,-0.0694529116153717
1771082079967111700,12.855111572265624,-0.18377304077148438,-0.01930069923400879,-0.02355239726603031
1771082079986994000,12.874993896484375,-0.09349918365478516,0.0204160213470459,0.040750209242105484
1771082079996935000,12.884934814453125,-0.05197429656982422,-0.014971256256103516,0.011961759068071842
1771082080006876000,12.8948759765625,-0.02299785614013672,-0.030537128448486328,0.002828212222084403
1771082080016817200,12.904817138671875,0.012388229370117188,-0.02150583267211914,0.003980803303420544
1771082080026758100,12.914758056640625,0.05645465850830078,-0.04018068313598633,-0.045445766299963
1771082080036699400,12.924699462890626,0.1114950180053711,-0.08414268493652344,-0.08601956069469452
1771082080046640400,12.934640380859374,0.09978389739990234,-0.08539199829101562,-0.07367374747991562
1771082080056581400,12.944581298828124,0.08608150482177734,-0.06151866912841797,-0.06650395691394806
1771082080076463600,12.964463623046875,0.053363800048828125,-0.024057865142822266,-0.03706870228052139
1771082080086404600,12.974404541015625,0.05729484558105469,-0.021831512451171875,-0.02316475100815296
1771082080096345900,12.984345947265625,0.02353382110595703,-0.015132665634155273,0.019455313682556152
1771082080106286800,12.994286865234375,0.0020227432250976562,-0.003438711166381836,0.03614882752299309
1771082080116228000,13.00422802734375,0.020873069763183594,-0.013028621673583984,0.0021049045026302338
1771082080136110000,13.024110107421874,-0.010366439819335938,-0.07300758361816406,-0.04886626452207565
1771082080155992300,13.043992431640625,0.029595375061035156,0.040242671966552734,-0.05802491307258606
1771082080175874600,13.06387451171875,0.0933074951171875,-0.06523346900939941,-0.011270483955740929
1771082080195756800,13.0837568359375,0.03378868103027344,-0.012500524520874023,-0.03408023342490196
1771082080205697800,13.09369775390625,-0.07016372680664062,0.0009002685546875,0.014545667916536331
1771082080215639000,13.10363916015625,-0.1347818374633789,0.05439949035644531,0.054025158286094666
1771082080225580000,13.113580078125,-0.0760488510131836,0.09593391418457031,0.09894093126058578
1771082080235521300,13.123521240234375,-0.0066280364990234375,0.05016589164733887,0.07022987306118011
1771082080255403500,13.143403564453125,0.07495403289794922,0.00015354156494140625,0.06439844518899918
1771082080275285800,13.16328564453125,0.14020919799804688,-0.18865478038787842,-0.1423603594303131
1771082080295168300,13.183168212890624,-0.20108890533447266,0.1497194766998291,0.18163520097732544
1771082080305109200,13.193109130859375,-0.27816200256347656,0.2102832794189453,0.2237234115600586
1771082080324991500,13.212991455078125,0.03447437286376953,0.1579892635345459,0.11616861075162888
1771082080344874000,13.2328740234375,0.22145462036132812,0.0059680938720703125,0.01598026044666767
1771082080354815000,13.24281494140625,0.24591445922851562,-0.05487418174743652,-0.015824824571609497
1771082080364756200,13.252756103515624,0.2324676513671875,-0.07783055305480957,-0.05077684670686722
1771082080374697200,13.262697265625,0.1817035675048828,-0.08452272415161133,-0.10105511546134949
1771082080394579700,13.282579833984375,0.12039566040039062,-0.08151841163635254,-0.13532133400440216
1771082080404520700,13.292520751953125,0.07639884948730469,-0.05844879150390625,-0.11343436688184738
1771082080414462000,13.3024619140625,0.014406204223632812,-0.050389766693115234,-0.07804884016513824
1771082080434344200,13.32234423828125,-0.08962821960449219,-0.024549484252929688,-0.04423641413450241
1771082080444285400,13.332285400390624,-0.14389896392822266,0.00529026985168457,0.010656429454684258
1771082080454226400,13.342226318359375,-0.23041629791259766,0.037886857986450195,0.08247769623994827
1771082080464167700,13.352167724609375,-0.16982173919677734,0.050150394439697266,0.10736575722694397
1771082080484050000,13.3720498046875,0.1178293228149414,-0.004532814025878906,0.10012955218553543
1771082080493991200,13.3819912109375,0.12982940673828125,-0.04371523857116699,0.049338020384311676
1771082080503932200,13.39193212890625,0.07108592987060547,-0.04261946678161621,0.004741457756608725
1771082080513873400,13.401873291015624,0.07930469512939453,-0.03477811813354492,-0.03727635741233826
1771082080523814400,13.411814453125,0.08517837524414062,-0.05130791664123535,-0.05040544271469116
1771082080533755600,13.421755615234375,0.036932945251464844,-0.0846407413482666,-0.046841368079185486
1771082080543697000,13.43169677734375,-0.03863334655761719,-0.0756385326385498,-0.034061282873153687
1771082080553638000,13.441637939453125,-0.09646034240722656,-0.04559755325317383,0.013300994411110878
1771082080563579100,13.4515791015625,-0.09450912475585938,0.0006225109100341797,0.047568026930093765
1771082080573520400,13.461520263671876,-0.05492210388183594,0.013113260269165039,0.04565667733550072
1771082080583461400,13.47146142578125,-0.04189109802246094,-0.009917974472045898,0.020339831709861755
1771082080593402600,13.481402587890624,-0.04555702209472656,-0.05139923095703125,-0.002137270290404558
1771082080603343600,13.491343505859374,-0.06332874298095703,-0.07551002502441406,-0.056666165590286255
1771082080613284900,13.501284912109375,-0.1279754638671875,-0.07527780532836914,-0.07701261341571808
1771082080623226000,13.51122607421875,-0.15644168853759766,-0.06699228286743164,-0.06434332579374313
1771082080633167000,13.5211669921875,-0.14224720001220703,-0.03205227851867676,-0.01960611715912819
1771082080643108400,13.5311083984375,-0.0672464370727539,0.010163307189941406,0.021257244050502777
1771082080653049300,13.54104931640625,0.05115222930908203,0.03559398651123047,0.056339677423238754
1771082080662990600,13.550990478515626,0.17232894897460938,0.01802515983581543,0.051061272621154785
1771082080672931600,13.560931640625,0.27982044219970703,-0.030353546142578125,0.03529838100075722
1771082080682872800,13.570872802734375,0.27747535705566406,-0.06499385833740234,-0.01340549997985363
1771082080692813800,13.580813720703125,0.15997791290283203,-0.09279060363769531,-0.05324403569102287
1771082080702754800,13.5907548828125,0.05627250671386719,-0.06627440452575684,-0.08837011456489563
1771082080712696000,13.600696044921875,0.02023792266845703,-0.05442619323730469,-0.09342710673809052
1771082080722637000,13.610636962890625,0.038951873779296875,-0.03335881233215332,-0.052436258643865585
1771082080732578000,13.620578125,0.09039688110351562,-0.02481222152709961,0.013228382915258408
1771082080742519300,13.630519287109376,0.11521434783935547,-0.01700592041015625,0.04074833169579506
1771082080752460300,13.640460205078124,0.05261707305908203,-0.014536619186401367,0.04536811262369156
1771082080762401500,13.650401611328125,-0.06543922424316406,-0.012108325958251953,0.036424919962882996
1771082080772342500,13.660342529296875,-0.1510477066040039,-0.018539905548095703,0.001832632813602686
1771082080782283500,13.670283447265625,-0.20246124267578125,0.0019297599792480469,0.002668903209269047
1771082080792224800,13.680224853515625,-0.1826000213623047,0.013637065887451172,0.0050484854727983475
1771082080802165800,13.690165771484375,-0.11140251159667969,-0.0072133541107177734,0.042524851858615875
1771082080812107000,13.70010693359375,-0.07668495178222656,-0.004272937774658203,0.06532926857471466
1771082080831989000,13.719989013671874,-0.06264495849609375,0.03351640701293945,0.09270596504211426
1771082080841930200,13.72993017578125,-0.07103347778320312,0.028317928314208984,0.07646297663450241
1771082080851871200,13.739871337890625,-0.07692813873291016,0.009080171585083008,0.04600938409566879
1771082080861812500,13.7498125,-0.04982566833496094,-0.021310091018676758,0.015765106305480003
1771082080871753500,13.75975341796875,0.014430046081542969,-0.034415245056152344,-0.009408127516508102
1771082080881694500,13.769694580078125,0.06821918487548828,-0.04504704475402832,-0.033848512917757034
1771082080891635700,13.7796357421875,0.03879547119140625,-0.05589890480041504,-0.024231255054473877
1771082080901576700,13.78957666015625,-0.00888824462890625,0.001306772232055664,0.026943042874336243
1771082080911518000,13.79951806640625,0.0007266998291015625,0.05520486831665039,0.07882899791002274
1771082080921459000,13.809458984375,0.054892539978027344,0.06592583656311035,0.09897913783788681
1771082080931400000,13.81939990234375,0.11759567260742188,0.02692699432373047,0.0743873342871666
1771082080941341200,13.829341064453125,0.16989803314208984,-0.02349257469177246,0.010984191671013832
1771082080951282200,13.8392822265625,0.1790771484375,-0.08073163032531738,-0.06423674523830414
1771082080961223400,13.849223388671875,0.10116195678710938,-0.12133216857910156,-0.09480109810829163
1771082080981105400,13.86910546875,-0.18154430389404297,-0.03522467613220215,-0.06751349568367004
1771082080991046700,13.879046630859374,-0.34539222717285156,0.06056547164916992,-0.0033923620358109474
1771082081000987600,13.888987548828124,-0.2879152297973633,0.12584424018859863,0.0800902470946312
1771082081010929000,13.898928955078125,-0.06684684753417969,0.11588835716247559,0.12124262750148773
1771082081030811000,13.918810791015625,0.24009037017822266,-0.004883289337158203,0.09819050878286362
1771082081040752000,13.928752197265625,0.3157815933227539,-0.043174028396606445,0.04785788431763649
1771082081050693000,13.938693115234376,0.29862213134765625,-0.06544041633605957,-0.032385800033807755
1771082081060634400,13.94863427734375,0.19957637786865234,-0.11197113990783691,-0.1361776441335678
1771082081070575400,13.958575439453124,0.07654094696044922,-0.1730440855026245,-0.21462923288345337
1771082081080516400,13.968516357421874,-0.0677947998046875,-0.17513573169708252,-0.23875907063484192
1771082081090457600,13.97845751953125,-0.16730213165283203,-0.13265860080718994,-0.205660879611969
1771082081100398600,13.988398681640625,-0.2133769989013672,-0.06489205360412598,-0.12348063290119171
1771082081110339800,13.99833984375,-0.19286823272705078,-0.007173299789428711,-0.0371423102915287
1771082081120280800,14.00828076171875,-0.09282398223876953,0.022129297256469727,0.039784304797649384
1771082081130221800,14.018221923828126,0.02667999267578125,0.02769923210144043,0.09205544739961624
1771082081140163000,14.0281630859375,0.09002208709716797,0.009732246398925781,0.10288116335868835
1771082081150104000,14.03810400390625,0.048674583435058594,-0.03363490104675293,0.06584727019071579
1771082081160045300,14.04804541015625,0.05730724334716797,-0.06852078437805176,-0.00019506458193063736
1771082081169986300,14.057986328125,0.05629253387451172,-0.11890625953674316,-0.05247610807418823
1771082081179927300,14.06792724609375,0.01764678955078125,-0.09792160987854004,-0.04717492684721947
1771082081189868500,14.07786865234375,-0.0015192031860351562,-0.03490900993347168,0.03526841476559639
1771082081199809500,14.0878095703125,-0.015613555908203125,0.0009562969207763672,0.0758654922246933
1771082081209750800,14.097750732421876,-0.036556243896484375,0.005717039108276367,0.08028469979763031
1771082081219691800,14.10769189453125,-0.0312957763671875,-0.02471756935119629,0.047145456075668335
1771082081229632800,14.1176328125,-0.02618694305419922,-0.049637794494628906,0.010148298926651478
1771082081239574000,14.127573974609374,-0.028204917907714844,-0.05776190757751465,0.006607093848288059
1771082081249515300,14.137515380859375,0.007565498352050781,-0.05908560752868652,0.016973085701465607
1771082081259456300,14.147456298828125,-0.011282920837402344,-0.05392122268676758,0.013260501436889172
1771082081269397500,14.1573974609375,-0.06742286682128906,-0.02795267105102539,0.03750550001859665
1771082081279338500,14.16733837890625,-0.08031368255615234,-0.01389002799987793,0.007140209898352623
1771082081289279700,14.17727978515625,-0.1072835922241211,-0.01574563980102539,-0.03666701167821884
1771082081299221000,14.187220947265626,-0.0704488754272461,-0.035410165786743164,-0.05684028938412666
