time,seconds_elapsed,z,y,x
1771082067202678000,0.090677978515625,0.03981423005461693,-0.0141147430986166,0.11744531989097595
1771082067222561500,0.1105615234375,0.04194475710391998,-0.0023968431632965803,0.13129374384880066
1771082067232503800,0.12050390625,0.06644582003355026,0.0050600022077560425,0.1153147891163826
1771082067242446000,0.130446044921875,0.0834900364279747,-0.007723161485046148,0.08974846452474594
1771082067252388400,0.140388427734375,0.08242477476596832,-0.03328948840498924,0.06631266325712204
1771082067262331000,0.150330810546875,0.06857634335756302,-0.04394212365150452,0.05139897018671036
1771082067272273400,0.1602734375,0.05153212696313858,-0.04287686198949814,0.04394212365150452
1771082067282215000,0.17021484375,0.03874896466732025,-0.03755054250359535,0.0354200154542923
1771082067292156000,0.180156005859375,0.03235738351941109,-0.031158961355686188,0.026897907257080078
1771082067302097200,0.19009716796875,0.029161592945456505,-0.029028434306383133,0.013049479573965073
1771082067312038400,0.200038330078125,0.03129211813211441,-0.019441060721874237,0.006657897960394621
1771082067321979400,0.2099794921875,0.03235738351941109,0.0018642114009708166,0.010918952524662018
1771082067331920600,0.219920654296875,0.029161592945456505,-0.0034621069207787514,0.02583264373242855
1771082067341861600,0.229861572265625,0.021704746410250664,-0.032224226742982864,0.04394212365150452
1771082067351803000,0.239802978515625,0.014247900806367397,-0.056725289672613144,0.05566002428531647
1771082067361744100,0.249744140625,0.01318263728171587,-0.06418213248252869,0.05566002428531647
1771082067371685000,0.25968505859375,0.01957421936094761,-0.05992107838392258,0.04287686198949814
1771082067381626400,0.26962646484375,0.0270310640335083,-0.04607265070080757,0.020506324246525764
1771082067391567400,0.2795673828125,0.03129211813211441,-0.02583264373242855,0.0034621069207787514
1771082067401508600,0.289508544921875,0.0270310640335083,-0.019441060721874237,-0.010386320762336254
1771082067411449900,0.299449951171875,0.014247900806367397,-0.03328948840498924,-0.019973693415522575
1771082067421390800,0.309390869140625,-0.0017310534603893757,-0.05033370852470398,-0.02636527456343174
1771082067431332000,0.31933203125,-0.01664474420249462,-0.05139897018671036,-0.025300011038780212
1771082067441273000,0.329273193359375,-0.02516685426235199,-0.03435475379228592,-0.021038956940174103
1771082067451214300,0.33921435546875,-0.027297381311655045,-0.008788425475358963,-0.014647374860942364
1771082067461155600,0.349155517578125,-0.02197106182575226,0.019973693415522575,-0.008255792781710625
1771082067481037800,0.369037841796875,-0.002796316985040903,0.06897582113742828,0.020506324246525764
1771082067490978800,0.378978759765625,-0.002796316985040903,0.0636495053768158,0.03861580789089203
1771082067500920000,0.388920166015625,-0.011318426579236984,0.04127896577119827,0.04713791608810425
1771082067510861300,0.398861328125,-0.015579480677843094,0.021038956940174103,0.0492684431374073
1771082067520802300,0.40880224609375,-0.018775271251797676,0.0050600022077560425,0.03755054250359535
1771082067530743600,0.41874365234375,-0.01771000772714615,0.0007989477599039674,0.015180006623268127
1771082067540684500,0.4286845703125,-0.010253162123262882,0.009321057237684727,-0.002929474925622344
1771082067550625800,0.438625732421875,-0.003861580742523074,0.015712639316916466,-0.013582111336290836
1771082067560567000,0.448567138671875,-0.0017310534603893757,0.014647374860942364,-0.019973693415522575
1771082067570508000,0.458508056640625,0.001464737462811172,0.015712639316916466,-0.019973693415522575
1771082067580449300,0.46844921875,0.0035952648613601923,0.01784316636621952,-0.014647374860942364
1771082067600331500,0.48833154296875,-0.015579480677843094,-0.005592633970081806,-0.013582111336290836
1771082067610272800,0.498272705078125,-0.02197106182575226,-0.007723161485046148,-0.012516847811639309
1771082067620213800,0.5082138671875,-0.015579480677843094,-0.006657897960394621,-0.008255792781710625
1771082067630155000,0.518155029296875,0.0003994738799519837,-0.006657897960394621,0.001331579522229731
1771082067640096000,0.528095947265625,0.014247900806367397,0.011451584286987782,0.01837579719722271
1771082067650037200,0.538037353515625,0.01850895583629608,0.03169159218668938,0.03755054250359535
1771082067659978500,0.547978515625,0.014247900806367397,0.024234747514128685,0.040746334940195084
1771082067669919500,0.55791943359375,0.005725792143493891,-0.0002663159102667123,0.029028434306383133
1771082067679860700,0.56786083984375,-0.002796316985040903,-0.02583264373242855,0.0034621069207787514
1771082067689801700,0.5778017578125,-0.0070573715493083,-0.03861580789089203,-0.02210422046482563
1771082067699743000,0.587742919921875,-0.0070573715493083,-0.03861580789089203,-0.03914843872189522
1771082067709684200,0.597684326171875,-0.008122635073959827,-0.036485280841588974,-0.04554001986980438
1771082067719625200,0.607625244140625,-0.0070573715493083,-0.036485280841588974,-0.03808317333459854
1771082067729566500,0.61756640625,-0.009187898598611355,-0.031158961355686188,-0.01784316636621952
1771082067739507500,0.627507568359375,-0.01664474420249462,-0.03435475379228592,0.004527370445430279
1771082067749448700,0.63744873046875,-0.024101590737700462,-0.0354200154542923,0.019441060721874237
1771082067769331000,0.6573310546875,-0.018775271251797676,-0.005592633970081806,0.015180006623268127
1771082067779272200,0.667272216796875,-0.009187898598611355,0.015712639316916466,0.007723161485046148
1771082067789213200,0.677213134765625,-0.004926844500005245,0.03275685757398605,0.001331579522229731
1771082067799154400,0.687154541015625,-0.0070573715493083,0.029561065137386322,-0.0018642114009708166
1771082067809095700,0.697095703125,-0.010253162123262882,0.008255792781710625,-0.00612526573240757
1771082067819036700,0.70703662109375,-0.010253162123262882,-0.010918952524662018,-0.008255792781710625
1771082067828978000,0.71697802734375,-0.009187898598611355,-0.020506324246525764,-0.011451584286987782
1771082067838919000,0.7269189453125,-0.003861580742523074,-0.02263685315847397,-0.015712639316916466
1771082067848860200,0.736860107421875,0.007856319658458233,-0.020506324246525764,-0.015712639316916466
1771082067858801400,0.746801513671875,0.017443692311644554,-0.019441060721874237,-0.012516847811639309
1771082067868742400,0.756742431640625,0.021704746410250664,-0.026897907257080078,-0.011451584286987782
1771082067878683600,0.76668359375,0.016378428786993027,-0.0354200154542923,-0.010386320762336254
1771082067888624600,0.776624755859375,0.005725792143493891,-0.02583264373242855,-0.011451584286987782
1771082067898566000,0.78656591796875,-0.0070573715493083,-0.011984216049313545,-0.013582111336290836
1771082067908507100,0.796507080078125,-0.012383690103888512,0.002929474925622344,-0.014647374860942364
1771082067918448000,0.8064482421875,-0.009187898598611355,0.016777902841567993,-0.014647374860942364
1771082067928389400,0.816389404296875,-0.005992108024656773,0.018908429890871048,-0.011451584286987782
1771082067938330400,0.826330322265625,-0.0017310534603893757,0.01784316636621952,-0.007190529722720385
1771082067948271600,0.836271728515625,0.0035952648613601923,0.018908429890871048,0.0034621069207787514
1771082067958212900,0.846212890625,0.009986846707761288,0.014647374860942364,0.015180006623268127
1771082067968153900,0.85615380859375,0.01318263728171587,0.0050600022077560425,0.02583264373242855
1771082067978095000,0.86609521484375,0.01318263728171587,-0.004527370445430279,0.027963170781731606
1771082067988036000,0.8760361328125,0.01318263728171587,-0.006657897960394621,0.02583264373242855
1771082067997977300,0.885977294921875,0.01318263728171587,-0.001331579522229731,0.01837579719722271
1771082068007918600,0.895918701171875,0.012117373757064342,0.010386320762336254,0.00985368900001049
1771082068017859600,0.905859619140625,0.017443692311644554,0.016777902841567993,0.006657897960394621
1771082068027800800,0.91580078125,0.020639482885599136,-0.007723161485046148,0.0034621069207787514
1771082068037741800,0.925741943359375,0.01850895583629608,-0.04287686198949814,0.0002663159102667123
1771082068047683000,0.93568310546875,0.00892158318310976,-0.05779055133461952,-0.0007989477599039674
1771082068057624300,0.945624267578125,-0.002796316985040903,-0.052464235574007034,-0.0018642114009708166
1771082068067565300,0.9555654296875,-0.010253162123262882,-0.03328948840498924,-0.002929474925622344
1771082068077506600,0.965506591796875,-0.013448953628540039,-0.011984216049313545,-0.00612526573240757
1771082068087447600,0.975447509765625,-0.010253162123262882,0.013582111336290836,-0.0050600022077560425
1771082068097388800,0.985388916015625,-0.002796316985040903,0.03169159218668938,0.0034621069207787514
1771082068107330000,0.995330078125,0.0025300011038780212,0.03275685757398605,0.0141147430986166
1771082068117271000,1.00527099609375,0.0035952648613601923,0.012516847811639309,0.02157158963382244
1771082068127212300,1.01521240234375,-0.0006657897611148655,-0.02157158963382244,0.02263685315847397
1771082068137153300,1.0251533203125,-0.009187898598611355,-0.04713791608810425,0.017310533672571182
1771082068147094500,1.035094482421875,-0.01664474420249462,-0.04607265070080757,0.007723161485046148
1771082068157035800,1.045035888671875,-0.019840534776449203,-0.02263685315847397,-0.009321057237684727
1771082068166976800,1.054976806640625,-0.01664474420249462,0.0050600022077560425,-0.024234747514128685
1771082068176918000,1.06491796875,-0.012383690103888512,0.028495801612734795,-0.029561065137386322
1771082068186859000,1.07485888671875,-0.009187898598611355,0.04234423115849495,-0.023169483989477158
1771082068196800300,1.08480029296875,-0.005992108024656773,0.044474758207798004,-0.007190529722720385
1771082068206741500,1.094741455078125,-0.002796316985040903,0.03275685757398605,0.00985368900001049
1771082068216682500,1.1046826171875,0.0025300011038780212,0.015712639316916466,0.026897907257080078
1771082068226623700,1.114623779296875,0.006791055668145418,0.0007989477599039674,0.03861580789089203
1771082068236565000,1.12456494140625,0.009986846707761288,0.0018642114009708166,0.03755054250359535
1771082068246506200,1.13450634765625,0.006791055668145418,0.014647374860942364,0.031158961355686188
1771082068256447200,1.144447265625,-0.002796316985040903,0.023169483989477158,0.015180006623268127
1771082068266388500,1.154388427734375,-0.014514217153191566,0.023169483989477158,-0.00612526573240757
1771082068276329700,1.164329833984375,-0.02516685426235199,0.011451584286987782,-0.02636527456343174
1771082068286271000,1.17427099609375,-0.028362644836306572,0.0007989477599039674,-0.03488738462328911
1771082068296212200,1.184212158203125,-0.0294279083609581,-0.0023968431632965803,-0.029561065137386322
1771082068306153200,1.1941533203125,-0.026232117787003517,0.0050600022077560425,-0.009321057237684727
1771082068316094500,1.204094482421875,-0.018775271251797676,0.01784316636621952,0.017310533672571182
1771082068326035700,1.21403564453125,-0.009187898598611355,0.021038956940174103,0.036485280841588974
1771082068335977000,1.22397705078125,0.0003994738799519837,0.011451584286987782,0.040746334940195084
1771082068345918200,1.233918212890625,0.005725792143493891,-0.00985368900001049,0.03328948840498924
1771082068355859200,1.243859130859375,0.005725792143493891,-0.03861580789089203,0.019441060721874237
1771082068365800400,1.253800537109375,-0.0017310534603893757,-0.07590003311634064,0.0023968431632965803
1771082068375741700,1.26374169921875,-0.01771000772714615,-0.09507478028535843,-0.008255792781710625
1771082068385683000,1.273682861328125,-0.034754227846860886,-0.08335687965154648,-0.012516847811639309
1771082068395624200,1.283624267578125,-0.04647212475538254,-0.04500738903880119,-0.016777902841567993
1771082068405565200,1.293565185546875,-0.04860265180468559,-0.005592633970081806,-0.025300011038780212
1771082068415506400,1.30350634765625,-0.04114580899477005,0.028495801612734795,-0.03275685757398605
1771082068425447700,1.31344775390625,-0.03262370079755783,0.04767054691910744,-0.03382211923599243
1771082068435389000,1.323388916015625,-0.024101590737700462,0.044474758207798004,-0.027430538088083267
1771082068445330200,1.333330078125,-0.01771000772714615,0.030626330524683,-0.008255792781710625
1771082068455271200,1.343271240234375,-0.0070573715493083,0.019973693415522575,0.020506324246525764
1771082068465212400,1.35321240234375,0.0003994738799519837,0.007190529722720385,0.048203181475400925
1771082068475153700,1.363153564453125,0.004660528618842363,-0.008788425475358963,0.06737792491912842
1771082068485095000,1.373094970703125,0.004660528618842363,-0.02263685315847397,0.0684431865811348
1771082068495036200,1.3830361328125,0.004660528618842363,-0.029028434306383133,0.052464235574007034
1771082068504977200,1.39297705078125,0.001464737462811172,-0.013049479573965073,0.029028434306383133
1771082068514918400,1.40291845703125,-0.002796316985040903,0.013582111336290836,0.007723161485046148
1771082068524859600,1.412859619140625,-0.010253162123262882,0.029561065137386322,-0.011451584286987782
1771082068534801000,1.42280078125,-0.019840534776449203,0.03914843872189522,-0.024234747514128685
1771082068544742100,1.4327421875,-0.024101590737700462,0.03808317333459854,-0.02210422046482563
1771082068554683100,1.44268310546875,-0.024101590737700462,0.028495801612734795,-0.014647374860942364
1771082068564624400,1.452624267578125,-0.026232117787003517,0.012516847811639309,-0.0050600022077560425
1771082068574565400,1.4625654296875,-0.03262370079755783,-0.0034621069207787514,0.001331579522229731
1771082068584506600,1.472506591796875,-0.034754227846860886,-0.015180006623268127,0.008788425475358963
1771082068594448000,1.48244775390625,-0.0294279083609581,-0.015180006623268127,0.011984216049313545
1771082068604388900,1.492388916015625,-0.01771000772714615,-0.0002663159102667123,0.0141147430986166
1771082068614330000,1.502330078125,-0.004926844500005245,0.010386320762336254,0.015180006623268127
1771082068624271000,1.51227099609375,0.001464737462811172,0.012516847811639309,0.0141147430986166
1771082068634212400,1.52221240234375,0.0025300011038780212,0.009321057237684727,0.013049479573965073
1771082068644153600,1.532153564453125,0.001464737462811172,0.007190529722720385,0.0141147430986166
1771082068654094600,1.542094482421875,0.001464737462811172,0.0018642114009708166,0.019441060721874237
1771082068673976800,1.561976806640625,-0.0017310534603893757,0.010386320762336254,0.0354200154542923
1771082068683918000,1.57191796875,-0.002796316985040903,0.008255792781710625,0.03328948840498924
1771082068693859300,1.581859375,-0.002796316985040903,0.0007989477599039674,0.02263685315847397
1771082068703800300,1.59180029296875,-0.0017310534603893757,-0.005592633970081806,0.00985368900001049
1771082068713741600,1.601741455078125,-0.003861580742523074,-0.007723161485046148,-0.002929474925622344
1771082068723682600,1.6116826171875,-0.005992108024656773,-0.008788425475358963,-0.013582111336290836
1771082068733623800,1.621623779296875,-0.008122635073959827,-0.001331579522229731,-0.011451584286987782
1771082068743565000,1.63156494140625,-0.011318426579236984,0.00612526573240757,-0.0007989477599039674
1771082068753506000,1.641506103515625,-0.014514217153191566,0.002929474925622344,0.015180006623268127
1771082068763447300,1.651447265625,-0.014514217153191566,-0.0034621069207787514,0.03009369783103466
1771082068773388300,1.66138818359375,-0.009187898598611355,0.007190529722720385,0.04181159660220146
1771082068783329500,1.67132958984375,-0.0006657897611148655,0.02210422046482563,0.0492684431374073
1771082068793270800,1.681270751953125,0.0025300011038780212,0.027430538088083267,0.0492684431374073
1771082068803211800,1.691211669921875,-0.0006657897611148655,0.02210422046482563,0.040746334940195084
1771082068813153000,1.701153076171875,-0.003861580742523074,0.015712639316916466,0.02583264373242855
1771082068833035300,1.72103515625,-0.003861580742523074,0.011451584286987782,-0.00612526573240757
1771082068842976500,1.7309765625,-0.0070573715493083,0.00612526573240757,-0.010386320762336254
1771082068852917500,1.74091748046875,-0.015579480677843094,-0.001331579522229731,-0.00612526573240757
1771082068862858800,1.750858642578125,-0.02090579830110073,0.00612526573240757,0.007723161485046148
1771082068872799700,1.7607998046875,-0.018775271251797676,0.02210422046482563,0.024767380207777023
1771082068882741000,1.770740966796875,-0.015579480677843094,0.021038956940174103,0.03755054250359535
1771082068892682200,1.78068212890625,-0.009187898598611355,0.009321057237684727,0.04394212365150452
1771082068902623200,1.790623291015625,-0.005992108024656773,0.002929474925622344,0.0492684431374073
1771082068912564500,1.800564453125,-0.012383690103888512,-0.0034621069207787514,0.048203181475400925
1771082068922505500,1.81050537109375,-0.028362644836306572,-0.005592633970081806,0.03968106955289841
1771082068932446700,1.82044677734375,-0.04008054360747337,0.0007989477599039674,0.032224226742982864
1771082068942388000,1.830387939453125,-0.04008054360747337,0.010386320762336254,0.024767380207777023
1771082068952329000,1.840328857421875,-0.031558435410261154,0.012516847811639309,0.01837579719722271
1771082068962270200,1.850270263671875,-0.01771000772714615,0.012516847811639309,0.01837579719722271
1771082068972211200,1.860211181640625,-0.008122635073959827,0.009321057237684727,0.01837579719722271
1771082068992093700,1.88009375,-0.009187898598611355,0.00612526573240757,0.016245270147919655
1771082069002034700,1.89003466796875,-0.015579480677843094,-0.005592633970081806,0.010918952524662018
1771082069011976000,1.899975830078125,-0.02090579830110073,-0.02263685315847397,0.0034621069207787514
1771082069021917000,1.9099169921875,-0.027297381311655045,-0.036485280841588974,0.0002663159102667123
1771082069031858200,1.919858154296875,-0.03368896245956421,-0.04500738903880119,-0.0050600022077560425
1771082069041799400,1.92979931640625,-0.039015281945466995,-0.05352949723601341,-0.013582111336290836
1771082069051740400,1.939740478515625,-0.04008054360747337,-0.04713791608810425,-0.01784316636621952
1771082069061681700,1.949681640625,-0.03795001655817032,-0.03009369783103466,-0.021038956940174103
1771082069071622700,1.95962255859375,-0.034754227846860886,-0.019441060721874237,-0.024234747514128685
1771082069081564000,1.96956396484375,-0.028362644836306572,-0.004527370445430279,-0.019973693415522575
1771082069091505200,1.979505126953125,-0.019840534776449203,0.013582111336290836,-0.009321057237684727
1771082069101446100,1.989446044921875,-0.011318426579236984,0.03275685757398605,0.006657897960394621
1771082069111387400,1.999387451171875,-0.004926844500005245,0.04554001986980438,0.027963170781731606
1771082069121328400,2.009328369140625,0.0003994738799519837,0.04340949282050133,0.05139897018671036
1771082069131269600,2.01926953125,0.004660528618842363,0.027430538088083267,0.0684431865811348
1771082069141211000,2.0292109375,0.00892158318310976,0.007190529722720385,0.0727042406797409
1771082069151151900,2.03915185546875,0.017443692311644554,-0.0141147430986166,0.06205160543322563
1771082069161093000,2.049093017578125,0.020639482885599136,-0.027963170781731606,0.03968106955289841
1771082069171034000,2.0590341796875,0.0153131652623415,-0.03009369783103466,0.019441060721874237
1771082069180975400,2.068975341796875,0.0003994738799519837,-0.016245270147919655,0.0034621069207787514
1771082069190916600,2.07891650390625,-0.013448953628540039,-0.004527370445430279,-0.010386320762336254
1771082069200857600,2.088857666015625,-0.02090579830110073,0.008255792781710625,-0.015712639316916466
1771082069210798800,2.098798828125,-0.02090579830110073,0.01784316636621952,-0.011451584286987782
1771082069220740000,2.108739990234375,-0.015579480677843094,0.016777902841567993,-0.0007989477599039674
1771082069240622300,2.128622314453125,-0.0017310534603893757,-0.016245270147919655,0.010918952524662018
1771082069250563300,2.138563232421875,-0.0017310534603893757,-0.00985368900001049,0.015180006623268127
1771082069260504600,2.148504638671875,-0.009187898598611355,0.010386320762336254,0.01837579719722271
1771082069270445800,2.15844580078125,-0.01664474420249462,0.024234747514128685,0.01837579719722271
1771082069280386800,2.16838671875,-0.023036325350403786,0.03169159218668938,0.016245270147919655
1771082069290328000,2.178328125,-0.02090579830110073,0.03808317333459854,0.020506324246525764
1771082069300269000,2.18826904296875,-0.011318426579236984,0.030626330524683,0.03009369783103466
1771082069310210300,2.198210205078125,-0.002796316985040903,0.009321057237684727,0.04181159660220146
1771082069320151600,2.208151611328125,0.001464737462811172,-0.008788425475358963,0.05566002428531647
1771082069330092500,2.218092529296875,-0.002796316985040903,-0.016245270147919655,0.06205160543322563
1771082069340033800,2.22803369140625,-0.008122635073959827,-0.008788425475358963,0.05459476262331009
1771082069349974800,2.237974853515625,-0.010253162123262882,0.002929474925622344,0.04181159660220146
1771082069369857300,2.257857177734375,-0.010253162123262882,-0.0002663159102667123,0.015180006623268127
1771082069389739500,2.277739501953125,-0.015579480677843094,0.0007989477599039674,0.02157158963382244
1771082069409621800,2.297621826171875,-0.023036325350403786,-0.006657897960394621,0.04713791608810425
1771082069419563000,2.30756298828125,-0.02090579830110073,-0.007723161485046148,0.05779055133461952
1771082069439445200,2.3274453125,-0.005992108024656773,-0.006657897960394621,0.04287686198949814
1771082069459327500,2.347327392578125,0.0003994738799519837,0.018908429890871048,0.015180006623268127
1771082069479209700,2.367209716796875,-0.002796316985040903,0.012516847811639309,0.008788425475358963
1771082069489151000,2.37715087890625,-0.010253162123262882,0.0050600022077560425,0.01837579719722271
1771082069499092000,2.387092041015625,-0.01771000772714615,-0.006657897960394621,0.02583264373242855
1771082069509033200,2.397033203125,-0.019840534776449203,-0.020506324246525764,0.03009369783103466
1771082069528915500,2.41691552734375,-0.005992108024656773,-0.015180006623268127,0.027963170781731606
1771082069538856700,2.426856689453125,0.0025300011038780212,0.00612526573240757,0.02263685315847397
1771082069548797700,2.436797607421875,0.00892158318310976,0.023169483989477158,0.015180006623268127
1771082069568680200,2.45668017578125,0.001464737462811172,0.002929474925622344,0.007723161485046148
1771082069578621200,2.46662109375,-0.005992108024656773,-0.020506324246525764,0.008788425475358963
1771082069588562400,2.4765625,-0.013448953628540039,-0.04394212365150452,0.011984216049313545
1771082069598503400,2.48650341796875,-0.01771000772714615,-0.04713791608810425,0.01837579719722271
1771082069618386000,2.506385986328125,-0.005992108024656773,-0.00985368900001049,0.02263685315847397
1771082069638268200,2.52626806640625,-0.003861580742523074,-0.032224226742982864,0.007723161485046148
1771082069658150400,2.546150390625,-0.01771000772714615,-0.04181159660220146,-0.009321057237684727
1771082069668091600,2.556091552734375,-0.02090579830110073,-0.0492684431374073,-0.016777902841567993
1771082069687974000,2.575973876953125,-0.023036325350403786,-0.031158961355686188,-0.024234747514128685
1771082069707856100,2.595856201171875,-0.009187898598611355,0.002929474925622344,-0.010386320762336254
1771082069727738400,2.61573828125,0.0025300011038780212,0.019973693415522575,0.03968106955289841
1771082069737679600,2.6256796875,0.0025300011038780212,0.018908429890871048,0.05459476262331009
1771082069757561900,2.645561767578125,0.012117373757064342,0.011451584286987782,0.04394212365150452
1771082069777444400,2.6654443359375,0.03129211813211441,0.003994738683104515,0.02583264373242855
1771082069797326600,2.68532666015625,0.0270310640335083,-0.001331579522229731,0.02263685315847397
1771082069817209000,2.705208984375,0.01318263728171587,-0.019441060721874237,0.006657897960394621
1771082069837091600,2.725091552734375,0.0025300011038780212,-0.0354200154542923,-0.018908429890871048
1771082069856973800,2.744973876953125,-0.009187898598611355,-0.029028434306383133,-0.029561065137386322
1771082069866915000,2.7549150390625,-0.011318426579236984,-0.013049479573965073,-0.03488738462328911
1771082069886797600,2.774797607421875,-0.004926844500005245,0.00612526573240757,-0.03808317333459854
1771082069906679800,2.7946796875,-0.0017310534603893757,-0.005592633970081806,-0.024234747514128685
1771082069926562300,2.814562255859375,0.004660528618842363,0.0018642114009708166,0.008788425475358963
1771082069936503600,2.824503662109375,0.00892158318310976,0.013582111336290836,0.029028434306383133
1771082069946444500,2.834444580078125,0.007856319658458233,0.027430538088083267,0.04500738903880119
1771082069966327000,2.8543271484375,0.001464737462811172,-0.0034621069207787514,0.040746334940195084
1771082069976268300,2.864268310546875,-0.0006657897611148655,-0.0141147430986166,0.029028434306383133
1771082069986209500,2.87420947265625,-0.003861580742523074,-0.029028434306383133,0.00985368900001049
1771082069996150500,2.884150634765625,-0.010253162123262882,-0.03009369783103466,-0.007190529722720385
1771082070006091800,2.894091796875,-0.013448953628540039,-0.00985368900001049,-0.015712639316916466
1771082070016033000,2.904032958984375,-0.01664474420249462,0.003994738683104515,-0.014647374860942364
1771082070025974300,2.913974365234375,-0.01771000772714615,0.013582111336290836,-0.011451584286987782
1771082070035915500,2.92391552734375,-0.01664474420249462,0.024234747514128685,0.0002663159102667123
1771082070045856500,2.9338564453125,-0.011318426579236984,0.028495801612734795,0.015180006623268127
1771082070055797800,2.9437978515625,-0.0070573715493083,0.024234747514128685,0.02583264373242855
1771082070065738800,2.95373876953125,-0.003861580742523074,0.007190529722720385,0.03328948840498924
1771082070075680000,2.963679931640625,-0.003861580742523074,-0.016245270147919655,0.03435475379228592
1771082070095562200,2.983562255859375,-0.013448953628540039,-0.0002663159102667123,0.03755054250359535
1771082070115444500,3.003444580078125,-0.024101590737700462,0.03488738462328911,0.03328948840498924
1771082070125385700,3.0133857421875,-0.02516685426235199,0.040213704109191895,0.026897907257080078
1771082070135327000,3.023326904296875,-0.024101590737700462,0.03275685757398605,0.011984216049313545
1771082070145268000,3.03326806640625,-0.02090579830110073,0.014647374860942364,-0.0018642114009708166
1771082070155209200,3.043209228515625,-0.01664474420249462,-0.0034621069207787514,-0.00612526573240757
1771082070175091500,3.063091552734375,-0.013448953628540039,-0.027963170781731606,-0.00612526573240757
1771082070194973700,3.0829736328125,-0.02197106182575226,0.014647374860942364,-0.00612526573240757
1771082070204915000,3.0929150390625,-0.02090579830110073,0.03169159218668938,-0.0050600022077560425
1771082070224797200,3.112797119140625,-0.0070573715493083,0.03488738462328911,0.016245270147919655
1771082070244679400,3.132679443359375,-0.0006657897611148655,0.003994738683104515,0.04394212365150452
1771082070254620700,3.14262060546875,0.004660528618842363,-0.017310533672571182,0.05139897018671036
1771082070264561700,3.152561767578125,0.012117373757064342,-0.027963170781731606,0.04394212365150452
1771082070274503000,3.1625029296875,0.016378428786993027,-0.04181159660220146,0.02263685315847397
1771082070284444200,3.172444091796875,0.009986846707761288,-0.0588558167219162,-0.011451584286987782
1771082070294385200,3.18238525390625,-0.003861580742523074,-0.06524740159511566,-0.04767054691910744
1771082070304326400,3.192326416015625,-0.015579480677843094,-0.06311687082052231,-0.0732368752360344
1771082070314267600,3.202267578125,-0.024101590737700462,-0.0492684431374073,-0.08069372177124023
1771082070324208600,3.212208740234375,-0.0294279083609581,-0.026897907257080078,-0.06897582113742828
1771082070334150000,3.22214990234375,-0.031558435410261154,-0.007723161485046148,-0.04767054691910744
1771082070344091000,3.2320908203125,-0.028362644836306572,0.0018642114009708166,-0.025300011038780212
1771082070354032000,3.2420322265625,-0.015579480677843094,0.013582111336290836,-0.0007989477599039674
1771082070363973400,3.251973388671875,0.0035952648613601923,0.024234747514128685,0.019441060721874237
1771082070373914400,3.261914306640625,0.017443692311644554,0.021038956940174103,0.032224226742982864
1771082070393796600,3.281796630859375,0.0270310640335083,0.003994738683104515,0.04713791608810425
1771082070403737900,3.29173779296875,0.025965800508856773,-0.005592633970081806,0.048203181475400925
1771082070413679000,3.30167919921875,0.01850895583629608,-0.016245270147919655,0.04287686198949814
1771082070433561300,3.321561279296875,0.0003994738799519837,-0.005592633970081806,0.029028434306383133
1771082070453443600,3.341443603515625,-0.014514217153191566,-0.016245270147919655,0.00985368900001049
1771082070463384800,3.351384765625,-0.01664474420249462,-0.026897907257080078,-0.003994738683104515
1771082070473325800,3.361325927734375,-0.015579480677843094,-0.02583264373242855,-0.016777902841567993
1771082070493208000,3.3812080078125,-0.009187898598611355,-0.019441060721874237,-0.027430538088083267
1771082070513090600,3.401090576171875,-0.010253162123262882,-0.017310533672571182,-0.018908429890871048
1771082070523031600,3.411031494140625,-0.015579480677843094,-0.024767380207777023,-0.012516847811639309
1771082070532972800,3.420972900390625,-0.023036325350403786,-0.03435475379228592,-0.0050600022077560425
1771082070542913800,3.430913818359375,-0.027297381311655045,-0.029028434306383133,0.005592633970081806
1771082070562796300,3.45079638671875,-0.02197106182575226,-0.007723161485046148,0.01837579719722271
1771082070572737300,3.4607373046875,-0.012383690103888512,0.012516847811639309,0.0141147430986166
1771082070582678500,3.470678466796875,0.001464737462811172,0.03275685757398605,0.008788425475358963
1771082070602560800,3.490560791015625,0.020639482885599136,-0.0002663159102667123,0.0002663159102667123
1771082070612502000,3.500501953125,0.01957421936094761,-0.03435475379228592,0.0034621069207787514
1771082070622443000,3.510443115234375,0.014247900806367397,-0.05352949723601341,0.00985368900001049
1771082070632384300,3.52038427734375,0.006791055668145418,-0.06311687082052231,0.00985368900001049
1771082070642325200,3.5303251953125,0.0003994738799519837,-0.05033370852470398,0.005592633970081806
1771082070652266500,3.5402666015625,-0.0017310534603893757,-0.019441060721874237,0.001331579522229731
1771082070662207700,3.550207763671875,-0.005992108024656773,0.0050600022077560425,-0.0018642114009708166
1771082070672148700,3.560148681640625,-0.010253162123262882,0.027430538088083267,0.0034621069207787514
1771082070682090000,3.570090087890625,-0.011318426579236984,0.05086633935570717,0.020506324246525764
1771082070692031000,3.580031005859375,-0.011318426579236984,0.06684529036283493,0.04181159660220146
1771082070711913500,3.59991357421875,-0.010253162123262882,0.07217161357402802,0.0727042406797409
1771082070721854500,3.6098544921875,-0.013448953628540039,0.05938844755291939,0.0684431865811348
1771082070731795700,3.619795654296875,-0.018775271251797676,0.040213704109191895,0.05352949723601341
1771082070741736700,3.62973681640625,-0.02516685426235199,0.012516847811639309,0.031158961355686188
1771082070751678000,3.639677978515625,-0.03262370079755783,-0.013049479573965073,0.0034621069207787514
1771082070761619200,3.649619140625,-0.04114580899477005,-0.02157158963382244,-0.023169483989477158
1771082070771560200,3.659560302734375,-0.04434159770607948,-0.0023968431632965803,-0.04340949282050133
1771082070781501400,3.66950146484375,-0.04114580899477005,0.019973693415522575,-0.05299686640501022
1771082070791442400,3.6794423828125,-0.03795001655817032,0.030626330524683,-0.05299686640501022
1771082070801383700,3.6893837890625,-0.035819489508867264,0.03275685757398605,-0.03914843872189522
1771082070811325000,3.699324951171875,-0.030493171885609627,0.03275685757398605,-0.01784316636621952
1771082070821266000,3.709265869140625,-0.02197106182575226,0.02210422046482563,0.0023968431632965803
1771082070831207200,3.719207275390625,-0.008122635073959827,0.002929474925622344,0.011984216049313545
1771082070841148200,3.729148193359375,0.00892158318310976,-0.0141147430986166,0.013049479573965073
1771082070861030700,3.74903076171875,0.030226856470108032,-0.03861580789089203,0.0034621069207787514
1771082070870971600,3.7589716796875,0.03235738351941109,-0.032224226742982864,-0.0007989477599039674
1771082070880913000,3.768912841796875,0.030226856470108032,-0.02157158963382244,-0.0018642114009708166
1771082070890854000,3.77885400390625,0.025965800508856773,-0.0141147430986166,0.001331579522229731
1771082070900795100,3.788795166015625,0.01957421936094761,-0.013049479573965073,0.004527370445430279
1771082070910736400,3.798736328125,0.011052110232412815,-0.032224226742982864,-0.0007989477599039674
1771082070920677400,3.808677490234375,0.001464737462811172,-0.060986343771219254,-0.014647374860942364
1771082070930618600,3.81861865234375,-0.0017310534603893757,-0.07376950979232788,-0.03169159218668938
1771082070940559600,3.8285595703125,-0.004926844500005245,-0.06524740159511566,-0.044474758207798004
1771082070950500900,3.8385009765625,-0.011318426579236984,-0.040746334940195084,-0.05193160101771355
1771082070960442000,3.848442138671875,-0.019840534776449203,-0.0141147430986166,-0.0540621280670166
1771082070970383000,3.858383056640625,-0.027297381311655045,0.0018642114009708166,-0.05193160101771355
1771082070980324400,3.868324462890625,-0.026232117787003517,0.018908429890871048,-0.04234423115849495
1771082070990265300,3.878265380859375,-0.01664474420249462,0.029561065137386322,-0.025300011038780212
1771082071000206600,3.88820654296875,-0.011318426579236984,0.027430538088083267,-0.008255792781710625
1771082071010147800,3.89814794921875,-0.012383690103888512,0.023169483989477158,0.00985368900001049
1771082071030030000,3.918030029296875,-0.023036325350403786,-0.0034621069207787514,0.02263685315847397
1771082071039971000,3.92797119140625,-0.02516685426235199,-0.007723161485046148,0.01837579719722271
1771082071049912300,3.937912353515625,-0.02516685426235199,-0.001331579522229731,0.010918952524662018
1771082071059853600,3.947853515625,-0.023036325350403786,0.008255792781710625,0.006657897960394621
1771082071069794600,3.957794677734375,-0.023036325350403786,0.019973693415522575,0.0023968431632965803
1771082071079735800,3.96773583984375,-0.027297381311655045,0.03275685757398605,-0.0007989477599039674
1771082071089676800,3.9776767578125,-0.030493171885609627,0.04767054691910744,-0.00612526573240757
1771082071099618000,3.9876181640625,-0.03688475489616394,0.0540621280670166,-0.015712639316916466
1771082071109559300,3.997559326171875,-0.04647212475538254,0.06151897460222244,-0.024234747514128685
1771082071119500300,4.007500244140625,-0.054994236677885056,0.07856319099664688,-0.028495801612734795
1771082071129441500,4.017441650390625,-0.06032055243849754,0.07856319099664688,-0.03382211923599243
1771082071139382500,4.027382568359375,-0.0624510794878006,0.05725792050361633,-0.04660528525710106
1771082071149323800,4.03732373046875,-0.06138581782579422,0.028495801612734795,-0.05938844755291939
1771082071159265000,4.04726513671875,-0.051798444241285324,0.013582111336290836,-0.0679105594754219
1771082071169206000,4.0572060546875,-0.04008054360747337,0.015712639316916466,-0.06684529036283493
1771082071189088300,4.077088134765625,-0.0294279083609581,0.03488738462328911,-0.035952646285295486
1771082071199029500,4.087029541015625,-0.027297381311655045,0.03701791167259216,-0.025300011038780212
1771082071208970800,4.096970703125,-0.015579480677843094,0.03382211923599243,-0.023169483989477158
1771082071218911700,4.106911865234375,0.0025300011038780212,0.021038956940174103,-0.028495801612734795
1771082071228853000,4.11685302734375,0.017443692311644554,0.011451584286987782,-0.030626330524683
1771082071238794000,4.1267939453125,0.020639482885599136,0.009321057237684727,-0.027430538088083267
1771082071248735200,4.1367353515625,0.014247900806367397,0.0018642114009708166,-0.025300011038780212
1771082071258676500,4.146676513671875,0.007856319658458233,-0.004527370445430279,-0.021038956940174103
1771082071268617500,4.156617431640625,0.005725792143493891,-0.005592633970081806,-0.018908429890871048
1771082071278558700,4.166558837890625,0.006791055668145418,-0.008788425475358963,-0.01784316636621952
1771082071298441000,4.18644091796875,0.0025300011038780212,-0.010918952524662018,-0.023169483989477158
1771082071308382200,4.19638232421875,-0.0017310534603893757,-0.005592633970081806,-0.025300011038780212
1771082071318323200,4.2063232421875,-0.004926844500005245,0.00612526573240757,-0.02636527456343174
1771082071328264400,4.216264404296875,-0.009187898598611355,0.021038956940174103,-0.02210422046482563
1771082071338205400,4.226205322265625,-0.013448953628540039,0.024234747514128685,-0.018908429890871048
1771082071348146700,4.236146728515625,-0.01771000772714615,0.021038956940174103,-0.012516847811639309
1771082071358088000,4.246087890625,-0.018775271251797676,0.013582111336290836,-0.007190529722720385
1771082071368029000,4.25602880859375,-0.01664474420249462,-0.0034621069207787514,-0.0007989477599039674
1771082071377970200,4.26597021484375,-0.013448953628540039,-0.03328948840498924,0.007723161485046148
1771082071387911200,4.2759111328125,-0.011318426579236984,-0.048203181475400925,0.011984216049313545
1771082071397852400,4.285852294921875,-0.015579480677843094,-0.04607265070080757,0.013049479573965073
1771082071407793700,4.295793701171875,-0.019840534776449203,-0.029028434306383133,0.00985368900001049
1771082071417734700,4.305734619140625,-0.0294279083609581,-0.006657897960394621,0.005592633970081806
1771082071437617000,4.325616943359375,-0.050733182579278946,0.019973693415522575,-0.007190529722720385
1771082071457499400,4.34549951171875,-0.05392897129058838,0.03701791167259216,0.00985368900001049
1771082071477381600,4.365381591796875,-0.06564687192440033,0.025300011038780212,0.020506324246525764
1771082071487322600,4.375322509765625,-0.06671213358640671,0.027430538088083267,0.016245270147919655
1771082071497263900,4.385263916015625,-0.0624510794878006,0.027430538088083267,0.005592633970081806
1771082071507205000,4.395205078125,-0.051798444241285324,0.030626330524683,-0.0018642114009708166
1771082071517146000,4.40514599609375,-0.039015281945466995,0.04127896577119827,-0.0018642114009708166
1771082071527087400,4.41508740234375,-0.031558435410261154,0.044474758207798004,0.001331579522229731
1771082071537028400,4.4250283203125,-0.030493171885609627,0.027430538088083267,0.0002663159102667123
1771082071546969600,4.434969482421875,-0.03795001655817032,0.0007989477599039674,-0.007190529722720385
1771082071556910800,4.444910888671875,-0.04966791719198227,-0.02263685315847397,-0.019973693415522575
1771082071566851800,4.454851806640625,-0.05712476372718811,-0.024767380207777023,-0.029561065137386322
1771082071576793000,4.46479296875,-0.05712476372718811,-0.013049479573965073,-0.035952646285295486
1771082071586734000,4.474734130859375,-0.04860265180468559,0.014647374860942364,-0.03701791167259216
1771082071596675300,4.48467529296875,-0.034754227846860886,0.03488738462328911,-0.03169159218668938
1771082071606616600,4.494616455078125,-0.02090579830110073,0.030626330524683,-0.025300011038780212
1771082071626498800,4.514498779296875,-0.0006657897611148655,-0.024767380207777023,-0.027430538088083267
1771082071636439800,4.524439697265625,0.006791055668145418,-0.05139897018671036,-0.029561065137386322
1771082071646381000,4.534381103515625,0.00892158318310976,-0.060986343771219254,-0.03275685757398605
1771082071656322300,4.544322265625,0.007856319658458233,-0.04287686198949814,-0.03275685757398605
1771082071676204500,4.56420458984375,0.014247900806367397,0.028495801612734795,-0.03808317333459854
1771082071686145500,4.5741455078125,0.0270310640335083,0.04980107396841049,-0.04127896577119827
1771082071706028000,4.594028076171875,0.05153212696313858,0.019973693415522575,-0.03382211923599243
1771082071725910300,4.61391015625,0.06431528925895691,-0.027963170781731606,0.004527370445430279
1771082071745792500,4.63379248046875,0.07283740490674973,-0.0354200154542923,0.026897907257080078
1771082071755733800,4.643733642578125,0.07816372066736221,-0.02263685315847397,0.023702116683125496
1771082071775616000,4.663615966796875,0.07603318989276886,-0.024767380207777023,-0.007190529722720385
1771082071795498200,4.683498291015625,0.05259739235043526,-0.016245270147919655,-0.030626330524683
1771082071805439500,4.693439453125,0.03981423005461693,-0.001331579522229731,-0.03382211923599243
1771082071825321700,4.71332177734375,0.02277000993490219,0.016777902841567993,-0.021038956940174103
1771082071835262700,4.7232626953125,0.01957421936094761,0.002929474925622344,-0.013582111336290836
1771082071845204000,4.733203857421875,0.016378428786993027,-0.013049479573965073,-0.008255792781710625
1771082071865086200,4.753086181640625,0.017443692311644554,-0.05033370852470398,-0.002929474925622344
1771082071875027500,4.76302734375,0.0153131652623415,-0.05352949723601341,0.001331579522229731
1771082071894909700,4.78290966796875,0.007856319658458233,-0.03861580789089203,0.007723161485046148
1771082071914792000,4.8027919921875,-0.010253162123262882,-0.019441060721874237,0.007723161485046148
1771082071934674200,4.822674072265625,-0.03795001655817032,-0.01837579719722271,-0.009321057237684727
1771082071954556700,4.842556640625,-0.04540686309337616,-0.010918952524662018,-0.02636527456343174
1771082071974439000,4.86243896484375,-0.030493171885609627,-0.024767380207777023,-0.024234747514128685
1771082071994321200,4.882321044921875,-0.026232117787003517,-0.015180006623268127,0.015180006623268127
1771082072014203400,4.902203369140625,-0.03795001655817032,-0.0141147430986166,0.0354200154542923
1771082072024144600,4.91214453125,-0.04540686309337616,-0.015180006623268127,0.026897907257080078
1771082072044027000,4.93202685546875,-0.04860265180468559,-0.006657897960394621,-0.007190529722720385
1771082072053968100,4.941968017578125,-0.04540686309337616,0.0007989477599039674,-0.024234747514128685
1771082072073850400,4.961850341796875,-0.03795001655817032,0.0050600022077560425,-0.03701791167259216
1771082072093732600,4.981732666015625,-0.024101590737700462,-0.011984216049313545,-0.019973693415522575
1771082072113614800,5.00161474609375,-0.010253162123262882,-0.0141147430986166,0.015180006623268127
1771082072133497000,5.0214970703125,-0.019840534776449203,-0.0141147430986166,0.016245270147919655
1771082072153379600,5.041379638671875,-0.011318426579236984,-0.02583264373242855,-0.03169159218668938
1771082072163320600,5.051320556640625,0.0035952648613601923,-0.008788425475358963,-0.04554001986980438
1771082072173261800,5.06126171875,0.0153131652623415,0.014647374860942364,-0.044474758207798004
1771082072193144000,5.08114404296875,0.01318263728171587,0.02210422046482563,-0.023169483989477158
1771082072203085300,5.091085205078125,0.00892158318310976,0.009321057237684727,-0.014647374860942364
1771082072213026300,5.1010263671875,0.0035952648613601923,-0.016245270147919655,-0.014647374860942364
1771082072222967600,5.110967529296875,0.0003994738799519837,-0.04500738903880119,-0.027430538088083267
1771082072242849800,5.130849853515625,0.001464737462811172,-0.03755054250359535,-0.048735812306404114
1771082072252791000,5.140791015625,0.0035952648613601923,-0.019441060721874237,-0.048735812306404114
1771082072262732000,5.15073193359375,0.005725792143493891,0.003994738683104515,-0.03914843872189522
1771082072282614300,5.1706142578125,0.005725792143493891,0.014647374860942364,-0.016777902841567993
1771082072292555500,5.180555419921875,0.005725792143493891,0.012516847811639309,-0.011451584286987782
1771082072302496800,5.190496826171875,0.005725792143493891,0.010386320762336254,-0.010386320762336254
1771082072322379000,5.21037890625,0.007856319658458233,0.0007989477599039674,-0.008255792781710625
1771082072332320000,5.220320068359375,0.012117373757064342,0.0018642114009708166,0.001331579522229731
1771082072342261200,5.23026123046875,0.012117373757064342,0.008255792781710625,0.010918952524662018
1771082072352202500,5.240202392578125,0.00892158318310976,0.003994738683104515,0.016245270147919655
1771082072362143500,5.2501435546875,0.00892158318310976,0.0050600022077560425,0.016245270147919655
1771082072372084700,5.260084716796875,0.012117373757064342,0.019973693415522575,0.019441060721874237
1771082072382025700,5.270025634765625,0.014247900806367397,0.028495801612734795,0.02157158963382244
1771082072391967000,5.279967041015625,0.014247900806367397,0.029561065137386322,0.02263685315847397
1771082072401908200,5.289908203125,0.007856319658458233,0.024234747514128685,0.023702116683125496
1771082072411849200,5.29984912109375,-0.004926844500005245,0.007190529722720385,0.019441060721874237
1771082072431731500,5.3197314453125,-0.0294279083609581,0.0007989477599039674,0.008788425475358963
1771082072441672700,5.329672607421875,-0.03688475489616394,0.012516847811639309,0.006657897960394621
1771082072451614000,5.339614013671875,-0.043276336044073105,0.013582111336290836,0.0034621069207787514
1771082072471496200,5.35949609375,-0.04966791719198227,0.009321057237684727,-0.013582111336290836
1771082072491378400,5.37937841796875,-0.023036325350403786,0.01784316636621952,-0.012516847811639309
1771082072511260700,5.3992607421875,-0.010253162123262882,0.009321057237684727,0.017310533672571182
1771082072531143200,5.41914306640625,-0.002796316985040903,-0.013049479573965073,0.0354200154542923
1771082072541084200,5.429084228515625,-0.0006657897611148655,-0.024767380207777023,0.03435475379228592
1771082072551025400,5.439025390625,-0.0017310534603893757,-0.031158961355686188,0.029028434306383133
1771082072570907600,5.45890771484375,-0.0070573715493083,-0.02157158963382244,0.008788425475358963
1771082072580849000,5.468848876953125,-0.004926844500005245,-0.015180006623268127,0.0034621069207787514
1771082072600731100,5.488731201171875,0.001464737462811172,-0.015180006623268127,-0.008255792781710625
1771082072610672000,5.498672119140625,0.0025300011038780212,-0.015180006623268127,-0.018908429890871048
1771082072630554600,5.5185546875,0.009986846707761288,-0.001331579522229731,-0.013582111336290836
1771082072650436900,5.538436767578125,0.006791055668145418,-0.005592633970081806,0.024767380207777023
1771082072660377900,5.5483779296875,-0.0006657897611148655,-0.0141147430986166,0.03968106955289841
1771082072670319000,5.558319091796875,-0.003861580742523074,-0.020506324246525764,0.04287686198949814
1771082072680260400,5.56826025390625,-0.0017310534603893757,-0.026897907257080078,0.03861580789089203
1771082072690201300,5.578201416015625,0.001464737462811172,-0.02583264373242855,0.026897907257080078
1771082072700142600,5.588142578125,0.0025300011038780212,-0.016245270147919655,0.016245270147919655
1771082072710083600,5.59808349609375,0.0025300011038780212,-0.0023968431632965803,0.011984216049313545
1771082072729966000,5.617966064453125,-0.0070573715493083,-0.016245270147919655,0.013049479573965073
1771082072739907000,5.627906982421875,-0.023036325350403786,-0.03968106955289841,0.01837579719722271
1771082072749848300,5.637848388671875,-0.04221107065677643,-0.048203181475400925,0.019441060721874237
1771082072759789300,5.647789306640625,-0.052863709628582,-0.05139897018671036,0.01837579719722271
1771082072769730600,5.65773046875,-0.05819002538919449,-0.06311687082052231,0.007723161485046148
1771082072779671800,5.667671875,-0.06032055243849754,-0.07163897901773453,-0.009321057237684727
1771082072789612800,5.67761279296875,-0.054994236677885056,-0.05779055133461952,-0.02210422046482563
1771082072799554000,5.687553955078125,-0.04860265180468559,-0.03861580789089203,-0.028495801612734795
1771082072809495000,5.6974951171875,-0.043276336044073105,-0.015180006623268127,-0.025300011038780212
1771082072819436300,5.707436279296875,-0.03688475489616394,0.018908429890871048,-0.009321057237684727
1771082072829377500,5.71737744140625,-0.03262370079755783,0.044474758207798004,0.013049479573965073
1771082072839318500,5.727318603515625,-0.03262370079755783,0.04767054691910744,0.03009369783103466
1771082072849259800,5.737259765625,-0.030493171885609627,0.03488738462328911,0.036485280841588974
1771082072859200800,5.74720068359375,-0.028362644836306572,0.011451584286987782,0.026897907257080078
1771082072869142000,5.75714208984375,-0.02516685426235199,-0.010918952524662018,0.006657897960394621
1771082072879083300,5.767083251953125,-0.019840534776449203,-0.023702116683125496,-0.010386320762336254
1771082072889024300,5.777024169921875,-0.015579480677843094,-0.029028434306383133,-0.018908429890871048
1771082072898965500,5.786965576171875,-0.01771000772714615,-0.02583264373242855,-0.018908429890871048
1771082072908906500,5.796906494140625,-0.02197106182575226,-0.015180006623268127,-0.011451584286987782
1771082072918847700,5.80684765625,-0.023036325350403786,0.002929474925622344,0.0023968431632965803
1771082072928789000,5.8167890625,-0.018775271251797676,0.018908429890871048,0.017310533672571182
1771082072938730000,5.82672998046875,-0.010253162123262882,0.028495801612734795,0.026897907257080078
1771082072948671200,5.836671142578125,-0.0006657897611148655,0.035952646285295486,0.03009369783103466
1771082072958612200,5.8466123046875,0.012117373757064342,0.04340949282050133,0.032224226742982864
1771082072968553500,5.856553466796875,0.025965800508856773,0.04554001986980438,0.0354200154542923
1771082072978494700,5.86649462890625,0.03768370300531387,0.03701791167259216,0.040746334940195084
1771082072988435700,5.876435791015625,0.04620581120252609,0.016777902841567993,0.04500738903880119
1771082072998377000,5.886376953125,0.04727107286453247,-0.001331579522229731,0.04713791608810425
1771082073008318000,5.89631787109375,0.045140545815229416,-0.019441060721874237,0.04394212365150452
1771082073018259200,5.90625927734375,0.03874896466732025,-0.03435475379228592,0.03968106955289841
1771082073028200400,5.916200439453125,0.0270310640335083,-0.031158961355686188,0.03435475379228592
1771082073038141400,5.926141357421875,0.014247900806367397,-0.008788425475358963,0.03009369783103466
1771082073048082700,5.936082763671875,0.004660528618842363,0.013582111336290836,0.024767380207777023
1771082073058023700,5.946023681640625,0.0035952648613601923,0.021038956940174103,0.015180006623268127
1771082073067965000,5.95596484375,0.009986846707761288,0.01784316636621952,0.004527370445430279
1771082073077906200,5.96590625,0.01850895583629608,0.008255792781710625,0.0002663159102667123
1771082073087847200,5.97584716796875,0.020639482885599136,-0.008788425475358963,0.001331579522229731
1771082073097788400,5.985788330078125,0.009986846707761288,-0.016245270147919655,0.007723161485046148
1771082073107729400,5.9957294921875,-0.005992108024656773,0.0018642114009708166,0.023702116683125496
1771082073117670700,6.005670654296875,-0.01771000772714615,0.018908429890871048,0.036485280841588974
1771082073127612000,6.01561181640625,-0.024101590737700462,0.028495801612734795,0.04287686198949814
1771082073137553000,6.025552978515625,-0.02516685426235199,0.029561065137386322,0.04287686198949814
1771082073147494100,6.035494140625,-0.02197106182575226,0.025300011038780212,0.0354200154542923
1771082073157435100,6.04543505859375,-0.015579480677843094,0.012516847811639309,0.03009369783103466
1771082073167376400,6.05537646484375,-0.009187898598611355,0.0007989477599039674,0.027963170781731606
1771082073177317600,6.065317626953125,-0.004926844500005245,-0.011984216049313545,0.027963170781731606
1771082073187258600,6.075258544921875,-0.004926844500005245,-0.02263685315847397,0.02157158963382244
1771082073197200000,6.085199951171875,-0.008122635073959827,-0.02263685315847397,0.013049479573965073
1771082073207140900,6.095140869140625,-0.012383690103888512,-0.00985368900001049,0.0002663159102667123
1771082073217082000,6.10508203125,-0.01771000772714615,0.011451584286987782,-0.013582111336290836
1771082073227023400,6.1150234375,-0.02090579830110073,0.025300011038780212,-0.02210422046482563
1771082073236964400,6.12496435546875,-0.023036325350403786,0.024234747514128685,-0.024234747514128685
1771082073246905600,6.134905517578125,-0.023036325350403786,0.009321057237684727,-0.015712639316916466
1771082073256846600,6.1448466796875,-0.018775271251797676,-0.00985368900001049,0.001331579522229731
1771082073266787800,6.154787841796875,-0.012383690103888512,-0.02157158963382244,0.019441060721874237
1771082073276729000,6.16472900390625,-0.005992108024656773,-0.016245270147919655,0.03968106955289841
1771082073286670000,6.174670166015625,-0.004926844500005245,-0.004527370445430279,0.05139897018671036
1771082073296611300,6.184611328125,-0.008122635073959827,0.010386320762336254,0.05033370852470398
1771082073306552300,6.19455224609375,-0.011318426579236984,0.019973693415522575,0.03968106955289841
1771082073316493600,6.20449365234375,-0.009187898598611355,0.024234747514128685,0.02263685315847397
1771082073326434800,6.214434814453125,-0.004926844500005245,0.023169483989477158,0.006657897960394621
1771082073336375800,6.224375732421875,-0.0017310534603893757,0.025300011038780212,-0.008255792781710625
1771082073346317000,6.234317138671875,0.0003994738799519837,0.025300011038780212,-0.01784316636621952
1771082073356258000,6.244258056640625,0.0003994738799519837,0.023169483989477158,-0.016777902841567993
1771082073366199300,6.25419921875,0.0003994738799519837,0.021038956940174103,-0.0050600022077560425
1771082073386081500,6.27408154296875,0.0025300011038780212,-0.0002663159102667123,0.020506324246525764
1771082073396022800,6.284022705078125,0.005725792143493891,-0.00985368900001049,0.027963170781731606
1771082073405963800,6.2939638671875,0.011052110232412815,-0.015180006623268127,0.03009369783103466
1771082073415905000,6.303905029296875,0.014247900806367397,-0.020506324246525764,0.029028434306383133
1771082073425846300,6.31384619140625,0.017443692311644554,-0.01837579719722271,0.02583264373242855
1771082073435787300,6.323787353515625,0.017443692311644554,-0.010918952524662018,0.01837579719722271
1771082073445728500,6.333728515625,0.0153131652623415,-0.005592633970081806,-0.0007989477599039674
1771082073455669500,6.34366943359375,0.012117373757064342,0.0018642114009708166,-0.025300011038780212
1771082073465610800,6.35361083984375,0.00892158318310976,0.007190529722720385,-0.04127896577119827
1771082073475552000,6.363552001953125,0.0025300011038780212,0.002929474925622344,-0.04660528525710106
1771082073485493000,6.373492919921875,-0.005992108024656773,0.008255792781710625,-0.03382211923599243
1771082073495434200,6.383434326171875,-0.008122635073959827,0.02210422046482563,-0.00612526573240757
1771082073505375200,6.393375244140625,-0.003861580742523074,0.03275685757398605,0.023702116683125496
1771082073515316500,6.40331640625,0.004660528618842363,0.03275685757398605,0.04181159660220146
1771082073525257700,6.4132578125,0.016378428786993027,0.018908429890871048,0.04394212365150452
1771082073535198700,6.42319873046875,0.02383527345955372,-0.013049479573965073,0.03009369783103466
1771082073545140000,6.433139892578125,0.020639482885599136,-0.05033370852470398,0.0034621069207787514
1771082073555081000,6.4430810546875,0.011052110232412815,-0.06524740159511566,-0.02636527456343174
1771082073565022200,6.453022216796875,0.0025300011038780212,-0.05352949723601341,-0.04767054691910744
1771082073574963500,6.46296337890625,-0.002796316985040903,-0.024767380207777023,-0.0540621280670166
1771082073584904400,6.472904541015625,-0.009187898598611355,0.002929474925622344,-0.04767054691910744
1771082073594845700,6.482845703125,-0.011318426579236984,0.019973693415522575,-0.03382211923599243
1771082073604786700,6.49278662109375,-0.010253162123262882,0.030626330524683,-0.014647374860942364
1771082073614728000,6.50272802734375,-0.0017310534603893757,0.029561065137386322,0.004527370445430279
1771082073624669200,6.512669189453125,0.006791055668145418,0.02210422046482563,0.017310533672571182
1771082073634610200,6.522610107421875,0.0153131652623415,0.011451584286987782,0.024767380207777023
1771082073644551400,6.532551513671875,0.020639482885599136,0.002929474925622344,0.03009369783103466
1771082073654492400,6.542492431640625,0.02383527345955372,-0.005592633970081806,0.03328948840498924
1771082073664433700,6.55243359375,0.0270310640335083,-0.005592633970081806,0.0354200154542923
1771082073674375000,6.562375,0.030226856470108032,-0.0002663159102667123,0.036485280841588974
1771082073684316000,6.57231591796875,0.030226856470108032,0.00612526573240757,0.032224226742982864
1771082073694257200,6.582257080078125,0.025965800508856773,0.014647374860942364,0.029028434306383133
1771082073714139400,6.602139404296875,0.005725792143493891,0.02210422046482563,0.013049479573965073
1771082073724080600,6.61208056640625,-0.002796316985040903,0.023169483989477158,0.0023968431632965803
1771082073734021600,6.622021728515625,-0.005992108024656773,0.01784316636621952,-0.008255792781710625
1771082073743963000,6.631962890625,-0.002796316985040903,0.007190529722720385,-0.01784316636621952
1771082073753903900,6.64190380859375,0.001464737462811172,0.0007989477599039674,-0.019973693415522575
1771082073763845000,6.65184521484375,0.005725792143493891,-0.0023968431632965803,-0.015712639316916466
1771082073773786400,6.661786376953125,0.00892158318310976,-0.006657897960394621,-0.003994738683104515
1771082073783727400,6.671727294921875,0.004660528618842363,-0.00985368900001049,0.007723161485046148
1771082073793668600,6.681668701171875,-0.0006657897611148655,-0.005592633970081806,0.020506324246525764
1771082073803609600,6.691609619140625,-0.009187898598611355,-0.0023968431632965803,0.026897907257080078
1771082073813550800,6.70155078125,-0.01664474420249462,0.0007989477599039674,0.02263685315847397
1771082073823492000,6.7114921875,-0.02090579830110073,0.010386320762336254,0.010918952524662018
1771082073833433000,6.72143310546875,-0.012383690103888512,0.02210422046482563,-0.0018642114009708166
1771082073843374300,6.731374267578125,0.001464737462811172,0.027430538088083267,-0.012516847811639309
1771082073853315300,6.7413154296875,0.016378428786993027,0.025300011038780212,-0.016777902841567993
1771082073863256600,6.751256591796875,0.0270310640335083,0.010386320762336254,-0.012516847811639309
1771082073873197800,6.76119775390625,0.025965800508856773,-0.01837579719722271,-0.0050600022077560425
1771082073883138800,6.771138916015625,0.01957421936094761,-0.04181159660220146,0.0034621069207787514
1771082073893080000,6.781080078125,0.016378428786993027,-0.04607265070080757,0.00985368900001049
1771082073903021000,6.79102099609375,0.01318263728171587,-0.031158961355686188,0.007723161485046148
1771082073912962300,6.80096240234375,0.012117373757064342,-0.007723161485046148,0.005592633970081806
1771082073922903600,6.810903564453125,0.012117373757064342,0.013582111336290836,0.001331579522229731
1771082073932844500,6.820844482421875,0.011052110232412815,0.015712639316916466,-0.002929474925622344
1771082073952726800,6.840726806640625,0.01318263728171587,-0.0002663159102667123,-0.0050600022077560425
1771082073962668000,6.85066796875,0.016378428786993027,-0.0002663159102667123,0.0023968431632965803
1771082073972609300,6.860609375,0.01957421936094761,0.0050600022077560425,0.011984216049313545
1771082073982550300,6.87055029296875,0.020639482885599136,0.003994738683104515,0.02157158963382244
1771082073992491500,6.880491455078125,0.021704746410250664,-0.0023968431632965803,0.01837579719722271
1771082074002432500,6.8904326171875,0.025965800508856773,-0.005592633970081806,0.006657897960394621
1771082074012373800,6.900373779296875,0.030226856470108032,-0.0023968431632965803,-0.009321057237684727
1771082074022315000,6.91031494140625,0.028096329420804977,-0.0002663159102667123,-0.01784316636621952
1771082074032256000,6.920256103515625,0.02277000993490219,0.010386320762336254,-0.014647374860942364
1771082074042197200,6.930197265625,0.014247900806367397,0.023169483989477158,-0.002929474925622344
1771082074052138200,6.94013818359375,0.012117373757064342,0.025300011038780212,0.011984216049313545
1771082074062079500,6.95007958984375,0.0153131652623415,0.016777902841567993,0.02263685315847397
1771082074072020700,6.960020751953125,0.021704746410250664,-0.001331579522229731,0.024767380207777023
1771082074081961700,6.969961669921875,0.024900536984205246,-0.02263685315847397,0.02263685315847397
1771082074091903000,6.979903076171875,0.024900536984205246,-0.026897907257080078,0.02263685315847397
1771082074101844000,6.989843994140625,0.01850895583629608,-0.01837579719722271,0.02263685315847397
1771082074111785200,6.99978515625,0.011052110232412815,-0.00985368900001049,0.020506324246525764
1771082074121726500,7.0097265625,0.006791055668145418,-0.0034621069207787514,0.013049479573965073
1771082074131667500,7.01966748046875,0.007856319658458233,0.002929474925622344,0.005592633970081806
1771082074141608700,7.029608642578125,0.012117373757064342,0.010386320762336254,0.0023968431632965803
1771082074151549700,7.0395498046875,0.01318263728171587,0.007190529722720385,0.004527370445430279
1771082074161491000,7.049490966796875,0.007856319658458233,-0.006657897960394621,0.010918952524662018
1771082074171432200,7.05943212890625,0.001464737462811172,-0.015180006623268127,0.02263685315847397
1771082074181373200,7.069373291015625,-0.002796316985040903,-0.019441060721874237,0.03435475379228592
1771082074191314400,7.079314453125,-0.004926844500005245,-0.02263685315847397,0.036485280841588974
1771082074201255400,7.08925537109375,-0.003861580742523074,-0.0141147430986166,0.031158961355686188
1771082074211196700,7.09919677734375,0.001464737462811172,0.007190529722720385,0.02157158963382244
1771082074221138000,7.109137939453125,0.004660528618842363,0.012516847811639309,0.011984216049313545
1771082074231079000,7.119078857421875,0.001464737462811172,-0.007723161485046148,0.001331579522229731
1771082074241020200,7.129020263671875,-0.003861580742523074,-0.031158961355686188,-0.008255792781710625
1771082074250961200,7.138961181640625,-0.012383690103888512,-0.048203181475400925,-0.016777902841567993
1771082074260902400,7.14890234375,-0.019840534776449203,-0.05033370852470398,-0.02636527456343174
1771082074270843600,7.15884375,-0.024101590737700462,-0.03328948840498924,-0.030626330524683
1771082074280784600,7.16878466796875,-0.023036325350403786,-0.006657897960394621,-0.02636527456343174
1771082074300667000,7.1886669921875,-0.012383690103888512,0.008255792781710625,-0.002929474925622344
1771082074320549400,7.20854931640625,0.0025300011038780212,-0.013049479573965073,0.03435475379228592
1771082074340431600,7.228431640625,0.012117373757064342,0.007190529722720385,0.03755054250359535
1771082074360313900,7.24831396484375,0.03235738351941109,0.015712639316916466,0.020506324246525764
1771082074370255000,7.258255126953125,0.040879491716623306,0.002929474925622344,0.016245270147919655
1771082074380196000,7.268196044921875,0.040879491716623306,-0.01837579719722271,0.0141147430986166
1771082074390137300,7.278137451171875,0.03555317223072052,-0.03328948840498924,0.017310533672571182
1771082074400078300,7.288078369140625,0.024900536984205246,-0.029028434306383133,0.020506324246525764
1771082074419960800,7.3079609375,0.009986846707761288,-0.008788425475358963,0.008788425475358963
1771082074429901800,7.31790185546875,0.006791055668145418,-0.0034621069207787514,-0.003994738683104515
1771082074439843000,7.327843017578125,0.007856319658458233,-0.0034621069207787514,-0.015712639316916466
1771082074449784000,7.3377841796875,0.0153131652623415,-0.001331579522229731,-0.01784316636621952
1771082074459725300,7.347725341796875,0.02383527345955372,-0.004527370445430279,-0.008255792781710625
1771082074469666600,7.35766650390625,0.028096329420804977,-0.006657897960394621,0.010918952524662018
1771082074479607600,7.367607666015625,0.024900536984205246,-0.0034621069207787514,0.03435475379228592
1771082074489548800,7.377548828125,0.0153131652623415,0.0018642114009708166,0.052464235574007034
1771082074499489800,7.38748974609375,0.004660528618842363,0.010386320762336254,0.0588558167219162
1771082074509431000,7.39743115234375,-0.002796316985040903,0.014647374860942364,0.05139897018671036
1771082074519372300,7.407372314453125,-0.005992108024656773,0.023169483989477158,0.03009369783103466
1771082074539254500,7.427254638671875,0.004660528618842363,0.02636527456343174,-0.007190529722720385
1771082074549195500,7.437195556640625,0.012117373757064342,0.011451584286987782,-0.012516847811639309
1771082074559136800,7.44713671875,0.014247900806367397,-0.004527370445430279,-0.007190529722720385
1771082074569078000,7.457078125,0.006791055668145418,-0.00985368900001049,0.007723161485046148
1771082074579019000,7.46701904296875,-0.003861580742523074,-0.010918952524662018,0.01837579719722271
1771082074588960300,7.476960205078125,-0.013448953628540039,-0.013049479573965073,0.02157158963382244
1771082074598901200,7.4869013671875,-0.014514217153191566,-0.010918952524662018,0.01837579719722271
1771082074608842500,7.496842529296875,-0.013448953628540039,-0.007723161485046148,0.011984216049313545
1771082074618783700,7.50678369140625,-0.012383690103888512,-0.0034621069207787514,0.0034621069207787514
1771082074628724700,7.516724853515625,-0.009187898598611355,0.0018642114009708166,0.001331579522229731
1771082074638666000,7.526666015625,-0.0070573715493083,0.0050600022077560425,0.0023968431632965803
1771082074658548200,7.54654833984375,-0.0070573715493083,0.011451584286987782,0.020506324246525764
1771082074678430500,7.566430419921875,-0.010253162123262882,0.009321057237684727,0.017310533672571182
1771082074688371700,7.576371826171875,-0.010253162123262882,0.014647374860942364,0.006657897960394621
1771082074698313000,7.58631298828125,-0.005992108024656773,0.012516847811639309,-0.002929474925622344
1771082074708254000,7.59625390625,-0.003861580742523074,0.008255792781710625,-0.007190529722720385
1771082074718195200,7.6061953125,-0.005992108024656773,0.010386320762336254,-0.0007989477599039674
1771082074728136200,7.61613623046875,-0.005992108024656773,0.013582111336290836,0.00985368900001049
1771082074738077400,7.626077392578125,-0.0017310534603893757,0.011451584286987782,0.02263685315847397
1771082074748018700,7.636018798828125,0.004660528618842363,0.00612526573240757,0.027963170781731606
1771082074757959700,7.645959716796875,0.005725792143493891,-0.0002663159102667123,0.02583264373242855
1771082074767901000,7.65590087890625,0.004660528618842363,-0.005592633970081806,0.017310533672571182
1771082074777842000,7.665842041015625,0.001464737462811172,-0.011984216049313545,0.006657897960394621
1771082074787783200,7.675783203125,-0.003861580742523074,-0.017310533672571182,-0.002929474925622344
1771082074797724400,7.685724365234375,-0.008122635073959827,-0.00985368900001049,-0.00612526573240757
1771082074807665400,7.69566552734375,-0.011318426579236984,-0.005592633970081806,-0.008255792781710625
1771082074817606700,7.705606689453125,-0.011318426579236984,-0.0023968431632965803,-0.008255792781710625
1771082074827547600,7.715547607421875,-0.008122635073959827,0.00612526573240757,-0.008255792781710625
1771082074837489000,7.725489013671875,-0.005992108024656773,0.012516847811639309,-0.00612526573240757
1771082074847430100,7.73543017578125,-0.009187898598611355,0.007190529722720385,-0.007190529722720385
1771082074857371100,7.74537109375,-0.013448953628540039,-0.00985368900001049,-0.00612526573240757
1771082074867312400,7.7553125,-0.018775271251797676,-0.026897907257080078,-0.010386320762336254
1771082074877253400,7.76525341796875,-0.02090579830110073,-0.03435475379228592,-0.012516847811639309
1771082074887194600,7.775194580078125,-0.015579480677843094,-0.026897907257080078,-0.015712639316916466
1771082074897135900,7.785135986328125,-0.0070573715493083,-0.010918952524662018,-0.010386320762336254
1771082074907076900,7.795076904296875,-0.0017310534603893757,0.00612526573240757,-0.0050600022077560425
1771082074917018000,7.80501806640625,0.0003994738799519837,0.015712639316916466,-0.0018642114009708166
1771082074926959000,7.814958984375,-0.002796316985040903,0.007190529722720385,-0.007190529722720385
1771082074946841600,7.834841552734375,-0.010253162123262882,-0.023702116683125496,-0.027430538088083267
1771082074956782600,7.844782470703125,-0.013448953628540039,-0.02157158963382244,-0.030626330524683
1771082074966723800,7.854723876953125,-0.014514217153191566,-0.011984216049313545,-0.029561065137386322
1771082074976664800,7.864664794921875,-0.013448953628540039,0.0018642114009708166,-0.023169483989477158
1771082074986606000,7.874606201171875,-0.009187898598611355,0.013582111336290836,-0.015712639316916466
1771082074996547300,7.88454736328125,-0.002796316985040903,0.016777902841567993,-0.008255792781710625
1771082075006488300,7.89448828125,0.005725792143493891,0.018908429890871048,-0.0007989477599039674
1771082075016429600,7.9044296875,0.014247900806367397,0.018908429890871048,0.008788425475358963
1771082075026370600,7.91437060546875,0.020639482885599136,0.015712639316916466,0.016245270147919655
1771082075036311800,7.924311767578125,0.02383527345955372,0.016777902841567993,0.019441060721874237
1771082075046253000,7.934253173828125,0.028096329420804977,0.016777902841567993,0.020506324246525764
1771082075056194000,7.944194091796875,0.029161592945456505,0.0007989477599039674,0.016245270147919655
1771082075066135300,7.95413525390625,0.024900536984205246,-0.013049479573965073,0.013049479573965073
1771082075076076300,7.964076171875,0.01957421936094761,-0.015180006623268127,0.0141147430986166
1771082075086017500,7.974017578125,0.012117373757064342,-0.00985368900001049,0.0141147430986166
1771082075095958800,7.983958740234375,0.009986846707761288,0.0018642114009708166,0.0141147430986166
1771082075105899800,7.993899658203125,0.011052110232412815,0.01784316636621952,0.013049479573965073
1771082075115841000,8.003841064453125,0.017443692311644554,0.028495801612734795,0.006657897960394621
1771082075125782000,8.013781982421875,0.024900536984205246,0.02210422046482563,0.001331579522229731
1771082075135723300,8.02372314453125,0.028096329420804977,0.0018642114009708166,-0.0018642114009708166
1771082075145664500,8.03366455078125,0.021704746410250664,-0.0141147430986166,-0.002929474925622344
1771082075155605500,8.04360546875,0.009986846707761288,-0.01837579719722271,-0.0018642114009708166
1771082075165546800,8.053546630859374,-0.002796316985040903,-0.013049479573965073,-0.0018642114009708166
1771082075175487700,8.06348779296875,-0.012383690103888512,-0.004527370445430279,0.0002663159102667123
1771082075185429000,8.073428955078125,-0.01664474420249462,0.010386320762336254,-0.002929474925622344
1771082075195370200,8.083370361328125,-0.015579480677843094,0.029561065137386322,-0.002929474925622344
1771082075205311200,8.093311279296875,-0.012383690103888512,0.04127896577119827,-0.002929474925622344
1771082075215252500,8.10325244140625,-0.005992108024656773,0.04234423115849495,-0.0007989477599039674
1771082075225193500,8.113193359375,0.0025300011038780212,0.030626330524683,0.0034621069207787514
1771082075235134700,8.123134765625,0.00892158318310976,0.010386320762336254,0.007723161485046148
1771082075245076000,8.133075927734374,0.011052110232412815,-0.011984216049313545,0.010918952524662018
1771082075255017000,8.143016845703125,0.009986846707761288,-0.02583264373242855,0.007723161485046148
1771082075264958200,8.152958251953125,0.006791055668145418,-0.027963170781731606,0.0002663159102667123
1771082075274899200,8.162899169921875,0.004660528618842363,-0.020506324246525764,-0.009321057237684727
1771082075284840400,8.17284033203125,0.0025300011038780212,-0.008788425475358963,-0.016777902841567993
1771082075294781700,8.18278173828125,0.0003994738799519837,0.00612526573240757,-0.016777902841567993
1771082075304722700,8.19272265625,-0.0017310534603893757,0.013582111336290836,-0.011451584286987782
1771082075314664000,8.202663818359374,-0.003861580742523074,0.014647374860942364,-0.007190529722720385
1771082075324605000,8.21260498046875,-0.003861580742523074,0.007190529722720385,-0.00612526573240757
1771082075334546200,8.222546142578125,-0.0017310534603893757,0.002929474925622344,-0.002929474925622344
1771082075344487200,8.232487060546875,0.001464737462811172,0.0007989477599039674,0.001331579522229731
1771082075354428400,8.242428466796875,0.0025300011038780212,-0.0034621069207787514,0.0023968431632965803
1771082075374310700,8.262310546875,0.0003994738799519837,-0.0002663159102667123,0.001331579522229731
1771082075384251600,8.272251708984374,0.0003994738799519837,0.0018642114009708166,0.0002663159102667123
1771082075404134000,8.2921337890625,-0.002796316985040903,0.003994738683104515,-0.0018642114009708166
1771082075424016100,8.31201611328125,-0.011318426579236984,0.0007989477599039674,0.006657897960394621
1771082075443898000,8.331898193359375,-0.01664474420249462,-0.011984216049313545,0.004527370445430279
1771082075453839400,8.34183935546875,-0.011318426579236984,-0.00985368900001049,-0.002929474925622344
1771082075463780400,8.3517802734375,-0.0017310534603893757,-0.004527370445430279,-0.011451584286987782
1771082075473721600,8.3617216796875,0.004660528618842363,0.008255792781710625,-0.015712639316916466
1771082075483662600,8.37166259765625,0.006791055668145418,0.016777902841567993,-0.012516847811639309
1771082075493603600,8.381603515625,0.0025300011038780212,0.013582111336290836,-0.003994738683104515
1771082075503544800,8.391544921875,0.0003994738799519837,0.009321057237684727,0.008788425475358963
1771082075513485800,8.40148583984375,-0.002796316985040903,0.00612526573240757,0.02263685315847397
1771082075523427000,8.411427001953125,-0.004926844500005245,-0.004527370445430279,0.032224226742982864
1771082075533368000,8.4213681640625,-0.0070573715493083,-0.0141147430986166,0.031158961355686188
1771082075543309000,8.43130908203125,-0.005992108024656773,-0.019441060721874237,0.023702116683125496
1771082075553250300,8.441250244140624,-0.002796316985040903,-0.02583264373242855,0.0141147430986166
1771082075573132300,8.46113232421875,-0.002796316985040903,0.0007989477599039674,0.0023968431632965803
1771082075593014500,8.4810146484375,0.001464737462811172,0.03808317333459854,0.017310533672571182
1771082075612896800,8.500896728515626,-0.0017310534603893757,0.02210422046482563,0.03009369783103466
1771082075632779000,8.520779052734374,-0.010253162123262882,-0.03435475379228592,0.013049479573965073
1771082075652661200,8.5406611328125,-0.024101590737700462,-0.03968106955289841,-0.012516847811639309
1771082075662602500,8.5506025390625,-0.030493171885609627,-0.01837579719722271,-0.01784316636621952
1771082075672543500,8.56054345703125,-0.03688475489616394,0.002929474925622344,-0.01784316636621952
1771082075682484700,8.570484619140625,-0.04008054360747337,0.018908429890871048,-0.013582111336290836
1771082075692425700,8.58042578125,-0.034754227846860886,0.030626330524683,-0.002929474925622344
1771082075712308200,8.60030810546875,-0.008122635073959827,0.018908429890871048,0.013049479573965073
1771082075732190500,8.6201904296875,0.006791055668145418,-0.016245270147919655,0.016245270147919655
1771082075752072700,8.64007275390625,0.011052110232412815,-0.01837579719722271,0.015180006623268127
1771082075771955000,8.659954833984376,0.012117373757064342,0.002929474925622344,0.013049479573965073
1771082075781896200,8.669896240234374,0.014247900806367397,0.013582111336290836,0.006657897960394621
1771082075801778400,8.6897783203125,0.014247900806367397,0.021038956940174103,-0.010386320762336254
1771082075821660700,8.70966064453125,0.004660528618842363,-0.01837579719722271,-0.015712639316916466
1771082075841543200,8.729543212890626,0.0003994738799519837,-0.02263685315847397,-0.010386320762336254
1771082075851484200,8.739484130859376,0.004660528618842363,-0.008788425475358963,-0.009321057237684727
1771082075871366400,8.759366455078125,0.012117373757064342,0.02210422046482563,-0.00612526573240757
1771082075881307600,8.7693076171875,0.011052110232412815,0.015712639316916466,-0.0050600022077560425
1771082075891249000,8.779248779296875,0.005725792143493891,0.009321057237684727,0.001331579522229731
1771082075901190000,8.78918994140625,-0.0017310534603893757,-0.001331579522229731,0.006657897960394621
1771082075911131100,8.799131103515625,-0.010253162123262882,-0.004527370445430279,0.008788425475358963
1771082075931013400,8.819013427734374,-0.005992108024656773,0.003994738683104515,0.0002663159102667123
1771082075950895600,8.8388955078125,0.0035952648613601923,0.011451584286987782,-0.008255792781710625
1771082075960836900,8.8488369140625,0.005725792143493891,-0.0034621069207787514,-0.014647374860942364
1771082075970777900,8.85877783203125,0.0035952648613601923,-0.017310533672571182,-0.015712639316916466
1771082075980719000,8.868718994140625,-0.0006657897611148655,-0.0141147430986166,-0.010386320762336254
1771082076000601300,8.888601318359376,-0.013448953628540039,0.0018642114009708166,-0.0007989477599039674
1771082076010542600,8.89854248046875,-0.01771000772714615,0.0007989477599039674,-0.0050600022077560425
1771082076020483600,8.908483642578124,-0.02090579830110073,0.0018642114009708166,-0.013582111336290836
1771082076030424800,8.9184248046875,-0.019840534776449203,-0.001331579522229731,-0.02210422046482563
1771082076040366000,8.928365966796875,-0.011318426579236984,-0.0034621069207787514,-0.018908429890871048
1771082076050307000,8.93830712890625,-0.0017310534603893757,0.007190529722720385,-0.003994738683104515
1771082076060248300,8.948248291015625,0.0025300011038780212,0.021038956940174103,0.011984216049313545
1771082076070189300,8.958189208984376,0.004660528618842363,0.023169483989477158,0.02263685315847397
1771082076090071800,8.97807177734375,0.006791055668145418,0.0018642114009708166,0.01837579719722271
1771082076100012800,8.9880126953125,0.0025300011038780212,-0.0023968431632965803,0.013049479573965073
1771082076109954000,8.9979541015625,-0.0070573715493083,-0.0034621069207787514,0.005592633970081806
1771082076129836300,9.017836181640625,-0.013448953628540039,0.007190529722720385,-0.0018642114009708166
1771082076149718500,9.037718505859376,0.001464737462811172,0.012516847811639309,0.0023968431632965803
1771082076169600800,9.057600830078124,0.007856319658458233,-0.013049479573965073,0.0141147430986166
1771082076179542000,9.0675419921875,0.007856319658458233,-0.02263685315847397,0.02263685315847397
1771082076189483300,9.077483154296875,0.005725792143493891,-0.02263685315847397,0.026897907257080078
1771082076199424300,9.08742431640625,0.004660528618842363,-0.007723161485046148,0.027963170781731606
1771082076209365500,9.097365478515625,0.0025300011038780212,0.012516847811639309,0.02263685315847397
1771082076219306500,9.107306396484375,0.0003994738799519837,0.02210422046482563,0.011984216049313545
1771082076229247700,9.117247802734376,-0.0006657897611148655,0.021038956940174103,0.0023968431632965803
1771082076249130000,9.1371298828125,0.0025300011038780212,0.008255792781710625,0.0034621069207787514
1771082076259071200,9.1470712890625,-0.0006657897611148655,0.007190529722720385,0.015180006623268127
1771082076269012200,9.15701220703125,-0.0017310534603893757,0.008255792781710625,0.029028434306383133
1771082076278953500,9.166953369140625,0.0025300011038780212,0.011451584286987782,0.036485280841588974
1771082076288894700,9.176894775390625,0.0025300011038780212,0.0050600022077560425,0.03328948840498924
1771082076298835700,9.186835693359376,0.001464737462811172,-0.013049479573965073,0.02157158963382244
1771082076308777000,9.19677685546875,-0.004926844500005245,-0.031158961355686188,0.007723161485046148
1771082076318718000,9.206718017578124,-0.01664474420249462,-0.03968106955289841,-0.007190529722720385
1771082076328659200,9.2166591796875,-0.028362644836306572,-0.03861580789089203,-0.016777902841567993
1771082076348541400,9.23654150390625,-0.039015281945466995,-0.0034621069207787514,-0.02210422046482563
1771082076368423700,9.256423583984375,-0.01771000772714615,0.02636527456343174,-0.009321057237684727
1771082076378365000,9.266364990234376,-0.0070573715493083,0.027430538088083267,0.001331579522229731
1771082076388306200,9.27630615234375,0.001464737462811172,0.023169483989477158,0.0141147430986166
1771082076398247200,9.2862470703125,0.00892158318310976,0.014647374860942364,0.026897907257080078
1771082076408188400,9.2961884765625,0.012117373757064342,0.007190529722720385,0.0354200154542923
1771082076418129400,9.30612939453125,0.0153131652623415,0.00612526573240757,0.040746334940195084
1771082076438012000,9.326011962890625,0.02383527345955372,-0.008788425475358963,0.03328948840498924
1771082076447953000,9.335952880859375,0.02277000993490219,-0.008788425475358963,0.024767380207777023
1771082076457894100,9.34589404296875,0.021704746410250664,0.003994738683104515,0.020506324246525764
1771082076467835100,9.355835205078124,0.017443692311644554,0.010386320762336254,0.016245270147919655
1771082076477776400,9.3657763671875,0.01318263728171587,0.013582111336290836,0.015180006623268127
1771082076487717600,9.375717529296875,0.011052110232412815,0.014647374860942364,0.0141147430986166
1771082076497658600,9.38565869140625,0.00892158318310976,0.008255792781710625,0.010918952524662018
1771082076507600000,9.395599853515625,0.004660528618842363,-0.006657897960394621,0.0023968431632965803
1771082076517540900,9.405540771484375,-0.0006657897611148655,-0.03009369783103466,-0.012516847811639309
1771082076527482000,9.415482177734376,-0.008122635073959827,-0.04713791608810425,-0.023169483989477158
1771082076537423400,9.42542333984375,-0.015579480677843094,-0.03755054250359535,-0.02636527456343174
1771082076547364400,9.4353642578125,-0.019840534776449203,-0.016245270147919655,-0.023169483989477158
1771082076557305600,9.4453056640625,-0.019840534776449203,0.002929474925622344,-0.011451584286987782
1771082076567246600,9.45524658203125,-0.018775271251797676,0.015712639316916466,-0.0007989477599039674
1771082076577187800,9.465187744140625,-0.012383690103888512,0.023169483989477158,0.008788425475358963
1771082076587129000,9.475129150390625,-0.003861580742523074,0.016777902841567993,0.0141147430986166
1771082076597070000,9.485070068359375,0.004660528618842363,-0.0034621069207787514,0.01837579719722271
1771082076607011300,9.49501123046875,0.004660528618842363,-0.024767380207777023,0.017310533672571182
1771082076626893600,9.5148935546875,-0.003861580742523074,-0.010918952524662018,0.011984216049313545
1771082076646775800,9.53477587890625,-0.0006657897611148655,0.016777902841567993,0.008788425475358963
1771082076666658000,9.554657958984375,0.0003994738799519837,0.0007989477599039674,0.0023968431632965803
1771082076676599300,9.564599365234375,-0.003861580742523074,-0.015180006623268127,-0.0007989477599039674
1771082076686540500,9.57454052734375,-0.0070573715493083,-0.02157158963382244,0.0002663159102667123
1771082076696481500,9.5844814453125,-0.010253162123262882,-0.024767380207777023,0.0034621069207787514
1771082076706422800,9.5944228515625,-0.012383690103888512,-0.02583264373242855,0.005592633970081806
1771082076716363800,9.60436376953125,-0.014514217153191566,-0.015180006623268127,0.008788425475358963
1771082076726305000,9.614304931640625,-0.013448953628540039,0.0007989477599039674,0.011984216049313545
1771082076736246000,9.62424609375,-0.013448953628540039,0.014647374860942364,0.01837579719722271
1771082076746187000,9.63418701171875,-0.015579480677843094,0.024234747514128685,0.026897907257080078
1771082076756128300,9.644128173828125,-0.018775271251797676,0.013582111336290836,0.031158961355686188
1771082076766069200,9.6540693359375,-0.019840534776449203,-0.004527370445430279,0.027963170781731606
1771082076776010500,9.664010498046874,-0.01664474420249462,-0.011984216049313545,0.019441060721874237
1771082076785951500,9.673951416015624,-0.013448953628540039,-0.011984216049313545,0.008788425475358963
1771082076795892500,9.683892578125,-0.011318426579236984,-0.005592633970081806,0.0023968431632965803
1771082076805833700,9.693833740234375,-0.010253162123262882,0.009321057237684727,0.001331579522229731
1771082076815774700,9.703774658203125,-0.013448953628540039,0.027430538088083267,0.007723161485046148
1771082076825716000,9.713716064453125,-0.01664474420249462,0.021038956940174103,0.0141147430986166
1771082076835657000,9.723656982421875,-0.018775271251797676,-0.006657897960394621,0.016245270147919655
1771082076845598000,9.733597900390626,-0.019840534776449203,-0.024767380207777023,0.017310533672571182
1771082076855539200,9.743539306640624,-0.015579480677843094,-0.02157158963382244,0.015180006623268127
1771082076865480200,9.753480224609374,-0.009187898598611355,-0.008788425475358963,0.011984216049313545
1771082076875421400,9.76342138671875,-0.005992108024656773,0.003994738683104515,0.0034621069207787514
1771082076885362400,9.773362548828125,-0.005992108024656773,0.012516847811639309,-0.0050600022077560425
1771082076895303400,9.783303466796875,-0.005992108024656773,0.00612526573240757,-0.013582111336290836
1771082076905244700,9.79324462890625,-0.002796316985040903,-0.005592633970081806,-0.014647374860942364
1771082076915185700,9.803185546875,0.004660528618842363,-0.015180006623268127,-0.007190529722720385
1771082076925127000,9.813126953125,0.007856319658458233,-0.015180006623268127,0.006657897960394621
1771082076935068000,9.82306787109375,0.009986846707761288,-0.00985368900001049,0.023702116683125496
1771082076945009000,9.8330087890625,0.012117373757064342,0.0018642114009708166,0.03435475379228592
1771082076964891100,9.85289111328125,0.012117373757064342,-0.00985368900001049,0.01837579719722271
1771082076974832400,9.862832275390625,0.00892158318310976,-0.019441060721874237,0.0002663159102667123
1771082076984773400,9.8727734375,0.001464737462811172,-0.026897907257080078,-0.016777902841567993
1771082076994714400,9.88271435546875,-0.003861580742523074,-0.032224226742982864,-0.027430538088083267
1771082077004655600,9.892655517578126,-0.010253162123262882,-0.03435475379228592,-0.030626330524683
1771082077014596600,9.9025966796875,-0.015579480677843094,-0.03755054250359535,-0.030626330524683
1771082077024537900,9.912537841796874,-0.015579480677843094,-0.03755054250359535,-0.028495801612734795
1771082077034478800,9.922478759765625,-0.009187898598611355,-0.02263685315847397,-0.021038956940174103
1771082077044419800,9.932419921875,0.0035952648613601923,-0.0002663159102667123,-0.008255792781710625
1771082077054361000,9.942361083984375,0.01318263728171587,0.010386320762336254,0.0002663159102667123
1771082077064302000,9.952302001953125,0.020639482885599136,0.009321057237684727,0.007723161485046148
1771082077074243300,9.962243408203125,0.03235738351941109,0.014647374860942364,0.017310533672571182
1771082077084184600,9.9721845703125,0.04301001876592636,0.016777902841567993,0.03009369783103466
1771082077094125600,9.98212548828125,0.049401599913835526,0.015712639316916466,0.04181159660220146
1771082077104066800,9.99206689453125,0.049401599913835526,0.010386320762336254,0.052464235574007034
1771082077114008000,10.002008056640625,0.04301001876592636,-0.001331579522229731,0.05459476262331009
1771082077123949000,10.011948974609375,0.03448791056871414,-0.013049479573965073,0.052464235574007034
1771082077133890300,10.021890380859375,0.03129211813211441,-0.013049479573965073,0.04607265070080757
1771082077143831300,10.031831298828125,0.030226856470108032,-0.017310533672571182,0.03435475379228592
1771082077153772500,10.0417724609375,0.024900536984205246,-0.026897907257080078,0.02263685315847397
1771082077163713800,10.0517138671875,0.020639482885599136,-0.024767380207777023,0.00985368900001049
1771082077173654800,10.06165478515625,0.01850895583629608,-0.01837579719722271,-0.003994738683104515
1771082077183596000,10.071595947265624,0.01318263728171587,-0.013049479573965073,-0.014647374860942364
1771082077193537000,10.081537109375,0.00892158318310976,-0.007723161485046148,-0.016777902841567993
1771082077203478300,10.091478271484375,0.001464737462811172,-0.006657897960394621,-0.014647374860942364
1771082077213419500,10.10141943359375,-0.002796316985040903,-0.011984216049313545,-0.008255792781710625
1771082077223360500,10.111360595703125,-0.002796316985040903,-0.007723161485046148,0.0023968431632965803
1771082077233301800,10.1213017578125,0.0003994738799519837,-0.0002663159102667123,0.016245270147919655
1771082077243242800,10.13124267578125,0.0003994738799519837,0.0018642114009708166,0.024767380207777023
1771082077253184000,10.14118408203125,0.0003994738799519837,0.009321057237684727,0.031158961355686188
1771082077263125200,10.151125244140625,-0.0017310534603893757,0.015712639316916466,0.03328948840498924
1771082077273066200,10.161066162109375,-0.003861580742523074,0.010386320762336254,0.026897907257080078
1771082077283007500,10.171007568359375,-0.0070573715493083,-0.00985368900001049,0.013049479573965073
1771082077292948500,10.180948486328125,-0.013448953628540039,-0.02157158963382244,-0.0050600022077560425
1771082077312831000,10.2008310546875,-0.019840534776449203,-0.027963170781731606,-0.027430538088083267
1771082077332713200,10.220713134765624,-0.013448953628540039,-0.015180006623268127,-0.024234747514128685
1771082077342654200,10.230654296875,-0.005992108024656773,-0.016245270147919655,-0.015712639316916466
1771082077352595500,10.240595458984375,0.0003994738799519837,-0.024767380207777023,-0.00612526573240757
1771082077362536700,10.25053662109375,0.004660528618842363,-0.032224226742982864,0.005592633970081806
1771082077382419000,10.2704189453125,-0.0006657897611148655,-0.015180006623268127,0.029028434306383133
1771082077402301200,10.29030126953125,-0.0006657897611148655,0.003994738683104515,0.032224226742982864
1771082077422183400,10.310183349609375,0.0035952648613601923,0.009321057237684727,0.007723161485046148
1771082077442065700,10.330065673828125,0.00892158318310976,0.0007989477599039674,-0.0050600022077560425
1771082077461948200,10.3499482421875,0.0003994738799519837,-0.0141147430986166,0.0023968431632965803
1771082077471889200,10.35988916015625,-0.0017310534603893757,-0.016245270147919655,0.008788425475358963
1771082077481830400,10.369830322265624,-0.0017310534603893757,-0.017310533672571182,0.013049479573965073
1771082077501712600,10.389712646484375,-0.002796316985040903,-0.016245270147919655,0.019441060721874237
1771082077511654000,10.39965380859375,-0.0017310534603893757,-0.010918952524662018,0.02157158963382244
1771082077521595000,10.409594970703125,0.0003994738799519837,-0.006657897960394621,0.023702116683125496
1771082077531536100,10.4195361328125,0.005725792143493891,-0.0023968431632965803,0.026897907257080078
1771082077541477000,10.42947705078125,0.006791055668145418,0.0007989477599039674,0.027963170781731606
1771082077551418400,10.43941845703125,0.006791055668145418,-0.004527370445430279,0.02157158963382244
1771082077561359600,10.449359619140624,0.004660528618842363,-0.019441060721874237,0.008788425475358963
1771082077571300600,10.459300537109375,0.001464737462811172,-0.02583264373242855,-0.0018642114009708166
1771082077581241900,10.469241943359375,0.0003994738799519837,-0.019441060721874237,-0.002929474925622344
1771082077601124000,10.4891240234375,-0.0070573715493083,-0.0023968431632965803,0.0023968431632965803
1771082077611065300,10.4990654296875,-0.003861580742523074,0.008255792781710625,0.008788425475358963
1771082077630947600,10.518947509765624,0.006791055668145418,0.003994738683104515,0.007723161485046148
1771082077640888600,10.528888671875,0.012117373757064342,-0.017310533672571182,0.001331579522229731
1771082077650829800,10.538829833984375,0.012117373757064342,-0.03968106955289841,-0.00612526573240757
1771082077660771000,10.54877099609375,0.007856319658458233,-0.05033370852470398,-0.012516847811639309
1771082077670712000,10.558712158203125,0.0025300011038780212,-0.036485280841588974,-0.012516847811639309
1771082077690594300,10.57859423828125,-0.008122635073959827,0.011451584286987782,0.007723161485046148
1771082077700535600,10.58853564453125,-0.011318426579236984,0.02636527456343174,0.013049479573965073
1771082077710476800,10.598476806640624,-0.0070573715493083,0.028495801612734795,0.0141147430986166
1771082077720417800,10.608417724609374,0.005725792143493891,0.023169483989477158,0.015180006623268127
1771082077740300000,10.628300048828125,0.024900536984205246,-0.007723161485046148,0.024767380207777023
1771082077750241300,10.6382412109375,0.0270310640335083,-0.017310533672571182,0.02157158963382244
1771082077760182500,10.6481826171875,0.030226856470108032,-0.017310533672571182,0.01837579719722271
1771082077770123500,10.65812353515625,0.03235738351941109,-0.015180006623268127,0.016245270147919655
1771082077790005800,10.678005859375,0.021704746410250664,-0.005592633970081806,0.020506324246525764
1771082077799947000,10.687947021484375,0.01318263728171587,0.0018642114009708166,0.026897907257080078
1771082077809888000,10.697887939453125,0.004660528618842363,0.00612526573240757,0.03009369783103466
1771082077819829200,10.707829345703125,-0.0017310534603893757,0.003994738683104515,0.02583264373242855
1771082077839711200,10.727711181640625,-0.004926844500005245,-0.010918952524662018,0.006657897960394621
1771082077849652500,10.737652587890626,-0.003861580742523074,-0.020506324246525764,-0.0007989477599039674
1771082077859593500,10.747593505859374,-0.005992108024656773,-0.01837579719722271,-0.002929474925622344
1771082077879475700,10.767475830078125,-0.015579480677843094,-0.001331579522229731,0.015180006623268127
1771082077899358000,10.78735791015625,-0.024101590737700462,0.018908429890871048,0.03009369783103466
1771082077919240200,10.807240234375,-0.018775271251797676,0.016777902841567993,0.010918952524662018
1771082077939122200,10.8271220703125,-0.003861580742523074,-0.0002663159102667123,-0.00612526573240757
1771082077949063700,10.837063720703124,-0.009187898598611355,-0.007723161485046148,-0.0050600022077560425
1771082077959005000,10.8470048828125,-0.019840534776449203,-0.015180006623268127,0.001331579522229731
1771082077978887000,10.866886962890625,-0.03262370079755783,-0.03328948840498924,0.001331579522229731
1771082077998769200,10.88676904296875,-0.026232117787003517,-0.00985368900001049,-0.010386320762336254
1771082078018651400,10.9066513671875,-0.013448953628540039,0.009321057237684727,-0.0050600022077560425
1771082078038533600,10.92653369140625,-0.0070573715493083,0.002929474925622344,0.02263685315847397
1771082078048474600,10.936474609375,-0.0070573715493083,0.0007989477599039674,0.03328948840498924
1771082078068356900,10.95635693359375,-0.003861580742523074,0.0050600022077560425,0.032224226742982864
1771082078088239000,10.976239013671876,0.005725792143493891,0.018908429890871048,0.016245270147919655
1771082078098180000,10.98618017578125,0.006791055668145418,0.021038956940174103,0.006657897960394621
1771082078108121300,10.996121337890624,0.004660528618842363,0.015712639316916466,0.001331579522229731
1771082078128003300,11.01600341796875,-0.009187898598611355,-0.0002663159102667123,0.007723161485046148
1771082078147885600,11.035885498046875,-0.014514217153191566,-0.0141147430986166,0.013049479573965073
1771082078167767800,11.055767822265626,-0.0017310534603893757,-0.010918952524662018,0.008788425475358963
1771082078177709000,11.065708984375,0.004660528618842363,-0.0141147430986166,0.0034621069207787514
1771082078187650000,11.075650146484374,0.005725792143493891,-0.011984216049313545,0.0034621069207787514
1771082078197591300,11.08559130859375,0.0025300011038780212,-0.0002663159102667123,0.007723161485046148
1771082078207532300,11.0955322265625,-0.009187898598611355,0.0050600022077560425,0.011984216049313545
1771082078217473500,11.1054736328125,-0.02197106182575226,0.0050600022077560425,0.011984216049313545
1771082078227414800,11.115414794921875,-0.0294279083609581,-0.0034621069207787514,0.007723161485046148
1771082078247297000,11.135297119140626,-0.02197106182575226,-0.013049479573965073,-0.0007989477599039674
1771082078267179300,11.15517919921875,-0.004926844500005245,0.003994738683104515,0.007723161485046148
1771082078287061500,11.1750615234375,0.001464737462811172,-0.001331579522229731,0.013049479573965073
1771082078297002800,11.185002685546875,-0.0017310534603893757,-0.019441060721874237,0.006657897960394621
1771082078316885000,11.204885009765626,-0.02516685426235199,-0.05459476262331009,-0.015712639316916466
1771082078336767200,11.224767333984374,-0.03262370079755783,-0.01837579719722271,-0.02636527456343174
1771082078346708500,11.23470849609375,-0.028362644836306572,0.007190529722720385,-0.023169483989477158
1771082078366590700,11.2545908203125,-0.014514217153191566,0.021038956940174103,-0.003994738683104515
1771082078386473000,11.274472900390625,0.00892158318310976,-0.0023968431632965803,0.02263685315847397
1771082078406355200,11.294355224609374,0.02277000993490219,-0.0141147430986166,0.040746334940195084
1771082078426237700,11.31423779296875,0.024900536984205246,-0.017310533672571182,0.040746334940195084
1771082078446120000,11.334119873046875,0.028096329420804977,-0.017310533672571182,0.02583264373242855
1771082078456061000,11.34406103515625,0.02383527345955372,-0.0141147430986166,0.02157158963382244
1771082078466002200,11.354002197265626,0.01957421936094761,0.0018642114009708166,0.02157158963382244
1771082078475943400,11.363943359375,0.012117373757064342,0.012516847811639309,0.023702116683125496
1771082078495825700,11.38382568359375,0.006791055668145418,0.013582111336290836,0.015180006623268127
1771082078505766700,11.3937666015625,0.012117373757064342,0.010386320762336254,0.006657897960394621
1771082078515708000,11.4037080078125,0.017443692311644554,0.007190529722720385,-0.0007989477599039674
1771082078525649200,11.413649169921875,0.016378428786993027,0.0018642114009708166,-0.0007989477599039674
1771082078545531400,11.433531494140626,-0.002796316985040903,-0.004527370445430279,0.013049479573965073
1771082078555472400,11.443472412109376,-0.012383690103888512,-0.0002663159102667123,0.01837579719722271
1771082078565413600,11.45341357421875,-0.01664474420249462,0.00612526573240757,0.019441060721874237
1771082078575355000,11.46335498046875,-0.01664474420249462,0.009321057237684727,0.011984216049313545
1771082078585296000,11.4732958984375,-0.013448953628540039,0.013582111336290836,0.001331579522229731
1771082078595237000,11.483237060546875,-0.008122635073959827,0.016777902841567993,-0.010386320762336254
1771082078605178000,11.49317822265625,0.0003994738799519837,0.009321057237684727,-0.015712639316916466
1771082078615119400,11.503119384765625,0.006791055668145418,-0.0023968431632965803,-0.012516847811639309
1771082078625060600,11.513060546875,0.005725792143493891,-0.016245270147919655,-0.00612526573240757
1771082078635001600,11.523001708984374,0.0003994738799519837,-0.029028434306383133,0.0002663159102667123
1771082078644942800,11.53294287109375,-0.005992108024656773,-0.029028434306383133,0.001331579522229731
1771082078654883800,11.5428837890625,-0.011318426579236984,-0.0141147430986166,0.001331579522229731
1771082078674766300,11.562766357421875,-0.024101590737700462,0.013582111336290836,-0.0018642114009708166
1771082078684707300,11.572707275390625,-0.024101590737700462,0.024234747514128685,-0.0007989477599039674
1771082078694648600,11.582648681640626,-0.013448953628540039,0.02636527456343174,0.004527370445430279
1771082078714530800,11.60253076171875,0.007856319658458233,0.0050600022077560425,0.015180006623268127
1771082078724472000,11.61247216796875,0.011052110232412815,-0.006657897960394621,0.017310533672571182
1771082078734413000,11.6224130859375,0.006791055668145418,-0.0141147430986166,0.017310533672571182
1771082078744354300,11.632354248046875,0.001464737462811172,-0.011984216049313545,0.016245270147919655
1771082078754295300,11.64229541015625,-0.002796316985040903,-0.004527370445430279,0.015180006623268127
1771082078764236500,11.652236572265625,-0.008122635073959827,0.002929474925622344,0.0141147430986166
1771082078774177500,11.662177490234376,-0.012383690103888512,0.009321057237684727,0.011984216049313545
1771082078784118800,11.672118896484376,-0.011318426579236984,0.010386320762336254,0.006657897960394621
1771082078794059800,11.682059814453124,-0.009187898598611355,0.00612526573240757,0.001331579522229731
1771082078804001000,11.6920009765625,-0.0070573715493083,0.002929474925622344,0.0023968431632965803
1771082078813942000,11.70194189453125,-0.005992108024656773,-0.0023968431632965803,0.005592633970081806
1771082078833824300,11.72182421875,-0.0070573715493083,-0.008788425475358963,0.013049479573965073
1771082078843765200,11.73176513671875,-0.004926844500005245,-0.006657897960394621,0.015180006623268127
1771082078853706500,11.74170654296875,-0.0017310534603893757,-0.00985368900001049,0.013049479573965073
1771082078863647500,11.7516474609375,0.0003994738799519837,-0.006657897960394621,0.011984216049313545
1771082078873588500,11.76158837890625,0.0003994738799519837,-0.001331579522229731,0.013049479573965073
1771082078883529700,11.77152978515625,-0.005992108024656773,-0.0023968431632965803,0.010918952524662018
1771082078893470700,11.781470703125,-0.013448953628540039,-0.004527370445430279,0.006657897960394621
1771082078903412000,11.791411865234375,-0.01664474420249462,-0.005592633970081806,0.001331579522229731
1771082078913353000,11.80135302734375,-0.015579480677843094,-0.0034621069207787514,-0.003994738683104515
1771082078923294000,11.8112939453125,-0.010253162123262882,0.0050600022077560425,-0.002929474925622344
1771082078933235200,11.821235107421876,-0.0017310534603893757,0.016777902841567993,0.0034621069207787514
1771082078943176200,11.83117626953125,0.005725792143493891,0.019973693415522575,0.011984216049313545
1771082078953117400,11.841117431640624,0.009986846707761288,0.008255792781710625,0.015180006623268127
1771082078963058400,11.851058349609374,0.006791055668145418,-0.013049479573965073,0.00985368900001049
1771082078972999400,11.86099951171875,-0.003861580742523074,-0.03755054250359535,-0.00612526573240757
1771082078982940700,11.870940673828125,-0.01664474420249462,-0.05139897018671036,-0.02210422046482563
1771082078992881700,11.880881591796875,-0.028362644836306572,-0.04287686198949814,-0.03169159218668938
1771082079002823000,11.890822998046875,-0.035819489508867264,-0.017310533672571182,-0.03169159218668938
1771082079012764000,11.900763916015626,-0.03688475489616394,0.010386320762336254,-0.025300011038780212
1771082079022705000,11.910704833984376,-0.030493171885609627,0.027430538088083267,-0.014647374860942364
1771082079032646100,11.920646240234374,-0.012383690103888512,0.03275685757398605,-0.0007989477599039674
1771082079042587100,11.930587158203124,0.006791055668145418,0.025300011038780212,0.010918952524662018
1771082079052528400,11.9405283203125,0.020639482885599136,-0.0002663159102667123,0.02157158963382244
1771082079072410400,11.960410400390625,0.006791055668145418,-0.02263685315847397,0.032224226742982864
1771082079082351600,11.9703515625,-0.004926844500005245,-0.0023968431632965803,0.03009369783103466
1771082079092292600,11.980292724609376,-0.0070573715493083,0.02636527456343174,0.024767380207777023
1771082079102233900,11.99023388671875,-0.002796316985040903,0.048735812306404114,0.01837579719722271
1771082079112174800,12.0001748046875,0.001464737462811172,0.05086633935570717,0.005592633970081806
1771082079132057000,12.02005712890625,0.005725792143493891,0.012516847811639309,-0.014647374860942364
1771082079141998000,12.029998046875,0.007856319658458233,-0.0002663159102667123,-0.010386320762336254
1771082079151939300,12.039939208984375,0.009986846707761288,-0.0034621069207787514,-0.0018642114009708166
1771082079161880300,12.04988037109375,0.009986846707761288,-0.005592633970081806,0.0034621069207787514
1771082079171821300,12.0598212890625,0.014247900806367397,-0.010918952524662018,0.001331579522229731
1771082079181762600,12.069762451171876,0.01957421936094761,-0.01837579719722271,-0.003994738683104515
1771082079191703600,12.07970361328125,0.02383527345955372,-0.01837579719722271,-0.00612526573240757
1771082079201644800,12.089644775390624,0.021704746410250664,-0.02157158963382244,-0.003994738683104515
1771082079211585800,12.099585693359375,0.01318263728171587,-0.024767380207777023,-0.00612526573240757
1771082079221527000,12.109527099609375,0.004660528618842363,-0.017310533672571182,-0.0050600022077560425
1771082079231468300,12.11946826171875,0.001464737462811172,-0.0023968431632965803,-0.0007989477599039674
1771082079241409300,12.1294091796875,0.0025300011038780212,0.00612526573240757,0.004527370445430279
1771082079251350500,12.1393505859375,0.0035952648613601923,0.011451584286987782,0.010918952524662018
1771082079261291500,12.14929150390625,0.006791055668145418,0.008255792781710625,0.016245270147919655
1771082079271232800,12.159232666015624,0.005725792143493891,0.0018642114009708166,0.019441060721874237
1771082079281174000,12.169174072265625,0.004660528618842363,-0.0023968431632965803,0.023702116683125496
1771082079291115000,12.179114990234375,0.0003994738799519837,-0.00985368900001049,0.023702116683125496
1771082079301056300,12.18905615234375,-0.008122635073959827,-0.016245270147919655,0.017310533672571182
1771082079310997200,12.198997314453125,-0.018775271251797676,-0.013049479573965073,0.011984216049313545
1771082079320938500,12.2089384765625,-0.028362644836306572,-0.011984216049313545,0.006657897960394621
1771082079330879700,12.218879638671876,-0.03688475489616394,-0.019441060721874237,0.0023968431632965803
1771082079340820700,12.22882080078125,-0.043276336044073105,-0.023702116683125496,0.004527370445430279
1771082079350762000,12.238761962890624,-0.047537390142679214,-0.023702116683125496,0.007723161485046148
1771082079360703000,12.248702880859375,-0.04860265180468559,-0.023702116683125496,0.011984216049313545
1771082079370644200,12.258644287109375,-0.043276336044073105,-0.019441060721874237,0.0141147430986166
1771082079380585500,12.26858544921875,-0.03688475489616394,-0.008788425475358963,0.02157158963382244
1771082079390526500,12.2785263671875,-0.031558435410261154,0.0018642114009708166,0.029028434306383133
1771082079410408700,12.29840869140625,-0.03262370079755783,0.014647374860942364,0.03328948840498924
1771082079430291200,12.318291259765624,-0.03368896245956421,0.01784316636621952,0.03009369783103466
1771082079450173400,12.33817333984375,-0.030493171885609627,-0.0034621069207787514,0.010918952524662018
1771082079460114400,12.348114501953125,-0.02516685426235199,-0.00985368900001049,0.0023968431632965803
1771082079479997000,12.367996826171876,-0.012383690103888512,-0.006657897960394621,-0.00612526573240757
1771082079499879200,12.387879150390624,-0.0006657897611148655,-0.001331579522229731,0.0023968431632965803
1771082079519761400,12.407761474609375,0.004660528618842363,-0.011984216049313545,0.005592633970081806
1771082079529702700,12.41770263671875,0.009986846707761288,-0.016245270147919655,0.004527370445430279
1771082079539643600,12.4276435546875,0.01318263728171587,-0.0141147430986166,0.004527370445430279
1771082079549585000,12.4375849609375,0.0153131652623415,-0.006657897960394621,0.0034621069207787514
1771082079559526000,12.44752587890625,0.017443692311644554,-0.001331579522229731,0.0034621069207787514
1771082079569467100,12.457467041015626,0.020639482885599136,0.0007989477599039674,0.004527370445430279
1771082079579408400,12.467408447265624,0.025965800508856773,-0.004527370445430279,0.007723161485046148
1771082079589349400,12.477349365234375,0.030226856470108032,-0.0034621069207787514,0.01837579719722271
1771082079599290600,12.48729052734375,0.03235738351941109,0.002929474925622344,0.026897907257080078
1771082079609231600,12.497231689453125,0.03235738351941109,0.007190529722720385,0.031158961355686188
1771082079619172900,12.5071728515625,0.03235738351941109,0.0018642114009708166,0.029028434306383133
1771082079629114000,12.517114013671875,0.025965800508856773,-0.006657897960394621,0.01837579719722271
1771082079639055000,12.52705517578125,0.0153131652623415,-0.01837579719722271,0.0002663159102667123
1771082079648996400,12.536996337890624,0.0025300011038780212,-0.024767380207777023,-0.016777902841567993
1771082079658937300,12.546937255859374,-0.004926844500005245,-0.019441060721874237,-0.029561065137386322
1771082079668878600,12.556878662109375,-0.010253162123262882,-0.005592633970081806,-0.030626330524683
1771082079678819800,12.56681982421875,-0.013448953628540039,0.00612526573240757,-0.024234747514128685
1771082079688760800,12.5767607421875,-0.015579480677843094,0.010386320762336254,-0.014647374860942364
1771082079698702000,12.5867021484375,-0.013448953628540039,0.011451584286987782,-0.003994738683104515
1771082079718584300,12.606584228515626,0.001464737462811172,0.0050600022077560425,0.017310533672571182
1771082079728525300,12.616525390625,0.009986846707761288,0.011451584286987782,0.027963170781731606
1771082079738466600,12.626466552734374,0.0153131652623415,0.02210422046482563,0.0354200154542923
1771082079758348500,12.6463486328125,0.025965800508856773,0.030626330524683,0.04287686198949814
1771082079778230800,12.666230712890625,0.01957421936094761,0.018908429890871048,0.04500738903880119
1771082079798113000,12.686113037109376,-0.003861580742523074,0.0050600022077560425,0.04181159660220146
1771082079808054000,12.696053955078124,-0.009187898598611355,0.011451584286987782,0.03755054250359535
1771082079817995300,12.705995361328124,-0.005992108024656773,0.015712639316916466,0.026897907257080078
1771082079837877500,12.72587744140625,0.001464737462811172,0.018908429890871048,0.011984216049313545
1771082079857759500,12.745759521484375,-0.011318426579236984,0.011451584286987782,0.004527370445430279
1771082079877641700,12.765641845703126,-0.01664474420249462,0.012516847811639309,0.010918952524662018
1771082079897524000,12.78552392578125,-0.015579480677843094,-0.005592633970081806,0.01837579719722271
1771082079917406200,12.80540625,-0.009187898598611355,0.003994738683104515,0.024767380207777023
1771082079937288400,12.825288330078125,0.0003994738799519837,0.023169483989477158,0.015180006623268127
1771082079957170400,12.84517041015625,0.011052110232412815,0.016777902841567993,0.001331579522229731
1771082079967111700,12.855111572265624,0.01318263728171587,0.002929474925622344,0.0023968431632965803
1771082079986994000,12.874993896484375,-0.0006657897611148655,-0.026897907257080078,0.0002663159102667123
1771082080006876000,12.8948759765625,-0.0070573715493083,-0.02157158963382244,-0.007190529722720385
1771082080016817200,12.904817138671875,-0.008122635073959827,-0.0141147430986166,-0.015712639316916466
1771082080026758100,12.914758056640625,-0.010253162123262882,-0.001331579522229731,-0.023169483989477158
1771082080036699400,12.924699462890626,-0.003861580742523074,0.010386320762336254,-0.02636527456343174
1771082080046640400,12.934640380859374,0.0035952648613601923,0.016777902841567993,-0.02210422046482563
1771082080056581400,12.944581298828124,0.006791055668145418,0.014647374860942364,-0.013582111336290836
1771082080076463600,12.964463623046875,0.007856319658458233,-0.007723161485046148,0.0002663159102667123
1771082080086404600,12.974404541015625,0.011052110232412815,-0.006657897960394621,0.005592633970081806
1771082080096345900,12.984345947265625,0.011052110232412815,0.0007989477599039674,0.007723161485046148
1771082080106286800,12.994286865234375,0.006791055668145418,0.007190529722720385,0.0034621069207787514
1771082080116228000,13.00422802734375,0.004660528618842363,0.021038956940174103,0.0023968431632965803
1771082080136110000,13.024110107421874,0.014247900806367397,0.05086633935570717,-0.0018642114009708166
1771082080155992300,13.043992431640625,0.012117373757064342,-0.001331579522229731,-0.013582111336290836
1771082080175874600,13.06387451171875,0.017443692311644554,0.007190529722720385,-0.0018642114009708166
1771082080195756800,13.0837568359375,0.025965800508856773,0.021038956940174103,0.007723161485046148
1771082080205697800,13.09369775390625,0.030226856470108032,0.016777902841567993,0.00985368900001049
1771082080215639000,13.10363916015625,0.029161592945456505,0.002929474925622344,0.006657897960394621
1771082080225580000,13.113580078125,0.02277000993490219,-0.008788425475358963,-0.0007989477599039674
1771082080235521300,13.123521240234375,0.017443692311644554,-0.008788425475358963,-0.00612526573240757
1771082080255403500,13.143403564453125,0.020639482885599136,0.011451584286987782,-0.014647374860942364
1771082080265344800,13.1533447265625,0.017443692311644554,0.02210422046482563,-0.010386320762336254
1771082080275285800,13.16328564453125,0.03235738351941109,0.03488738462328911,-0.003994738683104515
1771082080295168300,13.183168212890624,0.0739026665687561,0.07004108279943466,-0.009321057237684727
1771082080305109200,13.193109130859375,0.0366184376180172,0.03701791167259216,-0.019973693415522575
1771082080324991500,13.212991455078125,-0.008122635073959827,-0.0354200154542923,-0.019973693415522575
1771082080344874000,13.2328740234375,-0.012383690103888512,-0.02583264373242855,-0.010386320762336254
1771082080354815000,13.24281494140625,-0.014514217153191566,-0.013049479573965073,-0.0050600022077560425
1771082080364756200,13.252756103515624,-0.011318426579236984,-0.001331579522229731,0.0034621069207787514
1771082080374697200,13.262697265625,-0.004926844500005245,0.00612526573240757,0.00985368900001049
1771082080394579700,13.282579833984375,0.01957421936094761,0.013582111336290836,0.013049479573965073
1771082080404520700,13.292520751953125,0.029161592945456505,0.014647374860942364,0.019441060721874237
1771082080414462000,13.3024619140625,0.03235738351941109,0.012516847811639309,0.024767380207777023
1771082080434344200,13.32234423828125,0.03874896466732025,-0.007723161485046148,0.036485280841588974
1771082080444285400,13.332285400390624,0.04194475710391998,-0.016245270147919655,0.03755054250359535
1771082080454226400,13.342226318359375,0.0366184376180172,-0.027963170781731606,0.027963170781731606
1771082080464167700,13.352167724609375,0.0270310640335083,-0.040746334940195084,0.013049479573965073
1771082080474108700,13.362108642578125,0.01850895583629608,-0.03755054250359535,-0.0018642114009708166
1771082080484050000,13.3720498046875,0.009986846707761288,-0.020506324246525764,-0.008255792781710625
1771082080493991200,13.3819912109375,0.007856319658458233,0.0050600022077560425,-0.008255792781710625
1771082080503932200,13.39193212890625,0.005725792143493891,0.011451584286987782,-0.003994738683104515
1771082080513873400,13.401873291015624,0.006791055668145418,0.00612526573240757,-0.0007989477599039674
1771082080523814400,13.411814453125,0.009986846707761288,0.00612526573240757,0.006657897960394621
1771082080533755600,13.421755615234375,0.0153131652623415,0.007190529722720385,0.013049479573965073
1771082080543697000,13.43169677734375,0.017443692311644554,0.00612526573240757,0.019441060721874237
1771082080553638000,13.441637939453125,0.01850895583629608,0.0007989477599039674,0.019441060721874237
1771082080563579100,13.4515791015625,0.0153131652623415,-0.005592633970081806,0.017310533672571182
1771082080573520400,13.461520263671876,0.009986846707761288,-0.00985368900001049,0.017310533672571182
1771082080583461400,13.47146142578125,0.004660528618842363,-0.00985368900001049,0.017310533672571182
1771082080593402600,13.481402587890624,0.001464737462811172,-0.00985368900001049,0.017310533672571182
1771082080603343600,13.491343505859374,0.004660528618842363,-0.0034621069207787514,0.015180006623268127
1771082080613284900,13.501284912109375,0.00892158318310976,0.0007989477599039674,0.010918952524662018
1771082080623226000,13.51122607421875,0.01318263728171587,-0.001331579522229731,0.0002663159102667123
1771082080633167000,13.5211669921875,0.017443692311644554,-0.007723161485046148,-0.009321057237684727
1771082080643108400,13.5311083984375,0.016378428786993027,-0.016245270147919655,-0.01784316636621952
1771082080653049300,13.54104931640625,0.011052110232412815,-0.02157158963382244,-0.02210422046482563
1771082080662990600,13.550990478515626,0.0035952648613601923,-0.020506324246525764,-0.019973693415522575
1771082080672931600,13.560931640625,-0.0017310534603893757,-0.008788425475358963,-0.014647374860942364
1771082080682872800,13.570872802734375,-0.002796316985040903,0.013582111336290836,-0.0018642114009708166
1771082080692813800,13.580813720703125,0.0025300011038780212,0.025300011038780212,0.006657897960394621
1771082080702754800,13.5907548828125,0.005725792143493891,0.018908429890871048,0.00985368900001049
1771082080712696000,13.600696044921875,0.012117373757064342,0.008255792781710625,0.010918952524662018
1771082080722637000,13.610636962890625,0.01850895583629608,-0.0023968431632965803,0.010918952524662018
1771082080732578000,13.620578125,0.020639482885599136,-0.007723161485046148,0.015180006623268127
1771082080742519300,13.630519287109376,0.01957421936094761,-0.001331579522229731,0.02157158963382244
1771082080752460300,13.640460205078124,0.014247900806367397,0.009321057237684727,0.026897907257080078
1771082080762401500,13.650401611328125,0.012117373757064342,0.015712639316916466,0.026897907257080078
1771082080772342500,13.660342529296875,0.012117373757064342,0.016777902841567993,0.020506324246525764
1771082080782283500,13.670283447265625,0.0153131652623415,0.012516847811639309,0.010918952524662018
1771082080792224800,13.680224853515625,0.0153131652623415,0.003994738683104515,0.0002663159102667123
1771082080802165800,13.690165771484375,0.014247900806367397,0.0018642114009708166,-0.00612526573240757
1771082080812107000,13.70010693359375,0.0153131652623415,0.002929474925622344,-0.0050600022077560425
1771082080831989000,13.719989013671874,0.006791055668145418,-0.0023968431632965803,-0.0018642114009708166
1771082080841930200,13.72993017578125,0.0025300011038780212,-0.005592633970081806,-0.0007989477599039674
1771082080851871200,13.739871337890625,0.0003994738799519837,-0.00985368900001049,-0.0007989477599039674
1771082080861812500,13.7498125,0.0003994738799519837,-0.013049479573965073,-0.003994738683104515
1771082080871753500,13.75975341796875,0.0025300011038780212,-0.0141147430986166,-0.007190529722720385
1771082080881694500,13.769694580078125,0.006791055668145418,-0.00985368900001049,-0.00612526573240757
1771082080891635700,13.7796357421875,0.012117373757064342,-0.001331579522229731,-0.0018642114009708166
1771082080901576700,13.78957666015625,0.0153131652623415,-0.007723161485046148,0.0023968431632965803
1771082080911518000,13.79951806640625,0.009986846707761288,-0.017310533672571182,0.0023968431632965803
1771082080921459000,13.809458984375,-0.0017310534603893757,-0.02263685315847397,0.001331579522229731
1771082080931400000,13.81939990234375,-0.008122635073959827,-0.020506324246525764,0.0023968431632965803
1771082080941341200,13.829341064453125,-0.013448953628540039,-0.013049479573965073,0.005592633970081806
1771082080951282200,13.8392822265625,-0.011318426579236984,0.0007989477599039674,0.011984216049313545
1771082080961223400,13.849223388671875,-0.002796316985040903,0.013582111336290836,0.020506324246525764
1771082080981105400,13.86910546875,0.016378428786993027,0.016777902841567993,0.024767380207777023
1771082080991046700,13.879046630859374,0.017443692311644554,-0.0023968431632965803,0.0141147430986166
1771082081000987600,13.888987548828124,0.00892158318310976,-0.03755054250359535,-0.003994738683104515
1771082081010929000,13.898928955078125,-0.004926844500005245,-0.05033370852470398,-0.016777902841567993
1771082081030811000,13.918810791015625,-0.028362644836306572,-0.02157158963382244,-0.024234747514128685
1771082081040752000,13.928752197265625,-0.03368896245956421,0.0007989477599039674,-0.01784316636621952
1771082081050693000,13.938693115234376,-0.034754227846860886,0.024234747514128685,-0.00612526573240757
1771082081060634400,13.94863427734375,-0.030493171885609627,0.035952646285295486,0.005592633970081806
1771082081070575400,13.958575439453124,-0.018775271251797676,0.03914843872189522,0.01837579719722271
