time,seconds_elapsed,z,y,x
1771082194884772400,0.1667724609375,0.02585124969482422,-0.004422575235366821,0.025655388832092285
1771082194894618000,0.1766181640625,0.051815032958984375,0.00012248754501342773,0.01695770025253296
1771082194904483600,0.186483642578125,0.0782327651977539,-0.006590723991394043,0.006838440895080566
1771082194914371000,0.19637109375,0.06778907775878906,-0.0061986446380615234,0.019367456436157227
1771082194924282000,0.2062822265625,-0.0015201568603515625,-0.005871832370758057,0.020190715789794922
1771082194934216400,0.216216552734375,0.034354209899902344,-0.007933050394058228,0.012311339378356934
1771082194944173800,0.226173828125,0.0614013671875,0.0013214051723480225,0.0026387572288513184
1771082194954152700,0.236152587890625,0.02850055694580078,-0.010244190692901611,0.01363152265548706
1771082194964150300,0.246150390625,0.040505409240722656,-0.003010690212249756,0.00862807035446167
1771082194974163700,0.256163818359375,0.04292488098144531,-0.00978192687034607,0.006080448627471924
1771082194984189700,0.266189697265625,0.004391670227050781,-0.0026937127113342285,0.010204732418060303
1771082194994224400,0.276224365234375,0.033840179443359375,0.0018688440322875977,0.007614552974700928
1771082195004263200,0.28626318359375,0.046024322509765625,-0.009769409894943237,0.009631037712097168
1771082195014302200,0.29630224609375,-0.001773834228515625,-0.0049852728843688965,0.015965759754180908
1771082195024251100,0.306251220703125,0.06257057189941406,-0.007192462682723999,0.011089682579040527
1771082195034192100,0.316192138671875,0.05318260192871094,-0.00023439526557922363,-0.0008681416511535645
1771082195044132900,0.3261328125,-0.027130126953125,-0.007351696491241455,0.017465829849243164
1771082195054073600,0.336073486328125,0.033855438232421875,-0.0003885328769683838,0.010376572608947754
1771082195064014600,0.3460146484375,0.07421398162841797,-0.0027105510234832764,0.0009478330612182617
1771082195073955300,0.355955322265625,-0.016188621520996094,-0.007466703653335571,0.007628798484802246
1771082195083896300,0.365896240234375,0.012150764465332031,-0.011973559856414795,0.012379884719848633
1771082195093837000,0.375837158203125,0.03494453430175781,-0.00012958049774169922,-0.004060924053192139
1771082195103777800,0.38577783203125,0.01762676239013672,-0.0026720762252807617,0.007640659809112549
1771082195113718800,0.39571875,0.024084091186523438,-0.0028185248374938965,0.005365252494812012
1771082195123659500,0.405659423828125,0.0559234619140625,-0.0052870213985443115,0.009932875633239746
1771082195133600500,0.4156005859375,-0.017769813537597656,-0.00303804874420166,0.004874885082244873
1771082195143541200,0.425541259765625,0.008356094360351562,0.0015739798545837402,0.007445991039276123
1771082195153482000,0.43548193359375,0.06638336181640625,-0.005584895610809326,-0.004224300384521484
1771082195163423000,0.445423095703125,-0.019283294677734375,-0.0056608617305755615,0.005093634128570557
1771082195173363700,0.45536376953125,0.01622486114501953,-0.005643755197525024,0.002909362316131592
1771082195183304400,0.465304443359375,0.0321807861328125,-0.012628346681594849,-0.003882169723510742
1771082195193245400,0.475245361328125,0.0033712387084960938,-0.0077714622020721436,0.007873952388763428
1771082195203186200,0.485186279296875,0.04538249969482422,-0.005271315574645996,0.00807178020477295
1771082195213127200,0.495127197265625,-0.00010013580322265625,-0.012292683124542236,0.0008460879325866699
1771082195223068000,0.50506787109375,-0.023485183715820312,-0.0075630247592926025,0.00548398494720459
1771082195233008600,0.515008544921875,0.037934303283691406,-0.005277872085571289,-0.003615856170654297
1771082195252890400,0.534890380859375,-0.010163307189941406,-0.003062427043914795,0.010603249073028564
1771082195262831000,0.5448310546875,0.03461170196533203,-0.012504607439041138,-0.0010586380958557129
1771082195272772000,0.554772216796875,-0.012986183166503906,-0.00788968801498413,-0.0010595321655273438
1771082195292653800,0.57465380859375,0.048061370849609375,-0.01032876968383789,-0.0032543540000915527
1771082195302594600,0.584594482421875,-0.027998924255371094,-0.010360300540924072,0.008425235748291016
1771082195312535300,0.594535400390625,0.019514083862304688,-0.0008921921253204346,0.0012015104293823242
1771082195322476300,0.604476318359375,0.06617259979248047,-0.005704432725906372,-0.005588948726654053
1771082195332417300,0.614417236328125,0.0014944076538085938,-0.010532468557357788,-0.003463268280029297
1771082195352299000,0.634299072265625,0.020081520080566406,-0.012856870889663696,0.011002779006958008
1771082195362239700,0.64423974609375,-0.0014324188232421875,-0.008255958557128906,0.0012822151184082031
1771082195372180700,0.6541806640625,0.015093803405761719,0.00106772780418396,0.010956883430480957
1771082195382121500,0.66412158203125,0.024274826049804688,-0.00859805941581726,-0.0009183287620544434
1771082195392062500,0.6740625,-0.018491744995117188,-0.013394147157669067,0.006238818168640137
1771082195402003500,0.68400341796875,0.033637046813964844,-0.01575601100921631,0.00170820951461792
1771082195411944200,0.693944091796875,-0.0022230148315429688,-0.013369917869567871,-0.005304217338562012
1771082195421885200,0.70388525390625,-0.00687408447265625,0.0007478892803192139,0.0020275115966796875
1771082195431826000,0.713825927734375,0.0756683349609375,-0.0064567625522613525,-0.002331376075744629
1771082195441767000,0.723766845703125,0.006142616271972656,-0.006579995155334473,0.002393484115600586
1771082195451708000,0.7337080078125,0.0037069320678710938,-0.009055465459823608,0.00724261999130249
1771082195461648600,0.743648681640625,0.06489086151123047,-0.01129215955734253,-0.008776485919952393
1771082195471589600,0.753589599609375,0.004967689514160156,-0.011238813400268555,0.003316819667816162
1771082195481530400,0.7635302734375,0.019039154052734375,-0.008730530738830566,0.0013874173164367676
1771082195491471400,0.773471435546875,0.032876014709472656,-0.008516788482666016,-0.0027624964714050293
1771082195501412000,0.783412109375,-0.017088890075683594,-0.0131167471408844,-0.0023377537727355957
1771082195511353000,0.79335302734375,0.02560710906982422,-0.0034071803092956543,0.0030980706214904785
1771082195521294000,0.803294189453125,0.0628824234008789,-0.019762247800827026,0.006084084510803223
1771082195531234800,0.81323486328125,-0.004052162170410156,-0.00759318470954895,0.0019574761390686035
1771082195541175800,0.82317578125,0.01253509521484375,-0.0025826692581176758,0.005170643329620361
1771082195551116500,0.833116455078125,0.017066001892089844,-0.009223997592926025,-0.0034412145614624023
1771082195561057500,0.8430576171875,-0.04674339294433594,-0.004287838935852051,-0.0002396106719970703
1771082195570998500,0.85299853515625,0.03883171081542969,-0.0039282143115997314,-0.003941476345062256
1771082195580939300,0.862939208984375,-0.030076980590820312,-0.006030410528182983,0.001226186752319336
1771082195590880300,0.87288037109375,-0.06959056854248047,-0.005743265151977539,0.020331978797912598
1771082195600821000,0.882821044921875,0.046970367431640625,-0.019597947597503662,0.013821423053741455
1771082195610762000,0.892761962890625,-0.017348289489746094,-0.004992693662643433,0.07076302170753479
1771082195620702700,0.90270263671875,-0.031098365783691406,-0.004638165235519409,-0.07222813367843628
1771082195630643700,0.912643798828125,0.0824289321899414,-0.013610869646072388,0.002332746982574463
1771082195640584700,0.922584716796875,-0.022498130798339844,0.01974022388458252,0.02190840244293213
1771082195650525400,0.932525390625,-0.05744743347167969,-0.029870659112930298,-0.01145404577255249
1771082195660466400,0.942466552734375,0.01886463165283203,-0.027057558298110962,-0.008636534214019775
1771082195670407200,0.9524072265625,-0.052063941955566406,-0.00800865888595581,0.0009986162185668945
1771082195680348200,0.96234814453125,0.03359222412109375,-0.012611478567123413,0.0015685558319091797
1771082195690289200,0.9722890625,0.049529075622558594,-0.017233431339263916,-0.010043740272521973
1771082195700230000,0.98222998046875,-0.038413047790527344,-0.005405545234680176,0.006276428699493408
1771082195710171000,0.9921708984375,0.009340286254882812,-0.01721048355102539,0.011268854141235352
1771082195720111600,1.002111572265625,-0.0025653839111328125,-0.019508719444274902,-0.0028643012046813965
1771082195730052600,1.012052490234375,0.025739669799804688,-0.002832740545272827,-0.002737700939178467
1771082195739993300,1.021993408203125,0.04415607452392578,-0.016938984394073486,-0.00015729665756225586
1771082195749934300,1.031934326171875,-0.05074787139892578,-0.012178897857666016,-0.00027889013290405273
1771082195759875300,1.041875244140625,0.020748138427734375,-0.00504225492477417,0.004716336727142334
1771082195769816000,1.051816162109375,0.03453826904296875,-0.01449894905090332,0.004721462726593018
1771082195779757000,1.061757080078125,-0.05078887939453125,-0.01694399118423462,0.002062678337097168
1771082195789697800,1.07169775390625,0.06543540954589844,-0.009626388549804688,0.0023102760314941406
1771082195799638800,1.081638671875,0.005496025085449219,-0.01911395788192749,-0.011876702308654785
1771082195809579800,1.091579833984375,-0.044028282165527344,-0.00735628604888916,0.007031440734863281
1771082195819520500,1.1015205078125,0.055614471435546875,-0.01678013801574707,0.0025892257690429688
1771082195829461500,1.11146142578125,-0.03712177276611328,-0.016832858324050903,-0.0069953203201293945
1771082195839402200,1.12140234375,0.015300750732421875,-0.0073659420013427734,0.0001614689826965332
1771082195849343200,1.13134326171875,0.05980491638183594,-0.02394840121269226,-0.006617188453674316
1771082195859284000,1.141283935546875,-0.056555747985839844,-0.014464467763900757,-0.002125680446624756
1771082195869225000,1.151224853515625,0.0056095123291015625,-0.014251083135604858,0.0004445314407348633
1771082195879166000,1.161166015625,0.012605667114257812,-0.02366158366203308,-0.008698046207427979
1771082195889106700,1.171106689453125,-0.008794784545898438,-0.011726558208465576,-0.0017159581184387207
1771082195899047700,1.181047607421875,0.05964851379394531,-0.009300380945205688,0.0009537935256958008
1771082195908988400,1.190988525390625,-0.03786945343017578,-0.014180660247802734,-0.00399172306060791
1771082195918929400,1.200929443359375,-0.020750045776367188,-0.009568125009536743,0.012430667877197266
1771082195928870400,1.210870361328125,0.06438541412353516,-0.016600817441940308,-0.010834336280822754
1771082195938811100,1.22081103515625,-0.02614307403564453,-0.012043803930282593,-0.0014576315879821777
1771082195948752100,1.230752197265625,0.0072574615478515625,-0.0119723379611969,0.003252565860748291
1771082195958692900,1.24069287109375,0.03070068359375,-0.016712218523025513,-0.006038367748260498
1771082195968633900,1.2506337890625,-0.038092613220214844,-0.009601622819900513,-0.0015565156936645508
1771082195978574600,1.26057470703125,0.04261016845703125,-0.011925160884857178,-0.0012485384941101074
1771082195988515600,1.270515625,0.02544116973876953,-0.021368741989135742,-0.015168249607086182
1771082195998456600,1.28045654296875,-0.04090595245361328,-0.011927783489227295,0.0035915374755859375
1771082196008397300,1.290397216796875,0.04219818115234375,-0.009503930807113647,0.006168007850646973
1771082196018338300,1.30033837890625,-0.007936477661132812,-0.014284968376159668,0.003688216209411621
1771082196028279000,1.310279052734375,0.0016107559204101562,-0.011923432350158691,0.001046597957611084
1771082196038220000,1.320219970703125,0.03456592559814453,-0.011853992938995361,-0.0010430216789245605
1771082196048161000,1.3301611328125,-0.041344642639160156,-0.009634584188461304,0.0011028051376342773
1771082196058101800,1.340101806640625,0.015863418579101562,-0.011957556009292603,-0.008152246475219727
1771082196068042800,1.350042724609375,0.001483917236328125,-0.02130475640296936,-0.007937490940093994
1771082196077983500,1.3599833984375,-0.03385639190673828,-0.004700422286987305,0.008449018001556396
1771082196087924500,1.369924560546875,0.06561660766601562,-0.011814206838607788,-0.007788240909576416
1771082196097865200,1.379865234375,-0.02493762969970703,-0.019012629985809326,-0.005529999732971191
1771082196107806200,1.38980615234375,-0.036285400390625,-0.011965274810791016,0.0015007853507995605
1771082196117747200,1.399747314453125,0.049101829528808594,-0.014147818088531494,-0.00745624303817749
1771082196127688000,1.40968798828125,-0.019998550415039062,-0.009434282779693604,0.001757800579071045
1771082196137629000,1.41962890625,-0.0008153915405273438,-0.0024449825286865234,-0.000546872615814209
1771082196147569700,1.429569580078125,0.025122642517089844,-0.009697973728179932,-0.0002556443214416504
1771082196157510700,1.4395107421875,-0.0059032440185546875,-0.0027042925357818604,-0.012248694896697998
1771082196167451600,1.44945166015625,0.008331298828125,-0.014559954404830933,0.013931632041931152
1771082196177392400,1.459392333984375,0.0011510848999023438,-0.021611034870147705,-0.0073087215423583984
1771082196187333400,1.46933349609375,0.01761627197265625,-0.0050016045570373535,0.00681459903717041
1771082196197274000,1.479274169921875,0.022040367126464844,-0.01692056655883789,0.001969754695892334
1771082196207215000,1.489215087890625,-0.048946380615234375,-0.014520853757858276,0.0019093751907348633
1771082196217155800,1.49915576171875,0.04369640350341797,-0.007345229387283325,-0.00039780139923095703
1771082196227096800,1.509096923828125,0.017080307006835938,-0.012156575918197632,0.006653904914855957
1771082196246978600,1.528978515625,0.05283164978027344,-0.009835213422775269,-0.0029231905937194824
1771082196256919600,1.53891943359375,-0.013972282409667969,-0.02167367935180664,-0.003100275993347168
1771082196266860300,1.5488603515625,-0.03492450714111328,-0.01458197832107544,0.006142735481262207
1771082196276801300,1.55880126953125,0.050444602966308594,-0.012209802865982056,0.008783161640167236
1771082196286742300,1.5687421875,0.00016021728515625,-0.012338787317276001,-0.010525047779083252
1771082196296683000,1.57868310546875,-0.032799720764160156,-0.012459933757781982,0.01768094301223755
1771082196306624000,1.5886240234375,0.019568443298339844,-0.01719173789024353,-0.0011659860610961914
1771082196316564700,1.598564697265625,0.00041675567626953125,-0.014883369207382202,-0.015396595001220703
1771082196326505700,1.608505615234375,0.014544486999511719,-0.019574761390686035,0.003671705722808838
1771082196336446500,1.618446533203125,-0.004517555236816406,-0.014770805835723877,-0.003373444080352783
1771082196356328400,1.638328369140625,0.012122154235839844,-0.012261450290679932,-0.0008723735809326172
1771082196366269200,1.648269287109375,-0.028095245361328125,-0.01473817229270935,-0.0009772181510925293
1771082196376210200,1.658210205078125,0.03359508514404297,-0.005204617977142334,-0.007944881916046143
1771082196386151000,1.66815087890625,0.028341293334960938,-0.012405931949615479,0.001688539981842041
1771082196396092000,1.678091796875,-0.05923652648925781,-0.010171651840209961,0.006147980690002441
1771082196406033000,1.688032958984375,0.012395858764648438,-0.010131388902664185,0.003871738910675049
1771082196415973600,1.6979736328125,0.033392906188964844,-0.019604891538619995,-0.012589037418365479
1771082196425914600,1.70791455078125,-0.026022911071777344,-0.005484849214553833,0.0014190673828125
1771082196435855400,1.71785546875,0.040352821350097656,-0.01023128628730774,-0.005385398864746094
1771082196445796400,1.72779638671875,-0.033294677734375,-0.022164732217788696,-0.0030655860900878906
1771082196455737000,1.737737060546875,-0.01860523223876953,-0.010356277227401733,0.0015698671340942383
1771082196465678000,1.747677978515625,0.052367210388183594,-0.012768834829330444,0.0066359639167785645
1771082196475618800,1.757618896484375,-0.012074470520019531,-0.01995137333869934,-0.005573570728302002
1771082196485559600,1.7675595703125,-0.011864662170410156,-0.012888431549072266,0.008520841598510742
1771082196495500500,1.77750048828125,0.009553909301757812,-0.017613083124160767,-0.007717490196228027
1771082196505441300,1.787441162109375,-0.02592754364013672,-0.012943416833877563,-0.005663633346557617
1771082196515382300,1.79738232421875,0.04044628143310547,-0.010604262351989746,0.00873708724975586
1771082196525323000,1.807322998046875,0.016243934631347656,-0.02949279546737671,-0.010163962841033936
1771082196535263700,1.817263671875,-0.054663658142089844,-0.003436446189880371,0.008410751819610596
1771082196545204700,1.827204833984375,0.05457878112792969,-0.015279918909072876,-0.010078489780426025
1771082196555145500,1.8371455078125,-0.016951560974121094,-0.02006632089614868,-0.012389063835144043
1771082196565086200,1.847086181640625,-0.014317512512207031,-0.0034826695919036865,0.01584315299987793
1771082196575027200,1.857027099609375,0.06365299224853516,-0.012971073389053345,-0.012085556983947754
1771082196584968000,1.866968017578125,-0.05278778076171875,-0.024757295846939087,-0.005351901054382324
1771082196594909000,1.876908935546875,-0.014218330383300781,-0.015259921550750732,0.013650596141815186
1771082196604849700,1.886849609375,0.07552242279052734,-0.015134871006011963,-0.014241576194763184
1771082196614790400,1.896790283203125,-0.04582500457763672,-0.026885032653808594,-0.00040912628173828125
1771082196624731400,1.9067314453125,-0.009725570678710938,-0.012536317110061646,0.004491686820983887
1771082196634672000,1.916672119140625,0.03283500671386719,-0.01716524362564087,-0.011781156063079834
1771082196644613000,1.926613037109375,-0.03364086151123047,-0.010143041610717773,-0.002591848373413086
1771082196654553900,1.936553955078125,0.030508041381835938,-0.012457549571990967,0.004796326160430908
1771082196664494600,1.94649462890625,-0.0029458999633789062,-0.014936685562133789,-0.00707775354385376
1771082196674435600,1.956435546875,-0.052346229553222656,-0.019728809595108032,0.006736874580383301
1771082196684376300,1.966376220703125,0.07568740844726562,-0.017073392868041992,0.004755616188049316
1771082196694317000,1.976317138671875,-0.03151512145996094,-0.017121344804763794,-0.007321000099182129
1771082196704258000,1.986258056640625,-0.04747200012207031,-0.01471257209777832,0.011409521102905273
1771082196714198800,1.99619873046875,0.06637096405029297,-0.009882360696792603,-0.004567384719848633
1771082196724139800,2.006139892578125,-0.03361988067626953,-0.019568949937820435,-0.00962895154953003
1771082196734080500,2.01608056640625,0.009321212768554688,-0.005347907543182373,0.01630455255508423
1771082196744021200,2.026021240234375,0.032736778259277344,-0.01715952157974243,-0.0047721266746521
1771082196753962200,2.035962158203125,-0.05492210388183594,-0.017403513193130493,-0.0075727105140686035
1771082196763903000,2.045903076171875,0.05667304992675781,-0.005572855472564697,0.006961345672607422
1771082196773843700,2.05584375,0.020435333251953125,-0.017476648092269897,-0.01415795087814331
1771082196783784700,2.06578466796875,-0.06231975555419922,-0.010449260473251343,-0.0026763081550598145
1771082196793725400,2.075725341796875,0.03998756408691406,-0.01275297999382019,0.004921376705169678
1771082196803666400,2.08566650390625,0.008723258972167969,-0.012867212295532227,-0.0141143798828125
1771082196813607200,2.095607177734375,-0.03145790100097656,-0.012883663177490234,0.01158905029296875
1771082196823548200,2.105548095703125,0.03031635284423828,-0.027025610208511353,0.004818320274353027
1771082196833489000,2.115489013671875,-0.017271995544433594,-0.019844770431518555,-0.007259368896484375
1771082196843430000,2.125429931640625,0.006557464599609375,-0.007871836423873901,0.006863117218017578
1771082196853370600,2.13537060546875,0.039429664611816406,-0.017287105321884155,-0.007094919681549072
1771082196863311600,2.1453115234375,-0.06952857971191406,-0.015078812837600708,0.002011418342590332
1771082196873252400,2.15525244140625,0.030526161193847656,-0.014956772327423096,0.0021584033966064453
1771082196883193300,2.165193359375,0.03710174560546875,-0.019539684057235718,-0.004653453826904297
1771082196893134300,2.17513427734375,-0.06240653991699219,-0.01964813470840454,0.0019562840461730957
1771082196903075000,2.185074951171875,0.03754711151123047,-0.012488633394241333,-0.00004690885543823242
1771082196913016000,2.19501611328125,-0.01486968994140625,-0.021928608417510986,-0.004878997802734375
1771082196922956800,2.204956787109375,-0.033458709716796875,-0.007769793272018433,-0.0004165768623352051
1771082196932897800,2.214897705078125,0.08956241607666016,-0.014832466840744019,-0.0045313239097595215
1771082196942838800,2.2248388671875,-0.041431427001953125,-0.019626379013061523,-0.012049436569213867
1771082196952779500,2.234779541015625,-0.043097496032714844,-0.010113000869750977,0.016177058219909668
1771082196962720500,2.244720458984375,0.09657001495361328,-0.017136603593826294,-0.011655628681182861
1771082196972661200,2.2546611328125,-0.04160308837890625,-0.017189234495162964,-0.007288336753845215
1771082196982602200,2.264602294921875,0.010889053344726562,-0.007609158754348755,0.014003992080688477
1771082196992543000,2.27454296875,0.017803192138671875,-0.01713043451309204,-0.004680037498474121
1771082197012425000,2.294425048828125,0.0678863525390625,-0.007720977067947388,0.002401113510131836
1771082197032306700,2.314306640625,-0.03456687927246094,-0.017334938049316406,0.004548192024230957
1771082197052188400,2.3341884765625,-0.019895553588867188,-0.01486167311668396,-0.009610950946807861
1771082197062129400,2.34412939453125,0.025177955627441406,-0.010130584239959717,0.007011473178863525
1771082197072070100,2.354070068359375,0.017716407775878906,-0.02902132272720337,-0.011754393577575684
1771082197082011100,2.36401123046875,-0.07439422607421875,-0.010137379169464111,0.0022397637367248535
1771082197101892900,2.383892822265625,0.038949012756347656,-0.024319618940353394,-0.01618969440460205
1771082197111833600,2.39383349609375,-0.06530284881591797,-0.005406707525253296,0.0023886561393737793
1771082197121774600,2.403774658203125,0.05118560791015625,-0.007800191640853882,0.0005815029144287109
1771082197141656300,2.42365625,-0.02702617645263672,-0.005465656518936157,0.00962918996810913
1771082197161538000,2.4435380859375,-0.044147491455078125,-0.024673253297805786,-0.004387259483337402
1771082197181420000,2.463419921875,0.055889129638671875,-0.015132129192352295,0.000654757022857666
1771082197201301800,2.4833017578125,0.02516937255859375,-0.013015598058700562,0.016789615154266357
1771082197221183500,2.50318359375,-0.048369407653808594,-0.0009932219982147217,-0.00016385316848754883
1771082197241065200,2.523065185546875,-0.03213691711425781,-0.02478465437889099,-0.009224355220794678
1771082197251006200,2.533006103515625,-0.03866767883300781,-0.003515392541885376,0.0070819854736328125
1771082197270888000,2.552887939453125,-0.06530284881591797,-0.022565126419067383,-0.004748225212097168
1771082197290769700,2.572769775390625,0.07259654998779297,-0.022412657737731934,-0.013500869274139404
1771082197310651400,2.5926513671875,0.041716575622558594,-0.005967199802398682,0.009734928607940674
1771082197330533000,2.612533203125,-0.06772804260253906,-0.010624319314956665,0.007035613059997559
1771082197350414800,2.632414794921875,0.031394004821777344,-0.017631709575653076,-0.01857900619506836
1771082197360355800,2.64235595703125,-0.06803512573242188,-0.02002468705177307,0.009248197078704834
1771082197370296800,2.652296875,0.03436851501464844,-0.01265573501586914,0.0002638697624206543
1771082197380237600,2.662237548828125,-0.0015153884887695312,-0.019738584756851196,-0.018699169158935547
1771082197390178600,2.672178466796875,0.010278701782226562,-0.017382115125656128,0.01189565658569336
1771082197410060300,2.692060302734375,-0.07027816772460938,-0.019727885723114014,-0.004566609859466553
1771082197429942000,2.71194189453125,0.057498931884765625,-0.019628316164016724,-0.015784502029418945
1771082197449823500,2.731823486328125,-0.0058765411376953125,-0.017102926969528198,0.005450725555419922
1771082197469705200,2.751705322265625,-0.03439903259277344,-0.010028570890426636,0.002726614475250244
1771082197479646000,2.76164599609375,0.06507682800292969,-0.012339293956756592,0.0076767802238464355
1771082197489587000,2.7715869140625,-0.03958320617675781,-0.021877676248550415,-0.011303365230560303
1771082197499527700,2.781527587890625,-0.04364490509033203,-0.009966731071472168,0.014358043670654297
1771082197509468700,2.79146875,0.07720184326171875,-0.007671475410461426,-0.0016679167747497559
1771082197529350100,2.81135009765625,-0.00858306884765625,-0.019484788179397583,0.005026400089263916
1771082197549231900,2.83123193359375,-0.018129348754882812,-0.007483959197998047,-0.002015829086303711
1771082197559172600,2.841172607421875,0.029280662536621094,-0.007482796907424927,0.007721960544586182
1771082197569113600,2.851113525390625,0.021750450134277344,-0.028777718544006348,-0.003997623920440674
1771082197579054300,2.861054443359375,-0.068084716796875,-0.009892135858535767,0.002606034278869629
1771082197598936000,2.88093603515625,0.038425445556640625,-0.021717876195907593,-0.011290431022644043
1771082197618817800,2.90081787109375,0.02688884735107422,-0.016898900270462036,-0.0019864439964294434
1771082197638699500,2.920699462890625,0.0030908584594726562,-0.0050424933433532715,0.007192432880401611
1771082197648640300,2.93064013671875,0.03367805480957031,-0.016960829496383667,-0.011378049850463867
1771082197658581000,2.9405810546875,-0.0728311538696289,-0.028883814811706543,0.0001538991928100586
1771082197668522000,2.95052197265625,0.04376411437988281,-0.0004833340644836426,0.0025845766067504883
1771082197678462700,2.960462646484375,0.03835296630859375,-0.01482623815536499,-0.016005873680114746
1771082197688403500,2.970403564453125,-0.0635366439819336,-0.01736760139465332,0.00010859966278076172
1771082197698344400,2.980344482421875,0.036441802978515625,-0.010144561529159546,-0.004014790058135986
1771082197708285200,2.99028515625,-0.006539344787597656,-0.021972209215164185,-0.011130154132843018
1771082197718226200,3.00022607421875,-0.018209457397460938,-0.01016131043434143,0.007465481758117676
1771082197728167000,3.0101669921875,0.07395267486572266,-0.007665365934371948,-0.010804712772369385
1771082197738107600,3.020107666015625,-0.0850381851196289,-0.029058873653411865,-0.006548464298248291
1771082197748048600,3.030048583984375,0.005852699279785156,-0.002800852060317993,0.012478888034820557
1771082197757989400,3.0399892578125,0.06700611114501953,-0.019357830286026,-0.013034522533416748
1771082197767930000,3.04993017578125,-0.058920860290527344,-0.01711505651473999,-0.009045958518981934
1771082197777871000,3.05987109375,0.012722969055175781,0.0017736554145812988,0.019740164279937744
1771082197787811800,3.069811767578125,0.031360626220703125,-0.022029787302017212,-0.013470053672790527
1771082197797752800,3.0797529296875,-0.0421600341796875,-0.01032528281211853,0.0026021599769592285
1771082197807693600,3.089693603515625,0.0527496337890625,-0.005472302436828613,-0.003917098045349121
1771082197817634300,3.09963427734375,-0.016401290893554688,-0.02454233169555664,0.0006357431411743164
1771082197827575300,3.1095751953125,-0.04909038543701172,-0.012592703104019165,0.007462143898010254
1771082197837516000,3.11951611328125,0.053002357482910156,-0.012512117624282837,0.0008618831634521484
1771082197847457000,3.12945703125,-0.018523216247558594,-0.019603103399276733,-0.013712286949157715
1771082197867338500,3.14933837890625,0.03847217559814453,-0.014871835708618164,0.0008423924446105957
1771082197877279500,3.159279541015625,-0.05164623260498047,-0.029082298278808594,-0.004411041736602783
1771082197887220200,3.16922021484375,0.0010309219360351562,-0.014702677726745605,0.009968757629394531
1771082197897161200,3.1791611328125,0.07402420043945312,-0.021751463413238525,-0.01110386848449707
1771082197907102000,3.18910205078125,-0.052001953125,-0.01230427622795105,-0.006740987300872803
1771082197917043000,3.19904296875,-0.004027366638183594,-0.014684438705444336,0.012386322021484375
1771082197926984000,3.20898388671875,0.03844451904296875,-0.014670610427856445,-0.015789508819580078
1771082197936924700,3.218924560546875,-0.044615745544433594,-0.014651328325271606,-0.006635069847106934
1771082197946865700,3.22886572265625,0.02678394317626953,-0.012283742427825928,0.007883429527282715
1771082197956806400,3.238806396484375,0.0004444122314453125,-0.0264357328414917,-0.0159151554107666
1771082197966747400,3.248747314453125,-0.025473594665527344,-0.0003287792205810547,0.014526784420013428
1771082197976688000,3.258688232421875,0.07386493682861328,-0.014674246311187744,-0.006515324115753174
1771082197986629000,3.268629150390625,-0.06862735748291016,-0.02181944251060486,-0.0020207762718200684
1771082197996570000,3.278570068359375,0.005509376525878906,-0.012269467115402222,0.002698838710784912
1771082198006510800,3.2885107421875,0.061954498291015625,-0.016897141933441162,-0.02039879560470581
1771082198016451800,3.298451904296875,-0.06386566162109375,-0.014695405960083008,0.005307674407958984
1771082198026392600,3.308392578125,0.019620895385742188,-0.012332797050476074,0.01010352373123169
1771082198036333600,3.31833349609375,0.024030685424804688,-0.021673768758773804,-0.01557832956314087
1771082198046273500,3.3282734375,-0.0776205062866211,-0.026455283164978027,0.0052376389503479
1771082198056214500,3.338214599609375,0.08614921569824219,-0.0024990737438201904,0.0009270906448364258
1771082198066155500,3.348155517578125,-0.007083892822265625,-0.028681546449661255,-0.017838895320892334
1771082198076096300,3.35809619140625,-0.08232402801513672,-0.0027403831481933594,0.009975969791412354
1771082198086037200,3.368037353515625,0.0980215072631836,-0.014488160610198975,-0.001166701316833496
1771082198095978000,3.37797802734375,-0.02133655548095703,-0.031059354543685913,-0.013347864151000977
1771082198105919000,3.3879189453125,-0.039829254150390625,-0.007331252098083496,0.01694965362548828
1771082198115860000,3.39785986328125,0.05740642547607422,-0.014401257038116455,-0.003832876682281494
1771082198125800700,3.40780078125,-0.037735939025878906,-0.021556705236434937,-0.01607125997543335
1771082198135741700,3.41774169921875,-0.0159149169921875,-0.009651124477386475,0.01703733205795288
1771082198145682400,3.427682373046875,0.036179542541503906,-0.016575127840042114,-0.010906338691711426
1771082198155623400,3.43762353515625,-0.039775848388671875,-0.021441668272018433,-0.0019397139549255371
1771082198165564200,3.447564208984375,0.017400741577148438,-0.014150679111480713,-0.0018284320831298828
1771082198175505200,3.457505126953125,-0.008770942687988281,-0.02827155590057373,-0.013490498065948486
1771082198185446100,3.467446044921875,-0.010976791381835938,-0.014007091522216797,0.012405693531036377
1771082198195387000,3.477386962890625,0.06692695617675781,-0.011548638343811035,-0.003897368907928467
1771082198205328000,3.487327880859375,-0.09664344787597656,-0.021105945110321045,-0.006615877151489258
1771082198215268600,3.4972685546875,0.0062236785888671875,-0.006853550672531128,0.014868378639221191
1771082198225209600,3.507209716796875,0.0956268310546875,-0.004610210657119751,-0.015393495559692383
1771082198235150600,3.517150634765625,-0.0990457534790039,-0.026156246662139893,-0.006555378437042236
1771082198245091300,3.52709130859375,-0.010259628295898438,-0.01417398452758789,0.019738078117370605
1771082198255032300,3.5370322265625,0.055866241455078125,-0.002295553684234619,-0.01777428388595581
1771082198264973000,3.54697314453125,-0.04633617401123047,-0.02377280592918396,-0.006638944149017334
1771082198274914000,3.5569140625,0.022744178771972656,-0.01879727840423584,0.019854307174682617
1771082198284854800,3.566854736328125,0.008254051208496094,-0.021069228649139404,-0.02042067050933838
1771082198294795800,3.576795654296875,-0.07901191711425781,-0.016341954469680786,0.009893238544464111
1771082198304736800,3.58673681640625,0.08479785919189453,-0.009034395217895508,-0.00596165657043457
1771082198314677500,3.596677490234375,0.010393142700195312,-0.0185319185256958,-0.015606999397277832
1771082198334559200,3.616559326171875,0.04874134063720703,-0.018632471561431885,0.0036191344261169434
1771082198344500000,3.6265,-0.032120704650878906,-0.01640176773071289,-0.013350367546081543
1771082198354441000,3.63644091796875,0.027280807495117188,-0.002233535051345825,0.010392427444458008
1771082198364381700,3.646381591796875,0.06216907501220703,-0.016445666551589966,-0.01528942584991455
1771082198374322400,3.656322509765625,-0.106048583984375,-0.0071828365325927734,0.010031819343566895
1771082198384263400,3.666263427734375,0.020524978637695312,-0.016609609127044678,0.010248363018035889
1771082198394204200,3.6762041015625,0.060233116149902344,-0.01656368374824524,-0.015537559986114502
1771082198404145200,3.686145263671875,-0.046733856201171875,-0.004842966794967651,-0.006488978862762451
1771082198414086000,3.6960859375,0.04118156433105469,-0.0213659405708313,0.012842178344726562
1771082198424026600,3.706026611328125,-0.030112266540527344,-0.018886446952819824,-0.02015143632888794
1771082198433967600,3.715967529296875,-0.03433704376220703,-0.011638075113296509,0.010361194610595703
1771082198443908400,3.725908447265625,0.051029205322265625,-0.011675000190734863,0.005965292453765869
1771082198453849300,3.735849365234375,0.012513160705566406,-0.011711329221725464,-0.013092756271362305
1771082198473730800,3.755730712890625,0.02938556671142578,-0.025537312030792236,-0.00840294361114502
1771082198483671800,3.765671875,-0.025266647338867188,-0.008862525224685669,-0.008691966533660889
1771082198493612500,3.775612548828125,0.02460479736328125,-0.013654321432113647,0.005555987358093262
1771082198503553300,3.78555322265625,0.03599357604980469,-0.015910327434539795,-0.010632872581481934
1771082198513494300,3.795494384765625,-0.04937458038330078,-0.02304062247276306,-0.0015692710876464844
1771082198523435000,3.80543505859375,0.029173851013183594,-0.0040531158447265625,0.0035492777824401855
1771082198533376000,3.8153759765625,0.04046916961669922,-0.02059495449066162,-0.022328197956085205
1771082198543316700,3.825316650390625,-0.09912300109863281,-0.018331557512283325,0.008017361164093018
1771082198553257500,3.835257568359375,0.0791463851928711,-0.0040295422077178955,-0.007907748222351074
1771082198563198500,3.845198486328125,0.016617774963378906,-0.023123562335968018,-0.017414212226867676
1771082198573139200,3.85513916015625,-0.07078742980957031,-0.0018820464611053467,0.015203773975372314
1771082198583080000,3.865079833984375,0.06228351593017578,-0.009042859077453613,-0.0007395148277282715
1771082198593021000,3.87502099609375,-0.03529548645019531,-0.02805909514427185,-0.017738044261932373
1771082198602961700,3.884961669921875,-0.03000164031982422,-0.004375278949737549,0.02225792407989502
1771082198612902700,3.894902587890625,0.07413864135742188,-0.011494547128677368,-0.014991581439971924
1771082198622843400,3.904843505859375,-0.04012870788574219,-0.016242504119873047,-0.008311271667480469
1771082198632784100,3.9147841796875,-0.02061748504638672,-0.0021785497665405273,0.01760023832321167
1771082198642725000,3.92472509765625,0.03155994415283203,-0.028168827295303345,-0.012711942195892334
1771082198652665900,3.934665771484375,-0.020780563354492188,-0.011551767587661743,-0.0013609528541564941
1771082198662606800,3.94460693359375,0.029027938842773438,-0.004419922828674316,0.006011605262756348
1771082198672547600,3.954547607421875,-0.0067501068115234375,-0.03528466820716858,-0.005781114101409912
1771082198682488300,3.96448828125,-0.04902362823486328,-0.009131848812103271,0.005657553672790527
1771082198692429300,3.97442919921875,0.0554046630859375,-0.013817548751831055,-0.005926072597503662
1771082198702370000,3.9843701171875,-0.006732940673828125,-0.023235410451889038,-0.00605320930480957
1771082198712310800,3.994310791015625,-0.041932106018066406,-0.004352003335952759,0.00558847188949585
1771082198722251800,4.004251708984375,0.06709861755371094,-0.01618024706840515,-0.005790770053863525
1771082198732192500,4.014192626953125,-0.04232025146484375,-0.028014659881591797,-0.008376061916351318
1771082198742133500,4.024133544921875,-0.013364791870117188,-0.006589949131011963,0.012726306915283203
1771082198752074200,4.03407421875,0.07871055603027344,-0.008862107992172241,-0.01279604434967041
1771082198762015000,4.044014892578125,-0.05446815490722656,-0.01846414804458618,0.003163278102874756
1771082198771956000,4.0539560546875,0.007678985595703125,-0.0042615532875061035,0.0128098726272583
1771082198781896700,4.063896728515625,0.04524803161621094,-0.018445611000061035,-0.01762568950653076
1771082198791837400,4.07383740234375,-0.049698829650878906,-0.009155184030532837,-0.0062944889068603516
1771082198801778400,4.0837783203125,-0.0017566680908203125,-0.013834774494171143,0.005970478057861328
1771082198811719200,4.09371923828125,0.043030738830566406,-0.01864531636238098,-0.024554312229156494
1771082198821660200,4.10366015625,-0.037746429443359375,-0.018667131662368774,-0.0011329054832458496
1771082198831601000,4.113600830078125,-0.0017805099487304688,-0.01612529158592224,0.008590102195739746
1771082198841541600,4.123541748046875,0.0171051025390625,-0.011378884315490723,-0.012561142444610596
1771082198851482600,4.133482666015625,-0.023215293884277344,-0.018477320671081543,0.00134962797164917
1771082198861423400,4.14342333984375,0.02899932861328125,-0.016045957803726196,0.006419539451599121
1771082198871364000,4.153364013671875,-0.006800651550292969,-0.023072361946105957,-0.0174562931060791
1771082198881305000,4.16330517578125,-0.041998863220214844,-0.008894532918930054,0.017923176288604736
1771082198901186800,4.183186767578125,-0.03281688690185547,-0.01851096749305725,-0.007964372634887695
1771082198911127600,4.19312744140625,-0.027551651000976562,-0.0019475221633911133,0.01333916187286377
1771082198921068300,4.203068359375,0.06005096435546875,-0.016164422035217285,-0.01699882745742798
1771082198931009300,4.21300927734375,-0.05161762237548828,-0.021037787199020386,-0.005576372146606445
1771082198940950000,4.222949951171875,0.012829780578613281,-0.011495113372802734,0.0205991268157959
1771082198950891000,4.23289111328125,0.0456085205078125,-0.016243010759353638,-0.02644634246826172
1771082198960831700,4.242831787109375,-0.06348037719726562,-0.013950556516647339,0.01082754135131836
1771082198970772500,4.2527724609375,0.04356098175048828,-0.011493057012557983,0.004171192646026611
1771082198980713500,4.26271337890625,-0.004246711730957031,-0.025550872087478638,-0.019459187984466553
1771082198990654500,4.272654541015625,-0.04892253875732422,-0.004268854856491089,0.015648841857910156
1771082199000595200,4.28259521484375,0.04845905303955078,-0.016098469495773315,-0.009922266006469727
1771082199010536200,4.2925361328125,-0.013563156127929688,-0.02793419361114502,-0.00773012638092041
1771082199020477000,4.302476806640625,-0.006272315979003906,-0.00896674394607544,0.0062986016273498535
1771082199030418000,4.31241796875,0.01976299285888672,-0.025522559881210327,-0.00048065185546875
1771082199040359000,4.32235888671875,-0.05354785919189453,-0.013759821653366089,-0.0008001327514648438
1771082199050299600,4.332299560546875,0.04858970642089844,-0.004236847162246704,-0.0007030367851257324
1771082199060240600,4.34224072265625,0.03837299346923828,-0.02548423409461975,-0.012383878231048584
1771082199070181400,4.352181396484375,-0.04467582702636719,-0.006557673215866089,0.003873467445373535
1771082199080122400,4.362122314453125,0.03142261505126953,-0.011286258697509766,-0.0007191300392150879
1771082199090063400,4.3720634765625,-0.006760597229003906,-0.023100584745407104,-0.00779271125793457
1771082199100004000,4.382004150390625,-0.03255748748779297,-0.006460666656494141,0.008392870426177979
1771082199109945000,4.391945068359375,0.052773475646972656,-0.011185169219970703,-0.0030283331871032715
1771082199119885800,4.4018857421875,-0.016378402709960938,-0.03016570210456848,-0.010266661643981934
1771082199129826800,4.411826904296875,-0.03258228302001953,-0.008801043033599854,0.008517742156982422
1771082199139767600,4.421767578125,0.0527496337890625,-0.01349225640296936,-0.01232755184173584
1771082199149708500,4.43170849609375,-0.03289318084716797,-0.02077019214630127,-0.005594789981842041
1771082199159649500,4.4416494140625,-0.0017299652099609375,-0.004174858331680298,0.006247282028198242
1771082199169590300,4.45159033203125,0.052475929260253906,-0.025423258543014526,-0.012307405471801758
1771082199179531300,4.46153125,-0.04493999481201172,-0.016016513109207153,-0.003317534923553467
1771082199189472000,4.471471923828125,0.014682769775390625,-0.006461679935455322,0.003981232643127441
1771082199199413000,4.4814130859375,0.026224136352539062,-0.011293500661849976,-0.019549131393432617
1771082199209354000,4.49135400390625,-0.030730247497558594,-0.016146421432495117,0.006143152713775635
1771082199219294700,4.501294677734375,0.023958206176757812,-0.011399656534194946,0.0016143321990966797
1771082199239176400,4.521176513671875,-0.009242057800292969,-0.011380881071090698,0.008571863174438477
1771082199249117400,4.531117431640625,0.019191741943359375,-0.023092001676559448,-0.0029587149620056152
1771082199259058200,4.54105810546875,-0.03056621551513672,-0.008913874626159668,-0.0031352639198303223
1771082199268999200,4.550999267578125,-0.004154205322265625,-0.0018317103385925293,0.008665800094604492
1771082199278940200,4.560940185546875,0.05008697509765625,-0.023119181394577026,-0.0170937180519104
1771082199288881000,4.570880859375,-0.06847190856933594,-0.018357813358306885,0.0015963912010192871
1771082199298822000,4.58082177734375,0.022154808044433594,-0.006409674882888794,0.011269152164459229
1771082199308762600,4.5907626953125,0.028863906860351562,-0.0230138897895813,-0.01709127426147461
1771082199318703600,4.60070361328125,-0.06580352783203125,-0.018355876207351685,0.008458495140075684
1771082199328644400,4.610644287109375,0.03891563415527344,-0.011110633611679077,-0.0029637813568115234
1771082199338585000,4.620585205078125,0.012378692626953125,-0.025282204151153564,-0.00999993085861206
1771082199348526000,4.630526123046875,-0.037276268005371094,-0.00871327519416809,0.008571922779083252
1771082199368407800,4.65040771484375,-0.011254310607910156,-0.022824913263320923,-0.014802038669586182
1771082199388289300,4.670289306640625,0.03400421142578125,-0.015661656856536865,-0.0073806047439575195
1771082199398230300,4.680230224609375,-0.01601123809814453,-0.01337885856628418,-0.0006238818168640137
1771082199408171000,4.6901708984375,-0.0039577484130859375,-0.013386785984039307,0.006528377532958984
1771082199418112000,4.700112060546875,0.01731109619140625,-0.020457476377487183,-0.014690160751342773
1771082199428052700,4.710052734375,-0.013589859008789062,-0.00857594609260559,-0.0006470680236816406
1771082199437993500,4.719993408203125,0.036103248596191406,-0.020435422658920288,0.002000153064727783
1771082199447934500,4.7299345703125,-0.032769203186035156,-0.022680044174194336,-0.007574677467346191
1771082199457875200,4.739875244140625,-0.013384819030761719,-0.001344233751296997,0.0018445253372192383
1771082199467816000,4.74981591796875,0.05514049530029297,-0.018027067184448242,-0.007316470146179199
1771082199477757000,4.7597568359375,-0.03524589538574219,-0.01805916428565979,-0.005167782306671143
1771082199487697700,4.76969775390625,-0.015814781188964844,-0.008571892976760864,0.006667137145996094
1771082199497638700,4.779638671875,0.033916473388671875,-0.018077105283737183,-0.00728762149810791
1771082199517520100,4.79952001953125,0.00305938720703125,-0.006305187940597534,0.006498873233795166
1771082199537401900,4.81940185546875,-0.04210853576660156,-0.013444572687149048,-0.0006558895111083984
1771082199557283600,4.83928369140625,0.031121253967285156,-0.020398050546646118,-0.01448214054107666
1771082199577165300,4.859165283203125,0.014809608459472656,-0.020477890968322754,-0.0002529025077819824
1771082199587106000,4.86910595703125,0.0028047561645507812,-0.018109053373336792,-0.00497514009475708
1771082199606987800,4.88898779296875,0.0453948974609375,-0.010982304811477661,-0.00723874568939209
1771082199616928500,4.898928466796875,-0.03541088104248047,-0.01819470524787903,0.00432586669921875
1771082199626869500,4.908869384765625,-0.013622283935546875,-0.015768080949783325,0.008939683437347412
1771082199636810200,4.918810302734375,0.01959228515625,-0.0133761465549469,-0.0074024200439453125
1771082199646751000,4.9287509765625,-0.018405914306640625,-0.018194347620010376,-0.0005436539649963379
1771082199656692000,4.93869189453125,0.0007572174072265625,-0.013413429260253906,0.004354596138000488
1771082199666632700,4.9486328125,0.01723957061767578,-0.01342076063156128,-0.0003476142883300781
1771082199686514400,4.968514404296875,0.014919281005859375,-0.018120557069778442,0.006686866283416748
1771082199706396200,4.988396240234375,-0.00408172607421875,-0.008740782737731934,0.015754282474517822
1771082199716337000,4.9983369140625,0.014842033386230469,-0.020597517490386963,-0.005516350269317627
1771082199726277600,5.008277587890625,-0.025420188903808594,-0.02294105291366577,0.0038685202598571777
1771082199736218600,5.018218505859375,0.0056247711181640625,-0.013366639614105225,0.003887772560119629
1771082199756100000,5.03810009765625,-0.02047443389892578,-0.011079460382461548,-0.0008704066276550293
1771082199775981800,5.05798193359375,-0.00630950927734375,-0.013619720935821533,-0.007844805717468262
1771082199785922800,5.0679228515625,-0.010909080505371094,-0.01126357913017273,-0.0007706284523010254
1771082199795863600,5.077863525390625,0.026963233947753906,-0.016015350818634033,-0.005285859107971191
1771082199805804300,5.08780419921875,-0.013510704040527344,-0.01597362756729126,-0.003064572811126709
1771082199815745300,5.097745361328125,-0.01797962188720703,-0.011325597763061523,0.004031538963317871
1771082199825686000,5.10768603515625,0.04119873046875,-0.016070574522018433,-0.009976089000701904
1771082199845567700,5.127567626953125,-0.015756607055664062,-0.013558924198150635,0.006593644618988037
1771082199855508500,5.137508544921875,0.010425567626953125,-0.01591813564300537,-0.009815812110900879
1771082199865449500,5.147449462890625,-0.020356178283691406,-0.013529449701309204,-0.007523834705352783
1771082199875390200,5.15739013671875,0.0106048583984375,-0.01118054986000061,-0.002610921859741211
1771082199885331000,5.1673310546875,0.019860267639160156,-0.018287986516952515,-0.007197022438049316
1771082199895272000,5.17727197265625,0.0006933212280273438,-0.013505488634109497,0.002114236354827881
1771082199905212700,5.187212646484375,-0.006366729736328125,-0.004094123840332031,-0.002550661563873291
1771082199915153700,5.197153564453125,0.0031614303588867188,-0.01828095316886902,0.0021777749061584473
1771082199925094400,5.207094482421875,0.010186195373535156,-0.013594478368759155,-0.00023066997528076172
1771082199944976100,5.22697607421875,-0.00861358642578125,-0.01352459192276001,0.0021647214889526367
1771082199954916900,5.236916748046875,0.012727737426757812,-0.015878647565841675,0.004465043544769287
1771082199964857600,5.246857666015625,0.000759124755859375,-0.015844911336898804,-0.0025933384895324707
1771082199974798600,5.256798583984375,0.0007562637329101562,-0.0158117413520813,-0.002572774887084961
1771082199984739300,5.2667392578125,0.005467414855957031,-0.02284201979637146,-0.0000966787338256836
1771082199994680300,5.276680419921875,-0.022861480712890625,-0.015730947256088257,-0.00011777877807617188
1771082200004621000,5.28662109375,0.0034303665161132812,-0.013446956872940063,-0.0001385211944580078
1771082200014561800,5.296561767578125,0.015160560607910156,-0.02522525191307068,-0.0024115443229675293
1771082200024502800,5.306502685546875,-0.020402908325195312,-0.013258486986160278,-0.00013649463653564453
1771082200034443500,5.316443603515625,0.019987106323242188,-0.011009961366653442,-0.002303183078765869
1771082200044384300,5.32638427734375,-0.0015201568603515625,-0.0157659649848938,-0.006894469261169434
1771082200054325200,5.3363251953125,-0.01326751708984375,-0.013379812240600586,0.00005745887756347656
1771082200064266000,5.346265869140625,0.02463817596435547,-0.015634655952453613,-0.002112448215484619
1771082200074207000,5.35620703125,-0.0063762664794921875,-0.013346582651138306,-0.009361207485198975
1771082200084147700,5.366147705078125,-0.01568317413330078,-0.011000752449035645,0.0024420619010925293
1771082200094088400,5.37608837890625,0.012845993041992188,-0.018009603023529053,-0.0021266937255859375
1771082200104029400,5.386029541015625,-0.0014905929565429688,-0.01322600245475769,-0.004565000534057617
1771082200113970200,5.39597021484375,0.0009031295776367188,-0.010978072881698608,0.00020182132720947266
1771082200123911200,5.4059111328125,-0.008507728576660156,-0.018083155155181885,-0.004324734210968018
1771082200133852000,5.415851806640625,-0.010712623596191406,-0.008697092533111572,0.00033169984817504883
1771082200143792600,5.425792724609375,0.020082473754882812,-0.015744328498840332,0.002759397029876709
1771082200153733600,5.435733642578125,-0.010854721069335938,-0.013358533382415771,0.00023484230041503906
1771082200163674400,5.44567431640625,-0.00360107421875,-0.01572108268737793,0.00020825862884521484
1771082200173615000,5.455614990234375,0.012948036193847656,-0.018044263124465942,-0.009235084056854248
1771082200183556000,5.46555615234375,-0.013155937194824219,-0.018076032400131226,0.004920363426208496
1771082200193496800,5.475496826171875,-0.0011510848999023438,-0.010942786931991577,-0.0021455883979797363
1771082200203437800,5.485437744140625,0.003597259521484375,-0.01580148935317993,-0.004385173320770264
1771082200213378600,5.495378662109375,-0.010584831237792969,-0.011060446500778198,-0.004436314105987549
1771082200223319300,5.5053193359375,0.01551055908203125,-0.008752703666687012,0.0028810501098632812
1771082200233260300,5.51526025390625,-0.008282661437988281,-0.02071082592010498,-0.006708383560180664
1771082200243201000,5.525200927734375,-0.0010833740234375,-0.01814061403274536,0.0003420710563659668
1771082200253141800,5.535141845703125,0.013081550598144531,-0.01571488380432129,-0.0018374323844909668
1771082200263082800,5.545082763671875,-0.02008819580078125,-0.01813402771949768,-0.0019262433052062988
1771082200282964500,5.564964599609375,0.02741241455078125,-0.017955005168914795,-0.0018451213836669922
1771082200302846000,5.584845947265625,0.010750770568847656,-0.015592902898788452,-0.0019177794456481934
1771082200312787000,5.594786865234375,0.00351715087890625,-0.01791822910308838,-0.004262804985046387
1771082200322727700,5.604727783203125,-0.0036001205444335938,-0.013141870498657227,-0.0019617080688476562
1771082200332668700,5.614668701171875,0.02237224578857422,-0.015406429767608643,0.0053144097328186035
1771082200342609400,5.624609375,-0.018014907836914062,-0.015482157468795776,-0.004315614700317383
1771082200352550100,5.634550048828125,-0.01064300537109375,-0.01310071349143982,0.005150794982910156
1771082200362491100,5.6444912109375,0.015446662902832031,-0.017821848392486572,0.002789616584777832
1771082200372432100,5.65443212890625,-0.010704994201660156,-0.010692834854125977,0.007327437400817871
1771082200382372900,5.664372802734375,0.010666847229003906,-0.010643929243087769,0.0024740099906921387
1771082200392313900,5.67431396484375,-0.005982398986816406,-0.01776030659675598,-0.0070070624351501465
1771082200402254600,5.684254638671875,-0.01999950408935547,-0.008272260427474976,0.0025090575218200684
1771082200412195600,5.694195556640625,0.015669822692871094,-0.013068139553070068,-0.006764590740203857
1771082200422136600,5.704136474609375,-0.003421783447265625,-0.017789840698242188,-0.006776094436645508
1771082200432077300,5.714077392578125,-0.012773513793945312,-0.015471547842025757,-0.004433095455169678
1771082200442018300,5.724018310546875,-0.01490020751953125,-0.013084560632705688,-0.006629765033721924
1771082200451959000,5.733958984375,-0.0028715133666992188,-0.01555323600769043,-0.006643533706665039
1771082200461900000,5.743900146484375,0.018373489379882812,-0.013170599937438965,0.0005074143409729004
1771082200471840800,5.7538408203125,-0.01016998291015625,-0.015632152557373047,0.00048106908798217773
1771082200481781800,5.76378173828125,-0.012340545654296875,-0.018058419227600098,-0.006612539291381836
1771082200491722800,5.77372265625,0.009067535400390625,-0.013375580310821533,0.0028969645500183105
1771082200501663500,5.78366357421875,0.01598358154296875,-0.01809215545654297,-0.00904703140258789
1771082200511604500,5.7936044921875,0.008663177490234375,-0.00625002384185791,0.0028525590896606445
1771082200521545200,5.803545166015625,-0.00324249267578125,-0.02049681544303894,-0.0019214749336242676
1771082200531486200,5.813486328125,-0.010237693786621094,-0.015779078006744385,-0.0019121170043945312
1771082200541427200,5.82342724609375,-0.000640869140625,-0.011032670736312866,0.0028104782104492188
1771082200551368000,5.833367919921875,0.013499259948730469,-0.015782535076141357,-0.0020644068717956543
1771082200561309000,5.843308837890625,-0.010254859924316406,-0.015852004289627075,0.00030159950256347656
1771082200571249700,5.853249755859375,0.0158233642578125,-0.013458669185638428,-0.004429876804351807
1771082200591131400,5.87313134765625,-0.015051841735839844,-0.006330370903015137,0.0003409385681152344
1771082200601072400,5.883072265625,0.011116981506347656,-0.008911669254302979,0.0027685165405273438
1771082200611013400,5.893013427734375,0.006232261657714844,-0.013702630996704102,-0.0020089149475097656
1771082200620954000,5.9029541015625,-0.0009365081787109375,-0.008996546268463135,-0.004555642604827881
1771082200630895000,5.91289501953125,-0.007962226867675781,-0.018590539693832397,0.00031262636184692383
1771082200640835800,5.9228359375,0.0062999725341796875,-0.01380300521850586,-0.009234011173248291
1771082200650776800,5.93277685546875,0.015621185302734375,-0.01615816354751587,0.00031441450119018555
1771082200660717600,5.942717529296875,-0.012887001037597656,-0.013765454292297363,-0.00687795877456665
1771082200670658300,5.952658203125,-0.0008859634399414062,-0.009058326482772827,0.0027328133583068848
1771082200680599300,5.962599365234375,0.00385284423828125,-0.0161953866481781,-0.00900048017501831
1771082200690540000,5.9725400390625,-0.0056247711181640625,-0.013802051544189453,-0.0066204071044921875
1771082200700480800,5.982480712890625,0.0038967132568359375,-0.008992701768875122,-0.004076838493347168
1771082200710421800,5.992421875,-0.010290145874023438,-0.023199498653411865,-0.011196017265319824
1771082200720362500,6.002362548828125,-0.005400657653808594,-0.011272192001342773,0.0030936598777770996
1771082200730303500,6.012303466796875,0.01589488983154297,-0.018270760774612427,-0.00854402780532837
1771082200740244200,6.022244140625,-0.014978408813476562,-0.011134237051010132,-0.001564621925354004
1771082200750185000,6.03218505859375,0.008824348449707031,-0.01813507080078125,0.0008994936943054199
1771082200760126000,6.0421259765625,-0.007798194885253906,-0.025126606225967407,-0.008656919002532959
1771082200770066700,6.052066650390625,-0.0029458999633789062,-0.013268798589706421,0.0032361745834350586
1771082200789948400,6.071948486328125,-0.0007905960083007812,-0.015603125095367432,-0.0038233399391174316
1771082200799889200,6.08188916015625,-0.014899253845214844,-0.015573948621749878,0.003179013729095459
1771082200809830100,6.091830078125,0.02302837371826172,-0.013083606958389282,0.0032097697257995605
1771082200819771000,6.10177099609375,-0.0032482147216796875,-0.010742127895355225,0.0030320286750793457
1771082200829711600,6.111711669921875,0.001529693603515625,-0.017856836318969727,-0.0040024518966674805
1771082200839652600,6.121652587890625,-0.0031890869140625,-0.020138680934906006,0.005565166473388672
1771082200859534300,6.141534423828125,0.004154205322265625,-0.015377521514892578,-0.003961503505706787
1771082200869475000,6.15147509765625,0.004088401794433594,-0.02005496621131897,-0.0016606450080871582
1771082200879415800,6.161415771484375,-0.00067901611328125,-0.015242964029312134,-0.008718550205230713
1771082200889356800,6.171356689453125,-0.0030107498168945312,-0.015118181705474854,0.0009229183197021484
1771082200899297500,6.181297607421875,-0.0005970001220703125,-0.008034199476242065,0.0008848309516906738
1771082200909238300,6.19123828125,0.008839607238769531,-0.01283976435661316,-0.006215512752532959
1771082200919179300,6.20117919921875,0.0016393661499023438,-0.019913822412490845,0.0009331107139587402
1771082200929120000,6.2111201171875,-0.012505531311035156,-0.010497182607650757,0.0007932782173156738
1771082200939061000,6.22106103515625,-0.005225181579589844,-0.017610251903533936,-0.001592099666595459
1771082200949001700,6.231001708984375,-0.0004215240478515625,-0.017649203538894653,-0.008752703666687012
1771082200958942500,6.2409423828125,0.001949310302734375,-0.010517269372940063,0.0007925033569335938
1771082200968883500,6.250883544921875,0.0019311904907226562,-0.01067441701889038,0.0007566213607788086
1771082200978824200,6.26082421875,-0.014573097229003906,-0.008474647998809814,0.0029740333557128906
1771082200988765000,6.270764892578125,0.004519462585449219,-0.020330041646957397,-0.004054665565490723
1771082200998706000,6.280705810546875,0.00681304931640625,-0.020317941904067993,-0.004004955291748047
1771082201008646700,6.290646728515625,-0.012121200561523438,-0.008534491062164307,-0.0016018152236938477
1771082201018587600,6.300587646484375,-0.009550094604492188,-0.020394593477249146,0.003212451934814453
1771082201028528400,6.3105283203125,-0.011734962463378906,-0.010868310928344727,-0.0015723705291748047
1771082201038469000,6.32046923828125,0.0049495697021484375,-0.015626609325408936,-0.0015688538551330566
1771082201048410000,6.33041015625,0.0025224685668945312,-0.0061740875244140625,0.0007936954498291016
1771082201058350800,6.340350830078125,0.011906623840332031,-0.011010617017745972,0.0031120777130126953
1771082201068291800,6.350291748046875,-0.011820793151855469,-0.01586812734603882,-0.0016710758209228516
1771082201078232600,6.360232666015625,0.0025157928466796875,-0.0065132081508636475,0.012464702129364014
1771082201088173300,6.37017333984375,0.004841804504394531,-0.011439979076385498,-0.011303901672363281
1771082201098114300,6.3801142578125,0.009479522705078125,-0.01854303479194641,-0.001721024513244629
1771082201108055000,6.390054931640625,-0.0000858306884765625,-0.01845911145210266,0.0006440877914428711
1771082201117995800,6.399995849609375,-0.02361774444580078,-0.01838231086730957,0.0029649734497070312
1771082201127936800,6.409936767578125,0.023871421813964844,-0.01359817385673523,-0.0018157362937927246
1771082201137877500,6.41987744140625,-0.000064849853515625,-0.022912263870239258,-0.00886625051498413
1771082201147818500,6.429818603515625,-0.009477615356445312,-0.013344019651412964,0.0005744695663452148
1771082201167700000,6.449699951171875,-0.016633033752441406,-0.020378679037094116,0.0007705092430114746
1771082201187581700,6.469581787109375,0.016587257385253906,-0.015605568885803223,-0.003902137279510498
1771082201197522400,6.4795224609375,-0.016646385192871094,-0.025095134973526,-0.0017086267471313477
1771082201207463400,6.48946337890625,-0.013993263244628906,-0.01077619194984436,0.007922351360321045
1771082201217404200,6.499404052734375,0.0050945281982421875,-0.020346224308013916,-0.006256520748138428
1771082201227345200,6.50934521484375,0.009721755981445312,-0.0061064064502716064,-0.0015631318092346191
1771082201237286000,6.519285888671875,0.0025119781494140625,-0.020361274480819702,-0.0014581084251403809
1771082201247226600,6.5292265625,-0.011641502380371094,-0.010937154293060303,0.000897824764251709
1771082201257167600,6.539167724609375,-0.0067291259765625,-0.018048584461212158,0.010277390480041504
1771082201267108400,6.5491083984375,0.024003028869628906,-0.01797860860824585,-0.00629502534866333
1771082201277049300,6.55904931640625,-0.0022897720336914062,-0.015549778938293457,-0.008663833141326904
1771082201286990000,6.568989990234375,0.00011157989501953125,-0.015515714883804321,0.0032341480255126953
1771082201296930800,6.578930908203125,0.004833221435546875,-0.010779380798339844,-0.01086658239364624
1771082201306871800,6.588871826171875,-0.011729240417480469,-0.013184875249862671,-0.00620269775390625
1771082201316812500,6.5988125,0.012024879455566406,-0.015442907810211182,-0.008268296718597412
1771082201326753300,6.608753173828125,0.014193534851074219,-0.013056337833404541,-0.005692422389984131
1771082201336694300,6.6186943359375,-0.023703575134277344,-0.015525460243225098,-0.003367483615875244
1771082201346635000,6.628635009765625,0.009673118591308594,-0.013137489557266235,0.0015825629234313965
1771082201366516700,6.648516845703125,-0.01653003692626953,-0.020100504159927368,-0.0032808780670166016
1771082201376457500,6.65845751953125,0.02143573760986328,-0.015281975269317627,-0.0030408501625061035
1771082201386398500,6.6683984375,-0.002460479736328125,-0.015258103609085083,-0.00546872615814209
1771082201396339200,6.678339111328125,-0.0024156570434570312,-0.015234649181365967,0.006269633769989014
1771082201406280000,6.688280029296875,0.021183013916015625,-0.017565876245498657,-0.007881700992584229
1771082201416221000,6.698220947265625,-0.012126922607421875,-0.017599821090698242,-0.0009085536003112793
1771082201426161700,6.70816162109375,0.002216339111328125,-0.012828737497329712,0.0015398263931274414
1771082201436102700,6.7181025390625,0.004542350769042969,-0.01755434274673462,-0.005571424961090088
1771082201446043400,6.72804345703125,-0.02849578857421875,-0.015138328075408936,0.0013585090637207031
1771082201455984000,6.737984130859375,0.01202392578125,-0.01511111855506897,-0.0008330941200256348
1771082201465925000,6.747925048828125,0.0071239471435546875,-0.022153019905090332,0.0038666725158691406
1771082201475865900,6.757865966796875,-0.011831283569335938,-0.017306029796600342,0.001222074031829834
1771082201485806800,6.767806884765625,-0.0045566558837890625,-0.012534111738204956,-0.003423154354095459
1771082201495747600,6.77774755859375,-0.006831169128417969,-0.017258912324905396,-0.005839824676513672
1771082201505688300,6.787688232421875,0.00505828857421875,-0.017106235027313232,-0.003415703773498535
1771082201515629300,6.79762939453125,0.014401435852050781,-0.012241780757904053,0.006137371063232422
1771082201525570000,6.807570068359375,-0.02349853515625,-0.012364447116851807,0.0012070536613464355
1771082201535510800,6.8175107421875,0.009868621826171875,-0.010034918785095215,0.0036202073097229004
1771082201545451800,6.82745166015625,0.01913166046142578,-0.017059803009033203,-0.005778372287750244
1771082201555392500,6.837392578125,-0.023560523986816406,-0.012291967868804932,0.0012613534927368164
1771082201565333500,6.84733349609375,0.014522552490234375,-0.014666497707366943,0.0061342716217041016
1771082201575274200,6.857274169921875,0.0025186538696289062,-0.009944289922714233,-0.0057621002197265625
1771082201585215000,6.867215087890625,-0.011651039123535156,-0.012363702058792114,0.005879580974578857
1771082201595156000,6.877156005859375,0.021524429321289062,-0.01944565773010254,-0.0010959506034851074
1771082201605096700,6.8870966796875,-0.0023794174194335938,-0.00758090615272522,0.0034050941467285156
1771082201615037400,6.897037353515625,-0.01645660400390625,-0.0076853930950164795,0.005679965019226074
1771082201624978400,6.906978515625,0.02149677276611328,-0.010040849447250366,0.0009556412696838379
1771082201634919200,6.916919189453125,-0.0047550201416015625,-0.017167240381240845,-0.0015388131141662598
1771082201644860200,6.926860107421875,-0.011729240417480469,-0.0076947808265686035,-0.0015358328819274902
1771082201654801000,6.93680078125,0.019082069396972656,-0.01711297035217285,0.0009230375289916992
1771082201664741600,6.94674169921875,-0.016556739807128906,-0.01931130886077881,0.0006818175315856934
1771082201674682600,6.9566826171875,0.0025625228881835938,-0.007448792457580566,-0.004060804843902588
1771082201684623400,6.966623291015625,0.014301300048828125,-0.009802460670471191,0.0007992386817932129
1771082201694564000,6.976564208984375,-0.018894195556640625,-0.00761723518371582,-0.0017942190170288086
1771082201704505000,6.986505126953125,0.0073337554931640625,-0.007721126079559326,-0.0016853809356689453
1771082201724386800,7.00638671875,-0.021231651306152344,-0.017183959484100342,0.00047647953033447266
1771082201734327600,7.01632763671875,0.005040168762207031,-0.012419849634170532,0.0006490349769592285
1771082201744268300,7.026268310546875,0.012034416198730469,-0.014797985553741455,-0.0063457489013671875
1771082201754209300,7.036209228515625,-0.0069980621337890625,-0.012529492378234863,0.005305647850036621
1771082201764150000,7.04614990234375,0.0025510787963867188,-0.014905810356140137,-0.006475329399108887
1771082201774091000,7.056091064453125,0.016637802124023438,-0.014888226985931396,-0.006491661071777344
1771082201784031700,7.06603173828125,0.021078109741210938,-0.014870941638946533,0.005365312099456787
1771082201793972500,7.075972412109375,-0.014578819274902344,-0.021916836500167847,-0.008872568607330322
1771082201803913500,7.08591357421875,0.006857872009277344,-0.01696646213531494,-0.0016796588897705078
1771082201813854200,7.095854248046875,0.016176223754882812,-0.014560222625732422,0.003135859966278076
1771082201823795000,7.105794921875,-0.009987831115722656,-0.009839832782745361,-0.004103541374206543
1771082201833736000,7.11573583984375,0.013726234436035156,-0.012153685092926025,0.0006555914878845215
1771082201843676700,7.1256767578125,0.0088043212890625,-0.01689058542251587,-0.003984987735748291
1771082201853617700,7.13561767578125,-0.007823944091796875,-0.01683419942855835,0.002923250198364258
1771082201863558400,7.145558349609375,0.004097938537597656,-0.012171804904937744,-0.0041046142578125
1771082201873499100,7.1554990234375,0.011103630065917969,-0.012098222970962524,-0.003957271575927734
1771082201883440000,7.165440185546875,-0.029096603393554688,-0.014577597379684448,0.0006978511810302734
1771082201893380900,7.175380859375,0.018479347229003906,-0.007401019334793091,0.0006635189056396484
1771082201903321600,7.185321533203125,0.00170135498046875,-0.016925722360610962,-0.004078805446624756
1771082201913262600,7.1952626953125,-0.02422618865966797,-0.009811609983444214,0.0028261542320251465
1771082201923203300,7.205203369140625,0.027988433837890625,-0.01448020339012146,0.0006101131439208984
1771082201933144300,7.215144287109375,-0.0054302215576171875,-0.014571338891983032,-0.008941471576690674
1771082201943085000,7.2250849609375,-0.01711273193359375,-0.012205064296722412,0.00039887428283691406
1771082201953025800,7.23502587890625,0.0020284652709960938,-0.014581054449081421,0.0005775690078735352
1771082201962966800,7.244966796875,0.009066581726074219,-0.014568865299224854,-0.006517648696899414
1771082201972907500,7.254907470703125,0.008924484252929688,-0.014556884765625,0.0006312131881713867
1771082201982848500,7.2648486328125,-0.01239776611328125,-0.021608054637908936,0.0006996393203735352
1771082201992789200,7.274789306640625,0.004298210144042969,-0.007352948188781738,-0.0016890168190002441
1771082202002730000,7.28472998046875,0.016008377075195312,-0.01206827163696289,-0.008644819259643555
1771082202012671000,7.2946708984375,-0.0101470947265625,-0.021515220403671265,-0.006169140338897705
1771082202022611700,7.30461181640625,-0.0052547454833984375,-0.009615987539291382,-0.0012787580490112305
1771082202032552400,7.314552490234375,0.008969306945800781,-0.014293581247329712,-0.008241355419158936
1771082202042493400,7.324493408203125,-0.0005922317504882812,-0.014178872108459473,-0.0057675838470458984
1771082202052434200,7.33443408203125,0.0064907073974609375,-0.007104784250259399,-0.0033350586891174316
1771082202062375200,7.344375244140625,0.013460159301757812,-0.014280140399932861,-0.0008462071418762207
1771082202072316000,7.35431591796875,-0.01265716552734375,-0.014273017644882202,-0.003310680389404297
1771082202082256600,7.364256591796875,0.0016832351684570312,-0.011911720037460327,0.0013288259506225586
1771082202092197600,7.37419775390625,0.01579570770263672,-0.011938303709030151,-0.010381042957305908
1771082202102138400,7.384138427734375,-0.015081405639648438,-0.014324486255645752,-0.003472626209259033
1771082202112079000,7.3940791015625,0.0040149688720703125,-0.009506434202194214,-0.0033357739448547363
1771082202122020000,7.40402001953125,0.0016088485717773438,-0.016636013984680176,-0.003196418285369873
1771082202131960800,7.4139609375,-0.0031223297119140625,-0.016589611768722534,-0.000913083553314209
1771082202141901800,7.42390185546875,0.006361961364746094,-0.018892556428909302,0.003894507884979248
1771082202151842600,7.433842529296875,-0.005507469177246094,-0.018910139799118042,-0.005711853504180908
1771082202161783300,7.443783203125,0.006365776062011719,-0.02118012309074402,-0.0009307265281677246
1771082202171724300,7.453724365234375,0.006274223327636719,-0.013995081186294556,-0.0031905770301818848
1771082202181665000,7.4636650390625,-0.005588531494140625,-0.014094293117523193,0.0015485286712646484
1771082202191606000,7.47360595703125,0.00628662109375,-0.01634293794631958,0.0016016960144042969
1771082202201546800,7.483546630859375,0.0014829635620117188,-0.011587083339691162,-0.0031514763832092285
1771082202211487500,7.493487548828125,0.0038213729858398438,-0.01632767915725708,-0.0007625222206115723
1771082202221428500,7.503428466796875,0.006133079528808594,-0.011673688888549805,-0.0053746700286865234
1771082202231369200,7.513369140625,0.0013303756713867188,-0.011811614036560059,-0.0007007718086242676
1771082202241310000,7.52331005859375,-0.003391265869140625,-0.009485572576522827,-0.0007069706916809082
1771082202251251000,7.5332509765625,0.008458137512207031,-0.014266937971115112,-0.000514686107635498
1771082202261191700,7.543191650390625,0.003612518310546875,-0.016614317893981934,-0.00298464298248291
1771082202271132700,7.553132568359375,-0.008214950561523438,-0.023631185293197632,0.0016494393348693848
1771082202291014100,7.57301416015625,-0.003643035888671875,-0.011783570051193237,0.0017147660255432129
1771082202300955100,7.582955078125,-0.005928993225097656,-0.01427394151687622,0.0015619397163391113
1771082202310895900,7.592895751953125,0.005951881408691406,-0.018873929977416992,-0.0007394552230834961
1771082202320836600,7.602836669921875,-0.010629653930664062,-0.014081627130508423,-0.003307342529296875
1771082202330777600,7.612777587890625,0.006038665771484375,-0.016324758529663086,0.0062487125396728516
1771082202340718300,7.62271826171875,0.013010025024414062,-0.018637865781784058,-0.0009409785270690918
1771082202350659300,7.632659423828125,-0.013104438781738281,-0.013747870922088623,0.0013047456741333008
1771082202360600000,7.64260009765625,0.008317947387695312,-0.008939415216445923,-0.0008907914161682129
1771082202370540800,7.652540771484375,0.0058345794677734375,-0.011369854211807251,-0.0032480955123901367
1771082202380481800,7.662481689453125,-0.0036706924438476562,-0.006696879863739014,0.001496732234954834
1771082202390422500,7.672422607421875,0.008183479309082031,-0.01387903094291687,-0.0030562877655029297
1771082202400363300,7.68236328125,0.0009937286376953125,-0.013878583908081055,-0.0006737112998962402
1771082202410304300,7.69230419921875,-0.0037279129028320312,-0.016232430934906006,-0.0007867217063903809
1771082202420245000,7.702244873046875,0.0057773590087890625,-0.011585772037506104,0.0041155219078063965
1771082202430186000,7.71218603515625,0.0009660720825195312,-0.011516213417053223,-0.005591332912445068
1771082202440126700,7.722126708984375,0.0009546279907226562,-0.006750702857971191,0.0038915276527404785
1771082202450067500,7.7320673828125,-0.0037603378295898438,-0.016286253929138184,-0.0032588839530944824
1771082202460008400,7.742008544921875,0.008076667785644531,-0.011537104845046997,-0.0009745359420776367
1771082202469949200,7.75194921875,0.00324249267578125,-0.016284286975860596,-0.005689561367034912
1771082202479890200,7.76189013671875,-0.010928153991699219,-0.006826579570770264,0.0037997961044311523
1771082202489831000,7.771830810546875,0.00339508056640625,-0.00929221510887146,-0.0008883476257324219
1771082202499771600,7.781771728515625,0.012764930725097656,-0.014071077108383179,-0.005600035190582275
1771082202509712600,7.791712646484375,-0.010993003845214844,-0.01171886920928955,-0.0033831000328063965
1771082202519653400,7.8016533203125,0.000972747802734375,-0.018715739250183105,-0.0008934736251831055
1771082202529594000,7.811593994140625,0.010382652282714844,-0.01862892508506775,-0.0032507777214050293
1771082202539535000,7.82153515625,-0.015689849853515625,-0.01619499921798706,0.005994677543640137
1771082202549475800,7.831475830078125,0.0010671615600585938,-0.009087324142456055,-0.0010843873023986816
1771082202569357600,7.851357666015625,-0.02041912078857422,-0.011548489332199097,0.001323997974395752
1771082202579298300,7.86129833984375,-0.010646820068359375,-0.011586874723434448,0.0013808608055114746
1771082202589239300,7.8712392578125,0.022500991821289062,-0.020934492349624634,-0.007975578308105469
1771082202599180000,7.881179931640625,-0.0037679672241210938,-0.020918071269989014,0.0013486146926879883
1771082202609120800,7.891120849609375,-0.006045341491699219,-0.009028792381286621,0.0037593841552734375
1771082202619061800,7.901061767578125,0.0034933090209960938,-0.020982295274734497,-0.005641520023345947
1771082202638943500,7.920943603515625,-0.008414268493652344,-0.016294866800308228,-0.001048266887664795
1771082202648884200,7.93088427734375,0.008214950561523438,-0.01624840497970581,-0.005757272243499756
1771082202668766000,7.950765869140625,-0.01771068572998047,-0.016247689723968506,-0.003576815128326416
1771082202688647700,7.970647705078125,0.022535324096679688,-0.01627480983734131,-0.0010166764259338379
1771082202698588400,7.98058837890625,-0.01551055908203125,-0.009171545505523682,-0.005934238433837891
1771082202718470100,8.00047021484375,0.013048171997070312,-0.016310691833496094,-0.010407805442810059
1771082202738351600,8.0203515625,-0.008081436157226562,-0.0069865882396698,0.0014140009880065918
1771082202748292600,8.030292724609374,0.022673606872558594,-0.00710102915763855,-0.010302066802978516
1771082202758233300,8.0402333984375,-0.0036029815673828125,-0.018979310989379883,-0.003288567066192627
1771082202768174300,8.05017431640625,-0.01765918731689453,-0.011825203895568848,0.0038112401962280273
1771082202788055800,8.070055908203125,-0.001194000244140625,-0.009559333324432373,-0.005521714687347412
1771082202807937500,8.0899375,0.017782211303710938,-0.014354467391967773,-0.007932901382446289
1771082202817878300,8.099878173828126,0.008072853088378906,-0.009637504816055298,0.0014922618865966797
1771082202837760000,8.119760009765624,0.0009584426879882812,-0.014406949281692505,-0.0008778572082519531
1771082202857641700,8.139641845703125,-0.0017671585083007812,-0.026132971048355103,-0.0032433271408081055
1771082202877523500,8.1595234375,0.022200584411621094,-0.002239406108856201,-0.008005678653717041
1771082202887464200,8.169464111328125,0.005354881286621094,-0.023621678352355957,-0.0009336471557617188
1771082202897405000,8.179405029296875,-0.025342941284179688,-0.014041662216186523,-0.0058525800704956055
1771082202907346000,8.189345947265625,0.012769699096679688,-0.00932416319847107,0.0014931559562683105
1771082202917286700,8.19928662109375,-0.001560211181640625,-0.01185557246208191,-0.001010298728942871
1771082202937168400,8.21916845703125,0.02005290985107422,-0.009565621614456177,-0.003333568572998047
1771082202957050000,8.239050048828124,-0.018030166625976562,-0.011904656887054443,0.013229548931121826
1771082202966990800,8.248990966796875,0.0105438232421875,-0.011931359767913818,-0.005639970302581787
1771082202976931800,8.258931884765625,0.0033130645751953125,-0.016773581504821777,-0.0033159255981445312
1771082202986872600,8.26887255859375,0.0009136199951171875,-0.019079208374023438,-0.0009290575981140137
1771082203006754300,8.28875439453125,-0.011055946350097656,-0.014338672161102295,0.006257057189941406
1771082203016695000,8.298695068359375,-0.010862350463867188,-0.01668485999107361,0.006130099296569824
1771082203026635800,8.3086357421875,0.003459930419921875,-0.018991976976394653,-0.008018910884857178
1771082203036576800,8.31857666015625,0.019890785217285156,-0.021362215280532837,0.0014076828956604004
1771082203046517500,8.328517578125,0.0101470947265625,-0.016426831483840942,-0.0009927749633789062
1771082203056458500,8.33845849609375,-0.0206146240234375,-0.011776953935623169,-0.0033531785011291504
1771082203066399200,8.348399169921874,0.0056362152099609375,-0.004742920398712158,0.001393437385559082
1771082203076340000,8.358340087890625,0.017317771911621094,-0.009501725435256958,-0.005715370178222656
1771082203086281000,8.368281005859375,-0.03476142883300781,-0.018985718488693237,-0.0033852458000183105
1771082203096221700,8.3782216796875,0.00821685791015625,-0.01654583215713501,-0.005502581596374512
1771082203106162400,8.388162353515625,0.02221965789794922,-0.016602545976638794,-0.010142147541046143
1771082203116103400,8.398103515625,-0.032296180725097656,-0.019012659788131714,0.0015724897384643555
1771082203126044200,8.408044189453125,0.015349388122558594,-0.011863738298416138,0.0017268061637878418
1771082203135985200,8.417985107421876,0.012752532958984375,-0.023770004510879517,-0.0006789565086364746
1771082203145926000,8.42792578125,-0.03455352783203125,-0.014187484979629517,0.008422017097473145
1771082203165807600,8.4478076171875,0.017630577087402344,-0.009446382522583008,-0.007926404476165771
1771082203185689300,8.467689453125,0.02033519744873047,-0.01659226417541504,0.0017390251159667969
1771082203205570800,8.48757080078125,-0.027185440063476562,-0.014186650514602661,-0.0032181739807128906
1771082203225452500,8.50745263671875,0.005953788757324219,-0.009327858686447144,-0.007588684558868408
1771082203235393300,8.517393310546876,-0.0059032440185546875,-0.014207720756530762,0.00193709135055542
1771082203245334300,8.527334228515626,0.017759323120117188,-0.01420179009437561,-0.009686172008514404
1771082203255275000,8.53727490234375,-0.0013675689697265625,-0.009481638669967651,0.004481613636016846
1771082203265216000,8.547216064453124,0.005722999572753906,-0.014155715703964233,0.004389047622680664
1771082203285097500,8.567097412109375,-0.001522064208984375,-0.00708279013633728,0.004035055637359619
1771082203304979200,8.586979248046875,0.0009851455688476562,-0.016561031341552734,-0.0076531171798706055
1771082203324861000,8.60686083984375,0.0009279251098632812,-0.011616408824920654,-0.0004951953887939453
1771082203344742700,8.62674267578125,-0.00351715087890625,-0.011729538440704346,0.004302501678466797
1771082203354683400,8.636683349609376,0.015386581420898438,-0.014017611742019653,-0.005107462406158447
1771082203384505900,8.666505859375,0.010680198669433594,-0.016246706247329712,-0.005216360092163086
1771082203394446800,8.67644677734375,-0.00832366943359375,-0.018662720918655396,-0.0005450844764709473
1771082203404387600,8.6863876953125,0.001247406005859375,-0.01622822880744934,0.006605863571166992
1771082203414328300,8.696328369140625,0.0059490203857421875,-0.013930201530456543,-0.005293607711791992
1771082203434210000,8.7162099609375,-0.005761146545410156,-0.011712491512298584,-0.0006494522094726562
1771082203454091800,8.736091796875,0.0036334991455078125,-0.011806368827819824,-0.0005961060523986816
1771082203464032500,8.746032470703126,0.0012340545654296875,-0.011840462684631348,0.00184708833694458
1771082203473973500,8.755973388671874,0.005936622619628906,-0.014228284358978271,-0.005167663097381592
1771082203483914200,8.765914306640624,0.0034971237182617188,-0.014323621988296509,-0.002749919891357422
1771082203503796000,8.7857958984375,0.0059566497802734375,-0.00719451904296875,-0.007303118705749512
1771082203523677400,8.805677490234375,0.001338958740234375,-0.007257610559463501,0.0020143985748291016
1771082203543559200,8.82555908203125,-0.0036306381225585938,-0.016932010650634766,-0.0027289390563964844
1771082203563441000,8.84544091796875,-0.010752677917480469,-0.012262463569641113,-0.007650792598724365
1771082203583322600,8.865322509765624,0.00830841064453125,-0.010060608386993408,-0.007419705390930176
1771082203603204000,8.8852041015625,-0.008152008056640625,-0.012495249509811401,-0.00262373685836792
1771082203623085800,8.9050859375,-0.0056667327880859375,-0.01720947027206421,-0.005016446113586426
1771082203642967600,8.924967529296875,0.006243705749511719,-0.019531279802322388,-0.004772543907165527
1771082203662849000,8.94484912109375,0.0042572021484375,-0.005284786224365234,0.0025159716606140137
1771082203672790000,8.9547900390625,0.013612747192382812,-0.01955336332321167,-0.002257227897644043
1771082203682730800,8.964730712890624,-0.017210960388183594,-0.01485133171081543,-0.002343893051147461
1771082203692671500,8.97467138671875,0.011348724365234375,-0.012480348348617554,0.00023001432418823242
1771082203702612200,8.9846123046875,0.0017518997192382812,-0.01721179485321045,-0.0021507740020751953
1771082203712553000,8.994552978515625,-0.002986907958984375,-0.009991317987442017,0.0001150965690612793
1771082203722493700,9.00449365234375,0.02532958984375,-0.012404173612594604,-0.009220242500305176
1771082203742375400,9.02437548828125,-0.015048027038574219,-0.01715487241744995,0.007385313510894775
1771082203752316200,9.034316162109375,0.011121749877929688,-0.019454151391983032,-0.009037315845489502
1771082203762257000,9.0442568359375,0.0038824081420898438,-0.014652162790298462,0.0005078315734863281
1771082203772197600,9.05419775390625,-0.0055904388427734375,-0.01934167742729187,0.00048148632049560547
1771082203792079400,9.074079345703124,-0.005774497985839844,-0.014670908451080322,-0.0018568634986877441
1771082203802020000,9.08402001953125,-0.010372161865234375,-0.009942889213562012,0.005320727825164795
1771082203811960800,9.0939609375,0.0251312255859375,-0.014615029096603394,-0.006358921527862549
1771082203821901600,9.103901611328125,-0.005890846252441406,-0.021761059761047363,-0.006474018096923828
1771082203841783300,9.123783203125,0.01800060272216797,-0.012160897254943848,-0.013221681118011475
1771082203851724000,9.13372412109375,-0.008193016052246094,-0.01229068636894226,0.0008985400199890137
1771082203861664800,9.143664794921875,-0.010396003723144531,-0.012316703796386719,0.005671083927154541
1771082203871605500,9.15360546875,0.013335227966308594,-0.021759510040283203,0.0009469389915466309
1771082203881546200,9.163546142578125,-0.008072853088378906,-0.007597744464874268,0.0007100701332092285
1771082203891487000,9.173487060546876,-0.010277748107910156,-0.007701992988586426,-0.003931403160095215
1771082203911368700,9.19336865234375,-0.010385513305664062,-0.015069782733917236,0.0007820725440979004
1771082203921309400,9.203309326171874,0.006282806396484375,-0.01269519329071045,0.0008479952812194824
1771082203941191200,9.223191162109375,-0.0032854080200195312,-0.015064269304275513,-0.0015584826469421387
1771082203951132000,9.2331318359375,0.010909080505371094,-0.012791365385055542,0.003153383731842041
1771082203961072600,9.24307275390625,-0.0010309219360351562,-0.01996779441833496,-0.001625657081604004
1771082203971013600,9.253013671875,-0.008072853088378906,-0.01751154661178589,-0.0017228126525878906
1771082203980954400,9.262954345703125,0.013264656066894531,-0.01509624719619751,0.0007391571998596191
1771082203990895000,9.27289501953125,-0.008134841918945312,-0.019784122705459595,-0.0016501545906066895
1771082204000836000,9.282836181640626,0.010844230651855469,-0.010268032550811768,-0.0016453266143798828
1771082204010776800,9.29277685546875,0.013031959533691406,-0.010322004556655884,-0.0015341639518737793
1771082204020717800,9.3027177734375,-0.017792701721191406,-0.012735128402709961,-0.0017344951629638672
1771082204030658600,9.312658447265624,-0.005710601806640625,-0.015108048915863037,0.005436241626739502
1771082204040599300,9.322599365234375,0.013234138488769531,-0.015087127685546875,-0.003992617130279541
1771082204050540300,9.332540283203125,-0.0011138916015625,-0.01741507649421692,-0.0017928481101989746
1771082204060481000,9.34248095703125,0.0036287307739257812,-0.015001386404037476,-0.0016840100288391113
1771082204070421800,9.352421875,0.0059375762939453125,-0.012627929449081421,-0.0015770196914672852
1771082204080362800,9.36236279296875,0.0034875869750976562,-0.010294049978256226,-0.004029273986816406
1771082204090303500,9.372303466796875,0.003444671630859375,-0.01505616307258606,-0.0015240907669067383
1771082204100244500,9.382244384765626,-0.0060272216796875,-0.02220061421394348,-0.0017246007919311523
1771082204110185200,9.392185302734376,-0.010636329650878906,-0.012542665004730225,0.0005341768264770508
1771082204120126000,9.4021259765625,0.006031990051269531,-0.010108590126037598,0.002958536148071289
1771082204130067000,9.41206689453125,-0.008195877075195312,-0.01723387837409973,0.007391929626464844
1771082204140007700,9.422007568359374,-0.005696296691894531,-0.0101146399974823,0.0001831650733947754
1771082204149948700,9.43194873046875,0.010889053344726562,-0.01948675513267517,0.0002638697624206543
1771082204159889400,9.441889404296875,-0.015186309814453125,-0.014684230089187622,-0.002219080924987793
1771082204169830100,9.451830078125,-0.007854461669921875,-0.00996178388595581,0.007314026355743408
1771082204179771100,9.461771240234375,0.013479232788085938,-0.010026633739471436,-0.006854712963104248
1771082204189712000,9.4717119140625,-0.0032167434692382812,-0.01490059494972229,-0.004510402679443359
1771082204199652600,9.481652587890625,-0.005503654479980469,-0.014978945255279541,0.0002554655075073242
1771082204209593600,9.491593505859376,0.004015922546386719,-0.010155737400054932,-0.009091854095458984
1771082204219534300,9.501534423828126,-0.0031099319458007812,-0.021983087062835693,0.0003573894500732422
1771082204229475300,9.511475341796874,-0.0030488967895507812,-0.014784663915634155,-0.006734132766723633
1771082204239416000,9.521416015625,-0.0006399154663085938,-0.012313216924667358,-0.0019359588623046875
1771082204249356800,9.531356689453125,-0.0029745101928710938,-0.01008617877960205,0.005034923553466797
1771082204259297800,9.5412978515625,-0.0005559921264648438,-0.01485753059387207,0.002675652503967285
1771082204269238500,9.551238525390625,-0.009955406188964844,-0.012588053941726685,0.009569704532623291
1771082204279179300,9.56117919921875,0.0019922256469726562,-0.017323464155197144,-0.00003445148468017578
1771082204289120300,9.571120361328125,0.025511741638183594,-0.014905542135238647,0.00230252742767334
1771082204299061000,9.58106103515625,-0.017287254333496094,-0.019596606492996216,-0.004922986030578613
1771082204309002000,9.591001953125,0.0018444061279296875,-0.012432217597961426,-0.00015020370483398438
1771082204318942700,9.600942626953126,0.0018281936645507812,-0.01716446876525879,-0.004777371883392334
1771082204328883500,9.610883544921874,-0.0123138427734375,-0.014850795269012451,-0.007069945335388184
1771082204338824400,9.620824462890624,0.0067462921142578125,-0.01022714376449585,0.0048983097076416016
1771082204348765200,9.63076513671875,0.0066432952880859375,-0.012641817331314087,-0.009331762790679932
1771082204368647000,9.65064697265625,0.006957054138183594,-0.010427385568618774,0.000272214412689209
1771082204378587600,9.660587646484375,0.013918876647949219,-0.015187263488769531,-0.0020028352737426758
1771082204388528600,9.670528564453125,-0.023978233337402344,-0.015164971351623535,-0.0020937323570251465
1771082204408410000,9.69041015625,-0.0024385452270507812,-0.015217363834381104,-0.0043582916259765625
1771082204418351000,9.70035107421875,-0.004748344421386719,-0.015092968940734863,0.00040024518966674805
1771082204428291800,9.710291748046876,-0.0022983551025390625,-0.01732495427131653,-0.0017802119255065918
1771082204438232800,9.72023291015625,0.0000972747802734375,-0.00784987211227417,0.0004795193672180176
1771082204448173600,9.730173583984374,0.0024709701538085938,-0.017468661069869995,0.0005504488945007324
1771082204458114300,9.7401142578125,0.009502410888671875,-0.01495245099067688,0.0029745101928710938
1771082204468055300,9.75005517578125,-0.004776954650878906,-0.017186790704727173,-0.006514906883239746
1771082204477996000,9.75999609375,-0.002338409423828125,-0.0124225914478302,0.0005323290824890137
1771082204487936800,9.769936767578125,-0.006999969482421875,-0.017256587743759155,0.0027534961700439453
1771082204497877800,9.779877685546875,0.004901885986328125,-0.012592822313308716,0.002684950828552246
1771082204507818500,9.789818603515625,0.014246940612792969,-0.0173223614692688,0.0026175379753112793
1771082204517759500,9.799759521484376,-0.011878013610839844,-0.017264485359191895,-0.0021573901176452637
1771082204527700200,9.8097001953125,0.00716400146484375,-0.01956191658973694,-0.0021440982818603516
1771082204537641000,9.819640869140626,0.023534774780273438,-0.01700502634048462,-0.0067331790924072266
1771082204557522700,9.839522705078124,0.0023670196533203125,-0.012147247791290283,0.00512242317199707
1771082204567463400,9.84946337890625,0.021183013916015625,-0.009922951459884644,-0.004301190376281738
1771082204577404400,9.859404296875,-0.009767532348632812,-0.01244431734085083,0.0027091503143310547
1771082204587345200,9.86934521484375,0.013953208923339844,-0.012461990118026733,0.0003934502601623535
1771082204597286100,9.8792861328125,-0.000396728515625,-0.01493525505065918,-0.0044411420822143555
1771082204607227000,9.889226806640625,-0.007443428039550781,-0.014917165040969849,0.005027353763580322
1771082204617167600,9.899167724609375,0.004467010498046875,-0.01725366711616516,-0.009103238582611084
1771082204627108600,9.909108642578126,0.002048492431640625,-0.017196953296661377,-0.008974194526672363
1771082204637049300,9.91904931640625,-0.00033092498779296875,-0.010078281164169312,-0.0017844438552856445
1771082204646990300,9.928990234375,-0.00031566619873046875,-0.01720404624938965,0.0029311776161193848
1771082204656931000,9.93893115234375,0.013824462890625,-0.005370885133743286,0.0028644204139709473
1771082204666871800,9.948871826171874,-0.0005331039428710938,-0.012473523616790771,0.000338137149810791
1771082204676812800,9.958812744140625,-0.005218505859375,-0.017306655645370483,0.005018413066864014
1771082204686753500,9.96875341796875,-0.0027675628662109375,-0.019603371620178223,-0.0021507740020751953
1771082204696694300,9.9786943359375,0.009063720703125,-0.01960909366607666,0.00021666288375854492
1771082204706635300,9.98863525390625,-0.0004949569702148438,-0.01715877652168274,-0.0045182108879089355
1771082204716576000,9.998575927734375,0.004231452941894531,-0.017103642225265503,-0.00681990385055542
1771082204726517000,10.00851708984375,-0.0028924942016601562,-0.014695167541503906,0.00033396482467651367
1771082204736457700,10.018457763671876,-0.00284576416015625,-0.00526389479637146,0.00010251998901367188
1771082204746398500,10.0283984375,-0.0074920654296875,-0.021887093782424927,0.002534031867980957
1771082204756339500,10.03833935546875,-0.0002841949462890625,-0.01950046420097351,-0.006846427917480469
1771082204766280200,10.0482802734375,0.002079010009765625,-0.014697670936584473,-0.004502296447753906
1771082204776221000,10.058220947265625,-0.007357597351074219,-0.01703783869743347,-0.004348337650299072
1771082204786162000,10.068161865234375,0.013962745666503906,-0.014630407094955444,-0.004298567771911621
1771082204796102700,10.0781025390625,-0.005100250244140625,-0.009903043508529663,0.00036221742630004883
1771082204806043600,10.088043701171875,-0.014423370361328125,-0.014671653509140015,0.00504690408706665
1771082204815984400,10.097984375,0.03055858612060547,-0.01465219259262085,-0.004472255706787109
1771082204825925000,10.107925048828125,-0.005251884460449219,-0.014740437269210815,-0.006774723529815674
1771082204835866000,10.1178662109375,-0.0027952194213867188,-0.014821439981460571,0.0050917863845825195
1771082204845806800,10.127806884765626,0.004328727722167969,-0.014805257320404053,-0.0019770264625549316
1771082204855747600,10.13774755859375,0.0066204071044921875,-0.021846473217010498,0.0003923177719116211
1771082204865688600,10.1476884765625,-0.0005435943603515625,-0.014644533395767212,0.00036787986755371094
1771082204875629300,10.15762939453125,0.008892059326171875,-0.01698562502861023,-0.004369497299194336
1771082204885570300,10.1675703125,0.004044532775878906,-0.01457911729812622,0.002743542194366455
1771082204895511000,10.177510986328125,-0.0007219314575195312,-0.014561235904693604,0.005034208297729492
1771082204905451800,10.18745166015625,0.004019737243652344,-0.01465103030204773,-0.006742238998413086
1771082204915392800,10.197392822265625,0.013383865356445312,-0.017093628644943237,-0.009006857872009277
1771082204925333500,10.20733349609375,-0.0033092498779296875,-0.014679521322250366,0.0028968453407287598
1771082204935274500,10.2172744140625,-0.015005111694335938,-0.014767348766326904,0.007636129856109619
1771082204955156000,10.237156005859376,0.008670806884765625,-0.007815033197402954,-0.0017822980880737305
1771082204975037700,10.25703759765625,-0.0007457733154296875,-0.01253277063369751,0.00040274858474731445
1771082204984978400,10.266978515625,-0.00543212890625,-0.01019468903541565,-0.004330456256866455
1771082204994919400,10.27691943359375,-0.007686614990234375,-0.017420142889022827,0.00503462553024292
1771082205004860200,10.286860107421875,0.0018739700317382812,-0.01971498131752014,-0.002033233642578125
1771082205014801200,10.29680126953125,-0.0028514862060546875,-0.017364501953125,0.00033229589462280273
1771082205024742000,10.306741943359375,0.0019140243530273438,-0.01730594038963318,0.002658367156982422
1771082205034682600,10.3166826171875,0.006600379943847656,-0.02195119857788086,-0.0021123886108398438
1771082205044623600,10.32662353515625,-0.0005636215209960938,-0.012398988008499146,0.0026087164878845215
1771082205054564400,10.336564453125,-0.005242347717285156,-0.012524783611297607,0.007352769374847412
1771082205064505000,10.346505126953126,-0.007510185241699219,-0.019502460956573486,0.002402186393737793
1771082205074446000,10.356446044921874,-0.009730339050292969,-0.017053931951522827,-0.0047234296798706055
1771082205084386800,10.36638671875,0.011630058288574219,-0.021709173917770386,-0.002313077449798584
1771082205094327800,10.376327880859375,0.011445999145507812,-0.014509499073028564,0.00006186962127685547
1771082205104268500,10.3862685546875,0.0018415451049804688,-0.01685282588005066,-0.00241774320602417
1771082205114209300,10.396209228515625,-0.0028839111328125,-0.019258707761764526,-0.007108747959136963
1771082205124150300,10.406150390625,-0.00047779083251953125,-0.016712665557861328,0.000049948692321777344
1771082205134091000,10.416091064453125,-0.0004558563232421875,-0.014412254095077515,0.0023807287216186523
1771082205144031700,10.42603173828125,-0.00042724609375,-0.01214444637298584,-0.004638075828552246
1771082205153972500,10.435972412109376,-0.00511932373046875,-0.016881465911865234,0.00012511014938354492
1771082205163913200,10.445913330078126,-0.0026702880859375,-0.021545350551605225,0.00009554624557495117
1771082205173854000,10.45585400390625,-0.0026111602783203125,-0.016702711582183838,-0.0021765828132629395
1771082205183795000,10.465794921875,-0.0025529861450195312,-0.011940807104110718,-0.004410862922668457
1771082205193735700,10.475735595703124,0.00926971435546875,-0.01432114839553833,0.000353395938873291
1771082205203676400,10.485676513671875,-0.012059211730957031,-0.016769200563430786,0.002679109573364258
1771082205213617200,10.4956171875,0.00228118896484375,-0.014467865228652954,0.0026117563247680664
1771082205223558000,10.505557861328125,0.009310722351074219,-0.0096416175365448,-0.002158224582672119
1771082205233499000,10.515498779296875,-0.014383316040039062,-0.014420360326766968,0.0048163533210754395
1771082205253380400,10.53538037109375,0.0022783279418945312,-0.016734391450881958,0.00004273653030395508
1771082205263321000,10.545321044921875,-0.0024585723876953125,-0.019034892320632935,0.007087051868438721
1771082205273261800,10.55526171875,0.0046539306640625,-0.018948495388031006,-0.0024709105491638184
1771082205283202600,10.56520263671875,-0.0001277923583984375,-0.009338974952697754,0.0022609829902648926
1771082205293143600,10.5751435546875,-0.004813194274902344,-0.014224350452423096,-0.000052034854888916016
1771082205303084300,10.585084228515624,0.004698753356933594,-0.01431971788406372,-0.0024281740188598633
1771082205313025000,10.59502490234375,-0.004787445068359375,-0.014311909675598145,-0.009473264217376709
1771082205322965800,10.6049658203125,0.0023651123046875,-0.016658514738082886,0.00007909536361694336
1771082205332906500,10.614906494140625,0.0070438385009765625,-0.014257431030273438,-0.004653513431549072
1771082205342847200,10.62484716796875,-0.007189750671386719,-0.011896342039108276,-0.0022443532943725586
1771082205352788200,10.634788330078125,-0.011770248413085938,-0.016739100217819214,0.007085978984832764
1771082205362729000,10.64472900390625,0.0119781494140625,-0.016690969467163086,-0.00011771917343139648
1771082205372669700,10.654669677734375,0.00943756103515625,-0.004968017339706421,-0.004842221736907959
1771082205382610400,10.6646103515625,0.004581451416015625,-0.0168817937374115,-0.00007081031799316406
1771082205392551200,10.67455126953125,-0.00960540771484375,-0.012116938829421997,-0.004694461822509766
1771082205402492200,10.6844921875,0.009398460388183594,-0.014494359493255615,-0.004634082317352295
1771082205412433000,10.694432861328124,-0.00016021728515625,-0.014483630657196045,0.002584993839263916
1771082205422373600,10.70437353515625,0.0022068023681640625,-0.016827374696731567,0.00251924991607666
1771082205432314400,10.714314453125,0.0021848678588867188,-0.014423459768295288,-0.006860971450805664
1771082205442255000,10.724255126953125,0.009209632873535156,-0.009603708982467651,-0.0021622776985168457
1771082205452196000,10.734196044921875,0.004361152648925781,-0.019193291664123535,0.002559661865234375
1771082205462136800,10.74413671875,-0.00041103363037109375,-0.014389842748641968,-0.006918072700500488
1771082205472077600,10.75407763671875,0.0019598007202148438,-0.01673513650894165,0.002591729164123535
1771082205482018600,10.7640185546875,-0.005127906799316406,-0.014428585767745972,-0.002279520034790039
1771082205491959300,10.773959228515626,0.0020303726196289062,-0.01206466555595398,0.0024443864822387695
1771082205501900300,10.783900390625,0.009063720703125,-0.01905578374862671,0.00002664327621459961
1771082205511841000,10.793841064453124,-0.00049591064453125,-0.0072991251945495605,0.0022562146186828613
1771082205521781800,10.80378173828125,-0.0004730224609375,-0.016819745302200317,0.004656672477722168
1771082205531722800,10.81372265625,0.008955955505371094,-0.00970160961151123,-0.00495755672454834
1771082205541663500,10.82366357421875,-0.000606536865234375,-0.014473646879196167,0.0067771077156066895
1771082205551604200,10.833604248046875,0.008830070495605469,-0.019171923398971558,-0.002775728702545166
1771082205561545200,10.843545166015625,0.0016298294067382812,-0.01907750964164734,-0.00274735689163208
1771082205571486000,10.85348583984375,0.0016117095947265625,-0.011927515268325806,-0.0003699660301208496
1771082205581427000,10.863427001953125,0.0039539337158203125,-0.0166681706905365,-0.002639174461364746
1771082205601308400,10.883308349609376,-0.005501747131347656,-0.016602933406829834,0.002060532569885254
1771082205611249400,10.89324951171875,0.0016679763793945312,-0.011848509311676025,-0.004957735538482666
1771082205621190100,10.903190185546874,0.0016498565673828125,-0.016590505838394165,-0.002543509006500244
1771082205631131000,10.913130859375,-0.005431175231933594,-0.007121950387954712,-0.0001646876335144043
1771082205641071900,10.92307177734375,-0.0006170272827148438,-0.021359920501708984,-0.002437293529510498
1771082205651012600,10.9330126953125,-0.0005922317504882812,-0.011919170618057251,0.0022892355918884277
1771082205660953600,10.94295361328125,0.0064849853515625,-0.016659975051879883,-0.004936039447784424
1771082205670894300,10.952894287109375,-0.005385398864746094,-0.016607433557510376,-0.004871666431427002
1771082205680835000,10.9628349609375,0.004136085510253906,-0.016663074493408203,0.0022497177124023438
1771082205690776000,10.972776123046875,0.0017223358154296875,-0.01661047339439392,-0.00015997886657714844
1771082205700716800,10.982716796875,-0.005366325378417969,-0.011855900287628174,-0.0026358366012573242
1771082205710657500,10.992657470703126,0.0017957687377929688,-0.016597777605056763,-0.002614617347717285
1771082205720598500,11.0025986328125,0.0041294097900390625,-0.01184341311454773,-0.002593696117401123
1771082205730539300,11.012539306640624,-0.005347251892089844,-0.011876881122589111,0.00213545560836792
1771082205750421000,11.0324208984375,-0.00047206878662109375,-0.016684293746948242,-0.004836738109588623
1771082205760361700,11.04236181640625,-0.0051631927490234375,-0.016637057065963745,-0.0024245381355285645
1771082205770302700,11.052302734375,0.009070396423339844,-0.009527713060379028,-0.0022035837173461914
1771082205780243500,11.062243408203125,0.004220008850097656,-0.01901698112487793,-0.0045438408851623535
1771082205790184400,11.072184326171875,0.001804351806640625,-0.011969566345214844,0.0024704933166503906
1771082205800125200,11.082125244140625,-0.0005712509155273438,-0.01670953631401062,-0.002301931381225586
1771082205810066000,11.09206591796875,0.008864402770996094,-0.014307618141174316,0.007130920886993408
1771082205820007000,11.1020068359375,0.0040130615234375,-0.016552716493606567,0.0022807717323303223
1771082205829947600,11.11194775390625,0.0063152313232421875,-0.0166093111038208,-0.0024884939193725586
1771082205839888400,11.121888427734374,-0.0032033920288085938,-0.01891767978668213,0.002137303352355957
1771082205849829400,11.131829345703125,0.0015735626220703125,-0.014124631881713867,-0.00017368793487548828
1771082205859770000,11.14177001953125,-0.00079345703125,-0.011867403984069824,0.004515111446380615
1771082205869711000,11.151711181640625,0.0062923431396484375,-0.01189473271369934,-0.0002866387367248535
1771082205879651800,11.16165185546875,-0.007924079895019531,-0.014383256435394287,0.002049744129180908
1771082205889592600,11.171592529296875,-0.007782936096191406,-0.019083023071289062,0.0019928812980651855
1771082205899533600,11.181533447265625,-0.0005817413330078125,-0.014287233352661133,-0.005125880241394043
1771082205909474300,11.191474365234376,-0.0005578994750976562,-0.009672969579696655,-0.007417440414428711
1771082205919415000,11.2014150390625,-0.00995635986328125,-0.0097426176071167,-0.0002536177635192871
1771082205929356000,11.21135595703125,0.004344940185546875,-0.012165367603302002,-0.009689271450042725
1771082205939296800,11.221296875,-0.0027751922607421875,-0.007484853267669678,-0.00709456205368042
1771082205949237800,11.23123779296875,0.0019893646240234375,-0.014653831720352173,0.00006389617919921875
1771082205959178500,11.241178466796875,0.004324913024902344,-0.00757753849029541,-0.0022125244140625
1771082205969119200,11.251119140625,0.008971214294433594,-0.014744967222213745,0.00015598535537719727
1771082205979060200,11.261060302734375,0.0017728805541992188,-0.014825880527496338,0.002489805221557617
1771082205989001000,11.2710009765625,0.001758575439453125,-0.014809638261795044,0.0001729726791381836
1771082205998942000,11.28094189453125,-0.0053253173828125,-0.007838159799575806,0.00004100799560546875
1771082206008882700,11.290882568359375,0.008904457092285156,-0.005584061145782471,0.00011926889419555664
1771082206018823400,11.300823486328126,0.006411552429199219,-0.022201955318450928,0.00009459257125854492
1771082206028764400,11.310764404296876,-0.010171890258789062,-0.012645572423934937,0.0046773552894592285
1771082206038705200,11.320705078125,0.0017795562744140625,-0.014918386936187744,-0.004738807678222656
1771082206048646000,11.33064599609375,-0.0029535293579101562,-0.01244470477104187,-0.002328217029571533
1771082206058587000,11.3405869140625,-0.0005407333374023438,-0.014822453260421753,0.002396523952484131
1771082206068527600,11.350527587890625,0.004192352294921875,-0.014806240797042847,-0.011690258979797363
1771082206078468600,11.360468505859375,-0.0005769729614257812,-0.007727444171905518,-0.004455208778381348
1771082206088409300,11.370409423828125,0.001796722412109375,-0.012538105249404907,0.00030493736267089844
1771082206098350000,11.38035009765625,-0.0029277801513671875,-0.017370164394378662,0.0049857497215271
1771082206108291000,11.390291015625,-0.0005102157592773438,-0.012602895498275757,-0.004435598850250244
1771082206118231800,11.400231689453125,-0.0028505325317382812,-0.01487642526626587,0.009741425514221191
1771082206128172500,11.410172607421876,-0.014566421508789062,-0.007898032665252686,0.000037610530853271484
1771082206138113500,11.420113525390626,0.0021562576293945312,-0.01966714859008789,0.00697559118270874
1771082206148054300,11.43005419921875,0.009192466735839844,-0.01721012592315674,-0.0025757551193237305
1771082206157995300,11.439995361328124,-0.0003681182861328125,-0.014799833297729492,-0.004909813404083252
1771082206167936000,11.44993603515625,-0.012124061584472656,-0.02420121431350708,-0.00249636173248291
1771082206177876700,11.459876708984375,0.009275436401367188,-0.016965776681900024,-0.00483173131942749
1771082206187817700,11.469817626953125,-0.002651214599609375,-0.01445797085762024,-0.00016689300537109375
1771082206197758500,11.479758544921875,0.0044708251953125,-0.014447838068008423,-0.0000851750373840332
1771082206207699200,11.48969921875,-0.009725570678710938,-0.016786426305770874,0.0045053958892822266
1771082206217640200,11.49964013671875,-0.00955963134765625,-0.014377444982528687,-0.00039774179458618164
1771082206227581000,11.509580810546876,0.011797904968261719,-0.016722947359085083,0.0019404888153076172
1771082206237522000,11.51952197265625,-0.00016117095947265625,-0.019023656845092773,-0.0028183460235595703
1771082206247462700,11.529462646484374,0.0022058486938476562,-0.01422882080078125,-0.005148351192474365
1771082206257403400,11.5394033203125,0.013960838317871094,-0.01903274655342102,-0.00027501583099365234
1771082206267344100,11.54934423828125,-0.005097389221191406,-0.01197931170463562,-0.007452785968780518
1771082206277285000,11.55928515625,-0.0026483535766601562,-0.009656190872192383,-0.002642691135406494
1771082206287225900,11.569225830078125,0.011536598205566406,-0.01443469524383545,-0.004873991012573242
1771082206297166600,11.57916650390625,0.004284858703613281,-0.014419227838516235,0.0021506547927856445
1771082206307107300,11.589107421875,-0.00048542022705078125,-0.021472662687301636,-0.0073250532150268555
1771082206317048000,11.599048095703125,0.004240989685058594,-0.00957411527633667,-0.007225632667541504
1771082206326988800,11.60898876953125,0.004179954528808594,-0.014359742403030396,-0.0024241209030151367
1771082206336929800,11.6189296875,-0.0005941390991210938,-0.01669982075691223,0.0022054314613342285
1771082206346870500,11.62887060546875,0.008847236633300781,-0.01439964771270752,-0.00020831823348999023
1771082206356811300,11.638811279296876,0.00400543212890625,-0.01920074224472046,-0.0025818347930908203
1771082206366752000,11.648751953125,-0.005457878112792969,-0.009795993566513062,0.004603028297424316
1771082206386633500,11.668633544921875,0.004001617431640625,-0.014672160148620605,-0.009674072265625
1771082206406515200,11.68851513671875,-0.0029773712158203125,-0.016897737979888916,-0.00003737211227416992
1771082206416456000,11.6984560546875,-0.0005588531494140625,-0.016841202974319458,-0.002307295799255371
1771082206426396700,11.708396728515625,0.011231422424316406,-0.01208275556564331,-0.007000088691711426
1771082206436337400,11.71833740234375,0.008704185485839844,-0.014460772275924683,0.000263214111328125
1771082206446278400,11.7282783203125,-0.005551338195800781,-0.012090563774108887,-0.004365980625152588
1771082206456219100,11.73821923828125,-0.0007295608520507812,-0.019284456968307495,0.0028486251831054688
1771082206466159900,11.748159912109376,0.008713722229003906,-0.014581114053726196,-0.00898820161819458
1771082206476100600,11.7581005859375,0.0015153884887695312,-0.01221466064453125,0.0029103755950927734
1771082206486041300,11.768041259765624,-0.01497650146484375,-0.01940646767616272,-0.0018693804740905762
1771082206495982000,11.777982177734375,-0.005295753479003906,-0.014706850051879883,-0.0018609166145324707
1771082206505923000,11.787923095703125,0.00421905517578125,-0.014692574739456177,-0.001852571964263916
1771082206515863800,11.79786376953125,0.0018100738525390625,-0.009969949722290039,0.002965867519378662
1771082206525804500,11.807804443359375,-0.0005712509155273438,-0.01945185661315918,-0.004270732402801514
1771082206535745300,11.817745361328125,-0.005261421203613281,-0.01935848593711853,-0.004222214221954346
1771082206545686000,11.82768603515625,0.013681411743164062,-0.009951084852218628,0.0029900074005126953
1771082206565567700,11.847567626953126,-0.012531280517578125,-0.0218123197555542,0.0004918575286865234
1771082206575508500,11.857508544921876,-0.009954452514648438,-0.014712542295455933,-0.00659710168838501
1771082206595390000,11.877389892578124,0.0018453598022460938,-0.012396782636642456,-0.004277825355529785
1771082206615271700,11.897271728515625,-0.0028228759765625,-0.01002204418182373,-0.0018960833549499512
1771082206635153200,11.917153076171875,-0.005110740661621094,-0.014700233936309814,-0.002017498016357422
1771082206645094100,11.92709423828125,0.0067615509033203125,-0.017040371894836426,-0.004259228706359863
1771082206655035000,11.937034912109375,0.00196075439453125,-0.014734506607055664,-0.0041092634201049805
1771082206664975600,11.9469755859375,-0.007479667663574219,-0.012365490198135376,0.0006451606750488281
1771082206674916600,11.95691650390625,-0.009695053100585938,-0.014738768339157104,0.010135352611541748
1771082206684857300,11.966857421875,0.0022525787353515625,-0.01717984676361084,-0.008890628814697266
1771082206694798300,11.97679833984375,-0.0071926116943359375,-0.021832972764968872,-0.006410837173461914
1771082206714679800,11.9966796875,0.0024137496948242188,-0.014758974313735962,0.0008469223976135254
1771082206734561500,12.0165615234375,-0.002155303955078125,-0.01239040493965149,-0.006244957447052002
1771082206744502300,12.026502197265625,0.004952430725097656,-0.01476326584815979,-0.003804445266723633
1771082206754443300,12.036443359375,0.007239341735839844,-0.01709657907485962,-0.0036572813987731934
1771082206774325000,12.056324951171876,-0.004635810852050781,-0.021770715713500977,-0.001261591911315918
1771082206784265700,12.066265625,0.007228851318359375,-0.019278645515441895,-0.0035111308097839355
1771082206804147500,12.0861474609375,-0.009314537048339844,-0.007288455963134766,0.0012685060501098633
1771082206814088200,12.096088134765624,0.0026273727416992188,-0.019163548946380615,0.0013310909271240234
1771082206824029200,12.106029296875,0.0002384185791015625,-0.012012094259262085,0.0012862086296081543
1771082206843910700,12.12591064453125,-0.0020809173583984375,-0.012004822492599487,-0.0012738704681396484
1771082206863792400,12.14579248046875,0.00742340087890625,-0.007278740406036377,-0.008300423622131348
1771082206873733000,12.155733154296875,-0.0021085739135742188,-0.019154012203216553,-0.00347137451171875
1771082206893614800,12.17561474609375,0.012032508850097656,-0.009671777486801147,-0.003334522247314453
1771082206903555800,12.185555908203124,0.00006961822509765625,-0.021512925624847412,0.0014069676399230957
1771082206923437300,12.205437255859374,0.004727363586425781,-0.014353692531585693,-0.0007979869842529297
1771082206933378300,12.21537841796875,-0.0000457763671875,-0.016795426607131958,-0.0008025765419006348
1771082206943319000,12.225319091796875,0.007033348083496094,-0.01674056053161621,0.004003167152404785
1771082206953259800,12.235259765625,0.009284019470214844,-0.005016744136810303,-0.0054985880851745605
1771082206963200800,12.24520068359375,-0.000278472900390625,-0.012226849794387817,0.003987550735473633
1771082206973141500,12.2551416015625,0.009158134460449219,-0.016962498426437378,0.0016457438468933105
1771082206983082500,12.26508251953125,0.011369705200195312,-0.02161926031112671,0.00630420446395874
1771082206993023200,12.275023193359376,0.004131317138671875,-0.012174159288406372,-0.005595028400421143
1771082207002964000,12.2849638671875,0.0017232894897460938,-0.009847819805145264,0.0016400814056396484
1771082207012905000,12.294905029296874,0.004052162170410156,-0.016971677541732788,-0.003215312957763672
1771082207022845700,12.304845703125,-0.0030679702758789062,-0.00985679030418396,-0.0008301138877868652
1771082207032786700,12.31478662109375,0.0017070770263671875,-0.014631986618041992,0.003971278667449951
1771082207042727400,12.3247275390625,0.0016880035400390625,-0.005201816558837891,0.0015280842781066895
1771082207052668200,12.334668212890625,-0.0006809234619140625,-0.01486477255821228,-0.012645840644836426
1771082207072550000,12.3545498046875,-0.005261421203613281,-0.014942824840545654,0.0017055273056030273
1771082207082490600,12.36449072265625,0.004258155822753906,-0.01021602749824524,-0.0029525160789489746
1771082207092431600,12.374431640625,-0.0028657913208007812,-0.014979422092437744,-0.002921164035797119
1771082207102372400,12.384372314453126,-0.0028085708618164062,-0.007897704839706421,0.0018134117126464844
1771082207112313300,12.394313232421876,0.0043048858642578125,-0.02212849259376526,0.0040084123611450195
1771082207122254000,12.404254150390624,-0.00046634674072265625,-0.007864713668823242,0.001564621925354004
1771082207132194800,12.41419482421875,-0.0027980804443359375,-0.017483264207839966,-0.0008384585380554199
1771082207142135800,12.4241357421875,0.006674766540527344,-0.019777029752731323,0.00857001543045044
1771082207152076500,12.43407666015625,0.006572723388671875,-0.005552440881729126,-0.008075594902038574
1771082207171958300,12.453958251953125,-0.010107040405273438,-0.017698168754577637,-0.0009707808494567871
1771082207181899000,12.46389892578125,-0.0052204132080078125,-0.012925475835800171,0.0013769865036010742
1771082207191840000,12.473840087890625,-0.000415802001953125,-0.008232295513153076,-0.003377258777618408
1771082207201780700,12.48378076171875,0.0019550323486328125,-0.020097434520721436,-0.003343641757965088
1771082207211721500,12.493721435546876,-0.0027828216552734375,-0.015284687280654907,0.0036507248878479004
1771082207221662500,12.503662353515624,0.0043354034423828125,-0.01760929822921753,0.0012177228927612305
1771082207231603200,12.513603271484374,-0.00278472900390625,-0.017648249864578247,0.0011747479438781738
1771082207241544200,12.523544189453125,-0.0027246475219726562,-0.02004086971282959,0.00819540023803711
1771082207251485000,12.53348486328125,-0.005019187927246094,-0.019931912422180176,-0.0036289095878601074
1771082207261425700,12.54342578125,0.009204864501953125,-0.017470449209213257,0.001223921775817871
1771082207271366700,12.55336669921875,-0.009768486022949219,-0.01986604928970337,0.003535151481628418
1771082207281307400,12.563307373046875,-0.0025281906127929688,-0.01751306653022766,-0.001255035400390625
1771082207291248000,12.573248046875,0.0022220611572265625,-0.014996111392974854,0.003350198268890381
1771082207301188900,12.58318896484375,-0.00015544891357421875,-0.022135764360427856,0.0032764673233032227
1771082207311129600,12.593129638671876,-0.0001430511474609375,-0.017289042472839355,0.0008448958396911621
1771082207321070600,12.603070556640626,-0.0024805068969726562,-0.014979034662246704,-0.006254732608795166
1771082207331011300,12.61301123046875,-0.00007152557373046875,-0.01741611957550049,0.0008897185325622559
1771082207340952000,12.6229521484375,0.014064788818359375,-0.01264810562133789,0.0008522272109985352
1771082207350892800,12.632892822265624,-0.007348060607910156,-0.015016674995422363,0.000820159912109375
1771082207360833500,12.64283349609375,0.0022058486938476562,-0.01509883999824524,0.0007838010787963867
1771082207380715300,12.66271533203125,-0.0050640106201171875,-0.022294819355010986,-0.0015597343444824219
1771082207390656000,12.672656005859375,0.0020885467529296875,-0.017343848943710327,-0.001556396484375
1771082207400596700,12.6825966796875,0.00206756591796875,-0.010324329137802124,-0.0015531182289123535
1771082207410537500,12.692537353515625,0.0020427703857421875,-0.015091687440872192,0.007867276668548584
1771082207420478200,12.702478271484376,-0.009754180908203125,-0.0174252986907959,0.003004908561706543
1771082207430419000,12.7124189453125,-0.00016021728515625,-0.015113025903701782,-0.0017764568328857422
1771082207440360000,12.72235986328125,-0.00014781951904296875,-0.005674809217453003,-0.004123806953430176
1771082207450300700,12.73230078125,0.004572868347167969,-0.01286819577217102,-0.0017186403274536133
1771082207460241400,12.742241455078124,-0.009619712829589844,-0.012884557247161865,-0.006421267986297607
1771082207470182100,12.75218212890625,0.004687309265136719,-0.02006518840789795,-0.0015267133712768555
1771082207480123000,12.762122802734375,-0.0024385452270507812,-0.010538607835769653,0.0009368062019348145
1771082207490064000,12.77206396484375,-0.004738807678222656,-0.013049691915512085,0.0032528042793273926
1771082207500004600,12.782004638671875,0.0047664642333984375,-0.010708749294281006,0.0031759142875671387
1771082207509945300,12.7919453125,-0.0023660659790039062,-0.013115406036376953,-0.0063169002532958984
1771082207519886000,12.801885986328125,-0.004672050476074219,-0.015481948852539062,-0.0015257000923156738
1771082207529826800,12.811826904296876,0.004843711853027344,-0.02026498317718506,-0.0037755966186523438
1771082207539767600,12.821767578125,0.00006389617919921875,-0.020158082246780396,-0.010798215866088867
1771082207549708500,12.83170849609375,-0.00699615478515625,-0.01533856987953186,0.0033881068229675293
1771082207559649300,12.841649169921874,0.009609222412109375,-0.012959480285644531,-0.003753960132598877
1771082207569590000,12.851590087890624,-0.0023126602172851562,-0.012974321842193604,0.0009945034980773926
1771082207579530800,12.86153076171875,0.00008487701416015625,-0.022298753261566162,-0.0013942718505859375
1771082207589471500,12.871471435546875,0.004807472229003906,-0.01744931936264038,-0.003646373748779297
1771082207599412200,12.881412109375,-0.009394645690917969,-0.015035033226013184,0.0009987354278564453
1771082207609353200,12.891353271484375,0.0025434494018554688,-0.015009522438049316,0.005672812461853027
1771082207619294000,12.9012939453125,0.009568214416503906,-0.01253432035446167,-0.0015072822570800781
1771082207629234700,12.911234619140625,-0.009416580200195312,-0.017259061336517334,0.0032085776329040527
1771082207639175400,12.921175537109375,0.009594917297363281,-0.017298072576522827,-0.001469731330871582
1771082207649116200,12.9311162109375,-0.0023221969604492188,-0.022050827741622925,-0.0014679431915283203
1771082207659057200,12.94105712890625,0.00007534027099609375,-0.01710394024848938,0.005596756935119629
1771082207668998000,12.950997802734374,0.011855125427246094,-0.01704394817352295,-0.003931581974029541
1771082207678938600,12.960938720703124,-0.0071735382080078125,-0.024053633213043213,-0.003990292549133301
1771082207688879400,12.97087939453125,0.00237274169921875,-0.016820669174194336,-0.003946483135223389
1771082207698820400,12.9808203125,0.00470733642578125,-0.016866981983184814,-0.0037969350814819336
1771082207708761000,12.990760986328125,-0.0024242401123046875,-0.016816705465316772,-0.0061106085777282715
1771082207718701800,13.000701904296875,0.009396553039550781,-0.01441296935081482,0.0010314583778381348
1771082207728642800,13.010642822265625,-0.004871368408203125,-0.01215091347694397,-0.008425593376159668
1771082207738583600,13.02058349609375,0.004631996154785156,-0.014431923627853394,0.0011093616485595703
1771082207748524500,13.030524658203126,-0.000148773193359375,-0.007257729768753052,-0.0012860894203186035
