time,seconds_elapsed,z,y,x
1771082194884772400,0.1667724609375,-0.0017310534603893757,-0.0023968431632965803,0.001331579522229731
1771082194894618000,0.1766181640625,-0.0006657897611148655,0.0018642114009708166,0.0023968431632965803
1771082194904483600,0.186483642578125,-0.0006657897611148655,0.0007989477599039674,0.001331579522229731
1771082194914371000,0.19637109375,-0.0017310534603893757,-0.0023968431632965803,0.001331579522229731
1771082194924282000,0.2062822265625,-0.0017310534603893757,-0.0002663159102667123,0.001331579522229731
1771082194934216400,0.216216552734375,-0.0006657897611148655,0.0018642114009708166,0.0023968431632965803
1771082194944173800,0.226173828125,-0.0006657897611148655,0.0007989477599039674,0.0023968431632965803
1771082194954152700,0.236152587890625,-0.0006657897611148655,-0.001331579522229731,0.0023968431632965803
1771082194964150300,0.246150390625,-0.0017310534603893757,0.002929474925622344,0.001331579522229731
1771082194974163700,0.256163818359375,-0.0006657897611148655,0.0018642114009708166,0.001331579522229731
1771082194984189700,0.266189697265625,-0.0006657897611148655,-0.001331579522229731,0.0023968431632965803
1771082194994224400,0.276224365234375,-0.0006657897611148655,0.0018642114009708166,0.001331579522229731
1771082195004263200,0.28626318359375,-0.0006657897611148655,0.0007989477599039674,0.001331579522229731
1771082195014302200,0.29630224609375,-0.0017310534603893757,-0.001331579522229731,0.0023968431632965803
1771082195024251100,0.306251220703125,-0.0017310534603893757,0.003994738683104515,0.001331579522229731
1771082195034192100,0.316192138671875,-0.0006657897611148655,-0.0002663159102667123,0.0023968431632965803
1771082195044132900,0.3261328125,-0.0017310534603893757,-0.001331579522229731,0.0023968431632965803
1771082195054073600,0.336073486328125,-0.0006657897611148655,0.0050600022077560425,0.0023968431632965803
1771082195064014600,0.3460146484375,-0.0006657897611148655,0.0018642114009708166,0.0002663159102667123
1771082195073955300,0.355955322265625,-0.0006657897611148655,-0.0023968431632965803,0.0023968431632965803
1771082195083896300,0.365896240234375,-0.0006657897611148655,0.003994738683104515,0.001331579522229731
1771082195093837000,0.375837158203125,-0.0006657897611148655,0.0018642114009708166,0.001331579522229731
1771082195103777800,0.38577783203125,-0.0006657897611148655,-0.0002663159102667123,0.0023968431632965803
1771082195113718800,0.39571875,-0.0006657897611148655,0.002929474925622344,0.0023968431632965803
1771082195123659500,0.405659423828125,-0.0006657897611148655,0.0007989477599039674,0.0023968431632965803
1771082195133600500,0.4156005859375,-0.0006657897611148655,-0.001331579522229731,0.0023968431632965803
1771082195143541200,0.425541259765625,-0.0006657897611148655,0.003994738683104515,0.001331579522229731
1771082195153482000,0.43548193359375,-0.0006657897611148655,0.0018642114009708166,0.001331579522229731
1771082195163423000,0.445423095703125,-0.0017310534603893757,-0.001331579522229731,0.0023968431632965803
1771082195173363700,0.45536376953125,-0.0006657897611148655,0.002929474925622344,0.001331579522229731
1771082195183304400,0.465304443359375,-0.0017310534603893757,0.002929474925622344,0.001331579522229731
1771082195193245400,0.475245361328125,-0.0017310534603893757,-0.0002663159102667123,0.001331579522229731
1771082195203186200,0.485186279296875,-0.0017310534603893757,0.003994738683104515,0.0002663159102667123
1771082195213127200,0.495127197265625,-0.0006657897611148655,-0.0002663159102667123,0.001331579522229731
1771082195223068000,0.50506787109375,-0.0006657897611148655,-0.0002663159102667123,0.0023968431632965803
1771082195233008600,0.515008544921875,-0.0017310534603893757,0.003994738683104515,0.0023968431632965803
1771082195252890400,0.534890380859375,-0.0006657897611148655,0.0007989477599039674,0.0023968431632965803
1771082195262831000,0.5448310546875,-0.0006657897611148655,0.002929474925622344,0.001331579522229731
1771082195272772000,0.554772216796875,-0.0006657897611148655,-0.0002663159102667123,0.0034621069207787514
1771082195292653800,0.57465380859375,-0.0006657897611148655,0.0018642114009708166,0.001331579522229731
1771082195302594600,0.584594482421875,-0.0006657897611148655,-0.001331579522229731,0.0023968431632965803
1771082195312535300,0.594535400390625,-0.0017310534603893757,-0.0002663159102667123,0.001331579522229731
1771082195322476300,0.604476318359375,-0.0006657897611148655,0.002929474925622344,0.001331579522229731
1771082195332417300,0.614417236328125,-0.0006657897611148655,-0.0034621069207787514,0.0023968431632965803
1771082195352299000,0.634299072265625,-0.0017310534603893757,0.0018642114009708166,0.0023968431632965803
1771082195362239700,0.64423974609375,-0.0017310534603893757,-0.001331579522229731,0.0034621069207787514
1771082195372180700,0.6541806640625,-0.0006657897611148655,0.002929474925622344,0.0023968431632965803
1771082195382121500,0.66412158203125,-0.0006657897611148655,0.0007989477599039674,0.0023968431632965803
1771082195392062500,0.6740625,-0.0006657897611148655,0.0007989477599039674,0.0023968431632965803
1771082195402003500,0.68400341796875,-0.0006657897611148655,0.002929474925622344,0.0023968431632965803
1771082195411944200,0.693944091796875,-0.0006657897611148655,0.0007989477599039674,0.0023968431632965803
1771082195421885200,0.70388525390625,-0.0006657897611148655,0.0018642114009708166,0.0023968431632965803
1771082195431826000,0.713825927734375,-0.0006657897611148655,0.003994738683104515,0.001331579522229731
1771082195441767000,0.723766845703125,-0.0006657897611148655,-0.0002663159102667123,0.0023968431632965803
1771082195451708000,0.7337080078125,-0.0006657897611148655,0.0018642114009708166,0.0023968431632965803
1771082195461648600,0.743648681640625,0.0003994738799519837,0.00612526573240757,0.0002663159102667123
1771082195471589600,0.753589599609375,0.0003994738799519837,0.0018642114009708166,0.001331579522229731
1771082195481530400,0.7635302734375,0.0003994738799519837,0.0050600022077560425,0.0002663159102667123
1771082195491471400,0.773471435546875,0.0003994738799519837,0.00612526573240757,-0.0007989477599039674
1771082195501412000,0.783412109375,0.0003994738799519837,0.003994738683104515,0.0002663159102667123
1771082195511353000,0.79335302734375,-0.0006657897611148655,0.007190529722720385,-0.0007989477599039674
1771082195521294000,0.803294189453125,0.0003994738799519837,0.007190529722720385,-0.0007989477599039674
1771082195531234800,0.81323486328125,0.0003994738799519837,0.007190529722720385,-0.0007989477599039674
1771082195541175800,0.82317578125,-0.0006657897611148655,0.009321057237684727,-0.0018642114009708166
1771082195551116500,0.833116455078125,-0.0006657897611148655,0.009321057237684727,-0.003994738683104515
1771082195561057500,0.8430576171875,-0.0006657897611148655,0.008255792781710625,-0.0007989477599039674
1771082195570998500,0.85299853515625,-0.002796316985040903,0.010386320762336254,-0.002929474925622344
1771082195580939300,0.862939208984375,-0.002796316985040903,0.003994738683104515,-0.0018642114009708166
1771082195590880300,0.87288037109375,-0.002796316985040903,0.002929474925622344,-0.0018642114009708166
1771082195600821000,0.882821044921875,-0.0006657897611148655,0.009321057237684727,-0.0018642114009708166
1771082195610762000,0.892761962890625,0.0035952648613601923,0.007190529722720385,-0.0018642114009708166
1771082195620702700,0.90270263671875,0.0003994738799519837,0.018908429890871048,-0.002929474925622344
1771082195630643700,0.912643798828125,0.001464737462811172,0.003994738683104515,-0.003994738683104515
1771082195640584700,0.922584716796875,0.001464737462811172,0.008255792781710625,-0.0018642114009708166
1771082195650525400,0.932525390625,0.0025300011038780212,-0.0002663159102667123,-0.0018642114009708166
1771082195660466400,0.942466552734375,0.001464737462811172,0.002929474925622344,0.0002663159102667123
1771082195670407200,0.9524072265625,0.0003994738799519837,0.0007989477599039674,0.0023968431632965803
1771082195680348200,0.96234814453125,-0.0006657897611148655,0.00612526573240757,0.0002663159102667123
1771082195690289200,0.9722890625,-0.0017310534603893757,0.0018642114009708166,0.001331579522229731
1771082195700230000,0.98222998046875,-0.0006657897611148655,-0.0034621069207787514,0.0023968431632965803
1771082195710171000,0.9921708984375,-0.0017310534603893757,0.003994738683104515,0.001331579522229731
1771082195720111600,1.002111572265625,-0.0006657897611148655,0.0018642114009708166,0.0023968431632965803
1771082195730052600,1.012052490234375,-0.0006657897611148655,0.0007989477599039674,0.001331579522229731
1771082195739993300,1.021993408203125,-0.0006657897611148655,0.0018642114009708166,0.0002663159102667123
1771082195749934300,1.031934326171875,-0.0006657897611148655,-0.001331579522229731,0.0023968431632965803
1771082195759875300,1.041875244140625,-0.0006657897611148655,0.002929474925622344,0.001331579522229731
1771082195769816000,1.051816162109375,-0.0017310534603893757,0.0007989477599039674,0.001331579522229731
1771082195779757000,1.061757080078125,-0.0006657897611148655,-0.0023968431632965803,0.0034621069207787514
1771082195789697800,1.07169775390625,-0.0006657897611148655,0.002929474925622344,0.0002663159102667123
1771082195799638800,1.081638671875,-0.0006657897611148655,-0.0002663159102667123,0.0023968431632965803
1771082195809579800,1.091579833984375,-0.0006657897611148655,-0.001331579522229731,0.0034621069207787514
1771082195819520500,1.1015205078125,-0.0006657897611148655,0.003994738683104515,0.001331579522229731
1771082195829461500,1.11146142578125,-0.0006657897611148655,-0.001331579522229731,0.0034621069207787514
1771082195839402200,1.12140234375,-0.0006657897611148655,-0.0002663159102667123,0.0023968431632965803
1771082195849343200,1.13134326171875,-0.0017310534603893757,0.002929474925622344,0.0023968431632965803
1771082195859284000,1.141283935546875,-0.0006657897611148655,-0.0034621069207787514,0.0034621069207787514
1771082195869225000,1.151224853515625,-0.0006657897611148655,0.0018642114009708166,0.0002663159102667123
1771082195879166000,1.161166015625,-0.0006657897611148655,0.002929474925622344,0.0023968431632965803
1771082195889106700,1.171106689453125,-0.0006657897611148655,-0.0023968431632965803,0.0023968431632965803
1771082195899047700,1.181047607421875,-0.0017310534603893757,0.002929474925622344,0.001331579522229731
1771082195908988400,1.190988525390625,-0.0017310534603893757,-0.0023968431632965803,0.0034621069207787514
1771082195918929400,1.200929443359375,-0.0006657897611148655,-0.001331579522229731,0.0034621069207787514
1771082195928870400,1.210870361328125,-0.0006657897611148655,0.0050600022077560425,0.001331579522229731
1771082195938811100,1.22081103515625,-0.0017310534603893757,-0.0023968431632965803,0.004527370445430279
1771082195948752100,1.230752197265625,-0.0006657897611148655,-0.0002663159102667123,0.001331579522229731
1771082195958692900,1.24069287109375,-0.0006657897611148655,0.0018642114009708166,0.0023968431632965803
1771082195968633900,1.2506337890625,-0.0006657897611148655,-0.0034621069207787514,0.0023968431632965803
1771082195978574600,1.26057470703125,-0.0006657897611148655,0.002929474925622344,0.001331579522229731
1771082195988515600,1.270515625,-0.0017310534603893757,0.0018642114009708166,0.0023968431632965803
1771082195998456600,1.28045654296875,-0.0006657897611148655,-0.0034621069207787514,0.0034621069207787514
1771082196008397300,1.290397216796875,-0.0006657897611148655,0.002929474925622344,0.001331579522229731
1771082196018338300,1.30033837890625,-0.0006657897611148655,-0.0002663159102667123,0.0023968431632965803
1771082196028279000,1.310279052734375,-0.0006657897611148655,-0.0023968431632965803,0.0023968431632965803
1771082196038220000,1.320219970703125,-0.0006657897611148655,0.002929474925622344,0.001331579522229731
1771082196048161000,1.3301611328125,-0.0006657897611148655,-0.0023968431632965803,0.0034621069207787514
1771082196058101800,1.340101806640625,-0.0006657897611148655,0.0018642114009708166,0.001331579522229731
1771082196068042800,1.350042724609375,-0.0006657897611148655,0.0007989477599039674,0.001331579522229731
1771082196077983500,1.3599833984375,-0.0006657897611148655,-0.0023968431632965803,0.0023968431632965803
1771082196087924500,1.369924560546875,-0.0006657897611148655,0.003994738683104515,0.001331579522229731
1771082196097865200,1.379865234375,-0.0006657897611148655,-0.0023968431632965803,0.0034621069207787514
1771082196107806200,1.38980615234375,-0.0006657897611148655,-0.001331579522229731,0.0034621069207787514
1771082196117747200,1.399747314453125,-0.0006657897611148655,0.0050600022077560425,0.0002663159102667123
1771082196127688000,1.40968798828125,-0.0006657897611148655,-0.0034621069207787514,0.0023968431632965803
1771082196137629000,1.41962890625,-0.0006657897611148655,0.0007989477599039674,0.0023968431632965803
1771082196147569700,1.429569580078125,-0.0006657897611148655,0.002929474925622344,0.0023968431632965803
1771082196157510700,1.4395107421875,-0.0006657897611148655,-0.0023968431632965803,0.0023968431632965803
1771082196167451600,1.44945166015625,-0.0006657897611148655,0.0007989477599039674,0.001331579522229731
1771082196177392400,1.459392333984375,-0.0006657897611148655,0.0018642114009708166,0.0023968431632965803
1771082196187333400,1.46933349609375,-0.0006657897611148655,-0.001331579522229731,0.0023968431632965803
1771082196197274000,1.479274169921875,-0.0006657897611148655,-0.0002663159102667123,0.0023968431632965803
1771082196207215000,1.489215087890625,0.0003994738799519837,-0.0002663159102667123,0.0023968431632965803
1771082196217155800,1.49915576171875,-0.0006657897611148655,0.0007989477599039674,0.001331579522229731
1771082196227096800,1.509096923828125,-0.0017310534603893757,-0.0002663159102667123,0.0023968431632965803
1771082196237037800,1.519037841796875,-0.0006657897611148655,-0.0023968431632965803,0.0023968431632965803
1771082196246978600,1.528978515625,-0.0006657897611148655,0.002929474925622344,0.001331579522229731
1771082196256919600,1.53891943359375,-0.0006657897611148655,-0.0023968431632965803,0.0023968431632965803
1771082196266860300,1.5488603515625,-0.0006657897611148655,-0.0023968431632965803,0.0034621069207787514
1771082196276801300,1.55880126953125,-0.0017310534603893757,0.003994738683104515,0.0023968431632965803
1771082196286742300,1.5687421875,-0.0006657897611148655,-0.0034621069207787514,0.0034621069207787514
1771082196296683000,1.57868310546875,-0.0017310534603893757,-0.0023968431632965803,0.0034621069207787514
1771082196306624000,1.5886240234375,-0.0006657897611148655,0.002929474925622344,0.0023968431632965803
1771082196316564700,1.598564697265625,-0.0006657897611148655,-0.001331579522229731,0.0034621069207787514
1771082196326505700,1.608505615234375,-0.0006657897611148655,-0.0002663159102667123,0.0023968431632965803
1771082196336446500,1.618446533203125,-0.0006657897611148655,0.0007989477599039674,0.0023968431632965803
1771082196356328400,1.638328369140625,-0.0006657897611148655,0.0007989477599039674,0.0002663159102667123
1771082196366269200,1.648269287109375,-0.0017310534603893757,-0.001331579522229731,0.0034621069207787514
1771082196376210200,1.658210205078125,-0.0006657897611148655,0.0007989477599039674,0.001331579522229731
1771082196386151000,1.66815087890625,-0.0017310534603893757,0.0007989477599039674,0.0023968431632965803
1771082196396092000,1.678091796875,-0.0017310534603893757,-0.0023968431632965803,0.0034621069207787514
1771082196406033000,1.688032958984375,-0.0006657897611148655,0.0018642114009708166,0.001331579522229731
1771082196415973600,1.6979736328125,-0.0017310534603893757,0.0007989477599039674,0.0023968431632965803
1771082196425914600,1.70791455078125,-0.0006657897611148655,-0.0034621069207787514,0.0034621069207787514
1771082196435855400,1.71785546875,-0.0006657897611148655,0.002929474925622344,0.001331579522229731
1771082196445796400,1.72779638671875,-0.0006657897611148655,-0.001331579522229731,0.0034621069207787514
1771082196455737000,1.737737060546875,-0.0006657897611148655,-0.001331579522229731,0.0034621069207787514
1771082196465678000,1.747677978515625,-0.0006657897611148655,0.003994738683104515,0.0023968431632965803
1771082196475618800,1.757618896484375,-0.0006657897611148655,-0.0034621069207787514,0.0034621069207787514
1771082196485559600,1.7675595703125,-0.0006657897611148655,-0.001331579522229731,0.0034621069207787514
1771082196495500500,1.77750048828125,-0.0006657897611148655,0.003994738683104515,0.0023968431632965803
1771082196505441300,1.787441162109375,-0.0006657897611148655,-0.004527370445430279,0.0034621069207787514
1771082196515382300,1.79738232421875,-0.0006657897611148655,0.0018642114009708166,0.0023968431632965803
1771082196525323000,1.807322998046875,-0.0006657897611148655,0.0007989477599039674,0.0023968431632965803
1771082196535263700,1.817263671875,-0.0006657897611148655,-0.004527370445430279,0.0034621069207787514
1771082196545204700,1.827204833984375,-0.0006657897611148655,0.0050600022077560425,0.001331579522229731
1771082196555145500,1.8371455078125,-0.0006657897611148655,-0.001331579522229731,0.0034621069207787514
1771082196565086200,1.847086181640625,-0.0006657897611148655,-0.0023968431632965803,0.0023968431632965803
1771082196575027200,1.857027099609375,-0.0006657897611148655,0.00612526573240757,0.001331579522229731
1771082196584968000,1.866968017578125,-0.0006657897611148655,-0.005592633970081806,0.0023968431632965803
1771082196594909000,1.876908935546875,-0.0006657897611148655,0.0007989477599039674,0.0034621069207787514
1771082196604849700,1.886849609375,-0.0006657897611148655,0.00612526573240757,0.001331579522229731
1771082196614790400,1.896790283203125,-0.0006657897611148655,-0.005592633970081806,0.0023968431632965803
1771082196634672000,1.916672119140625,-0.0006657897611148655,0.002929474925622344,0.001331579522229731
1771082196644613000,1.926613037109375,-0.0017310534603893757,-0.004527370445430279,0.0034621069207787514
1771082196654553900,1.936553955078125,-0.0006657897611148655,0.002929474925622344,0.001331579522229731
1771082196664494600,1.94649462890625,-0.0006657897611148655,-0.0002663159102667123,0.0034621069207787514
1771082196674435600,1.956435546875,-0.0006657897611148655,-0.004527370445430279,0.0034621069207787514
1771082196684376300,1.966376220703125,-0.0006657897611148655,0.0050600022077560425,0.0002663159102667123
1771082196694317000,1.976317138671875,-0.0006657897611148655,-0.0023968431632965803,0.0034621069207787514
1771082196704258000,1.986258056640625,-0.0006657897611148655,-0.0023968431632965803,0.0023968431632965803
1771082196714198800,1.99619873046875,-0.0017310534603893757,0.007190529722720385,0.001331579522229731
1771082196724139800,2.006139892578125,-0.0006657897611148655,-0.004527370445430279,0.004527370445430279
1771082196734080500,2.01608056640625,-0.0006657897611148655,-0.001331579522229731,0.0023968431632965803
1771082196744021200,2.026021240234375,-0.0006657897611148655,0.003994738683104515,0.001331579522229731
1771082196753962200,2.035962158203125,-0.0017310534603893757,-0.005592633970081806,0.005592633970081806
1771082196763903000,2.045903076171875,-0.0006657897611148655,0.002929474925622344,0.0023968431632965803
1771082196773843700,2.05584375,-0.0017310534603893757,0.0018642114009708166,0.0023968431632965803
1771082196783784700,2.06578466796875,-0.0017310534603893757,-0.005592633970081806,0.0034621069207787514
1771082196793725400,2.075725341796875,-0.0017310534603893757,0.0050600022077560425,0.001331579522229731
1771082196803666400,2.08566650390625,-0.0017310534603893757,-0.001331579522229731,0.0034621069207787514
1771082196813607200,2.095607177734375,-0.0006657897611148655,-0.004527370445430279,0.0023968431632965803
1771082196823548200,2.105548095703125,-0.0006657897611148655,0.0050600022077560425,0.0023968431632965803
1771082196833489000,2.115489013671875,-0.0006657897611148655,-0.0023968431632965803,0.0034621069207787514
1771082196843430000,2.125429931640625,-0.0006657897611148655,-0.001331579522229731,0.001331579522229731
1771082196853370600,2.13537060546875,-0.0006657897611148655,0.002929474925622344,0.001331579522229731
1771082196863311600,2.1453115234375,-0.0006657897611148655,-0.004527370445430279,0.004527370445430279
1771082196873252400,2.15525244140625,-0.0006657897611148655,0.0018642114009708166,0.001331579522229731
1771082196883193300,2.165193359375,-0.0017310534603893757,0.002929474925622344,0.001331579522229731
1771082196893134300,2.17513427734375,-0.0006657897611148655,-0.005592633970081806,0.004527370445430279
1771082196903075000,2.185074951171875,-0.0006657897611148655,0.003994738683104515,0.0023968431632965803
1771082196913016000,2.19501611328125,-0.0006657897611148655,-0.001331579522229731,0.0023968431632965803
1771082196922956800,2.204956787109375,-0.0006657897611148655,-0.0034621069207787514,0.0034621069207787514
1771082196932897800,2.214897705078125,-0.0006657897611148655,0.00612526573240757,0.001331579522229731
1771082196942838800,2.2248388671875,-0.0006657897611148655,-0.005592633970081806,0.0034621069207787514
1771082196952779500,2.234779541015625,-0.0006657897611148655,-0.0023968431632965803,0.0023968431632965803
1771082196962720500,2.244720458984375,-0.0006657897611148655,0.007190529722720385,0.001331579522229731
1771082196972661200,2.2546611328125,0.0003994738799519837,-0.005592633970081806,0.0034621069207787514
1771082196982602200,2.264602294921875,-0.0017310534603893757,-0.0002663159102667123,0.001331579522229731
1771082196992543000,2.27454296875,-0.0006657897611148655,0.003994738683104515,0.0023968431632965803
1771082197012425000,2.294425048828125,-0.0006657897611148655,0.0050600022077560425,0.001331579522229731
1771082197032306700,2.314306640625,-0.0017310534603893757,-0.004527370445430279,0.0034621069207787514
1771082197052188400,2.3341884765625,-0.0006657897611148655,-0.0023968431632965803,0.0034621069207787514
1771082197062129400,2.34412939453125,-0.0017310534603893757,-0.0002663159102667123,0.0023968431632965803
1771082197072070100,2.354070068359375,-0.0017310534603893757,0.0018642114009708166,0.0023968431632965803
1771082197082011100,2.36401123046875,-0.0006657897611148655,-0.0034621069207787514,0.004527370445430279
1771082197101892900,2.383892822265625,-0.0017310534603893757,0.0007989477599039674,0.0023968431632965803
1771082197111833600,2.39383349609375,-0.0017310534603893757,-0.005592633970081806,0.0034621069207787514
1771082197121774600,2.403774658203125,-0.0006657897611148655,0.00612526573240757,0.001331579522229731
1771082197141656300,2.42365625,-0.0006657897611148655,-0.004527370445430279,0.0023968431632965803
1771082197161538000,2.4435380859375,-0.0017310534603893757,-0.004527370445430279,0.0034621069207787514
1771082197181420000,2.463419921875,-0.0006657897611148655,0.0050600022077560425,0.001331579522229731
1771082197201301800,2.4833017578125,-0.0006657897611148655,0.0018642114009708166,0.0034621069207787514
1771082197221183500,2.50318359375,-0.0006657897611148655,-0.006657897960394621,0.0034621069207787514
1771082197231124200,2.513124267578125,-0.0006657897611148655,0.00612526573240757,0.0002663159102667123
1771082197251006200,2.533006103515625,-0.0006657897611148655,-0.0034621069207787514,0.0034621069207787514
1771082197270888000,2.552887939453125,0.0003994738799519837,-0.006657897960394621,0.004527370445430279
1771082197290769700,2.572769775390625,-0.0006657897611148655,0.00612526573240757,0.0023968431632965803
1771082197310651400,2.5926513671875,-0.0006657897611148655,0.002929474925622344,0.0023968431632965803
1771082197330533000,2.612533203125,-0.0006657897611148655,-0.006657897960394621,0.0034621069207787514
1771082197350414800,2.632414794921875,-0.0006657897611148655,-0.0002663159102667123,0.001331579522229731
1771082197360355800,2.64235595703125,-0.0006657897611148655,-0.007723161485046148,0.0034621069207787514
1771082197370296800,2.652296875,-0.0006657897611148655,0.00612526573240757,0.0002663159102667123
1771082197380237600,2.662237548828125,-0.0006657897611148655,-0.001331579522229731,0.0023968431632965803
1771082197390178600,2.672178466796875,-0.0017310534603893757,-0.0034621069207787514,0.0034621069207787514
1771082197410060300,2.692060302734375,-0.0017310534603893757,-0.004527370445430279,0.0034621069207787514
1771082197429942000,2.71194189453125,-0.0006657897611148655,0.002929474925622344,0.001331579522229731
1771082197449823500,2.731823486328125,-0.0006657897611148655,0.002929474925622344,0.001331579522229731
1771082197469705200,2.751705322265625,-0.0017310534603893757,-0.004527370445430279,0.0034621069207787514
1771082197479646000,2.76164599609375,-0.0017310534603893757,0.002929474925622344,0.001331579522229731
1771082197489587000,2.7715869140625,-0.0017310534603893757,-0.0002663159102667123,0.0034621069207787514
1771082197499527700,2.781527587890625,-0.0017310534603893757,-0.004527370445430279,0.0023968431632965803
1771082197509468700,2.79146875,-0.0017310534603893757,0.007190529722720385,0.0023968431632965803
1771082197519409400,2.801409423828125,-0.0017310534603893757,-0.004527370445430279,0.0023968431632965803
1771082197529350100,2.81135009765625,-0.0006657897611148655,-0.001331579522229731,0.0023968431632965803
1771082197549231900,2.83123193359375,-0.0017310534603893757,-0.005592633970081806,0.0034621069207787514
1771082197559172600,2.841172607421875,-0.0017310534603893757,0.002929474925622344,0.001331579522229731
1771082197569113600,2.851113525390625,-0.0006657897611148655,0.0018642114009708166,0.0023968431632965803
1771082197579054300,2.861054443359375,-0.0017310534603893757,-0.005592633970081806,0.004527370445430279
1771082197598936000,2.88093603515625,-0.0006657897611148655,-0.0002663159102667123,0.0034621069207787514
1771082197618817800,2.90081787109375,-0.0017310534603893757,0.003994738683104515,0.001331579522229731
1771082197638699500,2.920699462890625,-0.0017310534603893757,-0.0023968431632965803,0.0023968431632965803
1771082197648640300,2.93064013671875,-0.0006657897611148655,0.003994738683104515,0.0023968431632965803
1771082197658581000,2.9405810546875,-0.0006657897611148655,-0.004527370445430279,0.004527370445430279
1771082197668522000,2.95052197265625,-0.0006657897611148655,0.0007989477599039674,0.0034621069207787514
1771082197678462700,2.960462646484375,-0.0017310534603893757,0.002929474925622344,0.0023968431632965803
1771082197688403500,2.970403564453125,-0.0006657897611148655,-0.006657897960394621,0.004527370445430279
1771082197698344400,2.980344482421875,-0.0006657897611148655,0.00612526573240757,0.001331579522229731
1771082197708285200,2.99028515625,-0.0017310534603893757,-0.001331579522229731,0.0023968431632965803
1771082197718226200,3.00022607421875,-0.0017310534603893757,-0.004527370445430279,0.0034621069207787514
1771082197728167000,3.0101669921875,-0.0006657897611148655,0.007190529722720385,0.0002663159102667123
1771082197738107600,3.020107666015625,-0.0006657897611148655,-0.006657897960394621,0.0034621069207787514
1771082197748048600,3.030048583984375,-0.0017310534603893757,0.0007989477599039674,0.001331579522229731
1771082197757989400,3.0399892578125,-0.0017310534603893757,0.00612526573240757,0.001331579522229731
1771082197767930000,3.04993017578125,-0.0006657897611148655,-0.00985368900001049,0.004527370445430279
1771082197777871000,3.05987109375,-0.0006657897611148655,0.003994738683104515,0.0023968431632965803
1771082197787811800,3.069811767578125,-0.0006657897611148655,0.0007989477599039674,0.0023968431632965803
1771082197797752800,3.0797529296875,-0.0006657897611148655,-0.006657897960394621,0.004527370445430279
1771082197807693600,3.089693603515625,-0.0006657897611148655,0.00612526573240757,0.0002663159102667123
1771082197817634300,3.09963427734375,-0.0017310534603893757,-0.0023968431632965803,0.0034621069207787514
1771082197827575300,3.1095751953125,-0.0006657897611148655,-0.0023968431632965803,0.0023968431632965803
1771082197837516000,3.11951611328125,-0.0006657897611148655,0.00612526573240757,0.001331579522229731
1771082197847457000,3.12945703125,0.0003994738799519837,-0.004527370445430279,0.0023968431632965803
1771082197867338500,3.14933837890625,-0.0017310534603893757,0.0050600022077560425,0.001331579522229731
1771082197877279500,3.159279541015625,-0.0006657897611148655,-0.005592633970081806,0.0034621069207787514
1771082197887220200,3.16922021484375,-0.0006657897611148655,0.0018642114009708166,0.0023968431632965803
1771082197897161200,3.1791611328125,-0.0006657897611148655,0.002929474925622344,0.0023968431632965803
1771082197907102000,3.18910205078125,-0.0006657897611148655,-0.005592633970081806,0.0034621069207787514
1771082197917043000,3.19904296875,-0.0006657897611148655,0.0018642114009708166,0.0023968431632965803
1771082197926984000,3.20898388671875,-0.0006657897611148655,0.002929474925622344,0.0023968431632965803
1771082197936924700,3.218924560546875,-0.0017310534603893757,-0.005592633970081806,0.0023968431632965803
1771082197946865700,3.22886572265625,-0.0006657897611148655,0.002929474925622344,0.0023968431632965803
1771082197956806400,3.238806396484375,-0.0006657897611148655,-0.001331579522229731,0.0023968431632965803
1771082197966747400,3.248747314453125,-0.0006657897611148655,-0.004527370445430279,0.0023968431632965803
1771082197976688000,3.258688232421875,-0.0017310534603893757,0.003994738683104515,0.0023968431632965803
1771082197986629000,3.268629150390625,-0.0017310534603893757,-0.0034621069207787514,0.0034621069207787514
1771082197996570000,3.278570068359375,-0.0006657897611148655,-0.0002663159102667123,0.0023968431632965803
1771082198006510800,3.2885107421875,-0.0017310534603893757,0.0050600022077560425,0.001331579522229731
1771082198016451800,3.298451904296875,-0.0006657897611148655,-0.005592633970081806,0.004527370445430279
1771082198026392600,3.308392578125,0.0003994738799519837,0.0018642114009708166,0.0023968431632965803
1771082198036333600,3.31833349609375,-0.0006657897611148655,0.003994738683104515,0.001331579522229731
1771082198046273500,3.3282734375,-0.0006657897611148655,-0.006657897960394621,0.004527370445430279
1771082198056214500,3.338214599609375,-0.0006657897611148655,0.0050600022077560425,0.0002663159102667123
1771082198066155500,3.348155517578125,-0.0017310534603893757,0.0007989477599039674,0.0034621069207787514
1771082198076096300,3.35809619140625,-0.0006657897611148655,-0.007723161485046148,0.004527370445430279
1771082198086037200,3.368037353515625,-0.0017310534603893757,0.008255792781710625,0.0002663159102667123
1771082198095978000,3.37797802734375,-0.0006657897611148655,-0.004527370445430279,0.0034621069207787514
1771082198105919000,3.3879189453125,-0.0006657897611148655,-0.005592633970081806,0.0034621069207787514
1771082198115860000,3.39785986328125,-0.0006657897611148655,0.007190529722720385,0.001331579522229731
1771082198125800700,3.40780078125,-0.0006657897611148655,-0.005592633970081806,0.0034621069207787514
1771082198135741700,3.41774169921875,-0.0017310534603893757,-0.001331579522229731,0.0023968431632965803
1771082198145682400,3.427682373046875,-0.0017310534603893757,0.00612526573240757,0.0002663159102667123
1771082198155623400,3.43762353515625,-0.0006657897611148655,-0.006657897960394621,0.004527370445430279
1771082198165564200,3.447564208984375,-0.0006657897611148655,0.0007989477599039674,0.001331579522229731
1771082198175505200,3.457505126953125,-0.0006657897611148655,0.0007989477599039674,0.0023968431632965803
1771082198185446100,3.467446044921875,-0.0006657897611148655,-0.0023968431632965803,0.0034621069207787514
1771082198195387000,3.477386962890625,-0.0006657897611148655,0.003994738683104515,0.001331579522229731
1771082198205328000,3.487327880859375,-0.0006657897611148655,-0.004527370445430279,0.0034621069207787514
1771082198215268600,3.4972685546875,-0.0017310534603893757,0.0018642114009708166,0.0023968431632965803
1771082198225209600,3.507209716796875,-0.0017310534603893757,0.00612526573240757,0.0023968431632965803
1771082198235150600,3.517150634765625,-0.0006657897611148655,-0.008788425475358963,0.004527370445430279
1771082198245091300,3.52709130859375,-0.0017310534603893757,0.002929474925622344,0.0023968431632965803
1771082198255032300,3.5370322265625,-0.0006657897611148655,0.0050600022077560425,0.001331579522229731
1771082198264973000,3.54697314453125,-0.0017310534603893757,-0.00985368900001049,0.0034621069207787514
1771082198274914000,3.5569140625,-0.0006657897611148655,0.0050600022077560425,0.001331579522229731
1771082198284854800,3.566854736328125,-0.0006657897611148655,0.0007989477599039674,0.0023968431632965803
1771082198294795800,3.576795654296875,-0.0006657897611148655,-0.006657897960394621,0.0034621069207787514
1771082198304736800,3.58673681640625,-0.0006657897611148655,0.008255792781710625,0.0002663159102667123
1771082198314677500,3.596677490234375,-0.0006657897611148655,-0.0034621069207787514,0.0023968431632965803
1771082198334559200,3.616559326171875,-0.0006657897611148655,0.008255792781710625,0.001331579522229731
1771082198344500000,3.6265,-0.0006657897611148655,-0.004527370445430279,0.004527370445430279
1771082198354441000,3.63644091796875,-0.0006657897611148655,-0.0002663159102667123,0.0023968431632965803
1771082198364381700,3.646381591796875,-0.0017310534603893757,0.003994738683104515,0.001331579522229731
1771082198374322400,3.656322509765625,-0.0017310534603893757,-0.008788425475358963,0.004527370445430279
1771082198384263400,3.666263427734375,-0.0006657897611148655,0.003994738683104515,0.001331579522229731
1771082198394204200,3.6762041015625,-0.0006657897611148655,0.002929474925622344,0.0023968431632965803
1771082198404145200,3.686145263671875,-0.0017310534603893757,-0.006657897960394621,0.0034621069207787514
1771082198414086000,3.6960859375,-0.0017310534603893757,0.003994738683104515,0.001331579522229731
1771082198424026600,3.706026611328125,-0.0006657897611148655,0.0018642114009708166,0.0023968431632965803
1771082198433967600,3.715967529296875,-0.0006657897611148655,-0.004527370445430279,0.001331579522229731
1771082198443908400,3.725908447265625,-0.0006657897611148655,0.0050600022077560425,0.0023968431632965803
1771082198453849300,3.735849365234375,-0.0006657897611148655,-0.001331579522229731,0.0023968431632965803
1771082198473730800,3.755730712890625,-0.0006657897611148655,0.0050600022077560425,0.001331579522229731
1771082198483671800,3.765671875,-0.0006657897611148655,-0.004527370445430279,0.0023968431632965803
1771082198493612500,3.775612548828125,-0.0006657897611148655,-0.0002663159102667123,0.0023968431632965803
1771082198503553300,3.78555322265625,-0.0006657897611148655,0.003994738683104515,0.001331579522229731
1771082198513494300,3.795494384765625,-0.0006657897611148655,-0.005592633970081806,0.0034621069207787514
1771082198523435000,3.80543505859375,-0.0006657897611148655,0.003994738683104515,0.0023968431632965803
1771082198533376000,3.8153759765625,-0.0006657897611148655,0.0007989477599039674,0.001331579522229731
1771082198543316700,3.825316650390625,-0.0006657897611148655,-0.006657897960394621,0.004527370445430279
1771082198553257500,3.835257568359375,-0.0006657897611148655,0.007190529722720385,0.001331579522229731
1771082198563198500,3.845198486328125,-0.0017310534603893757,-0.0023968431632965803,0.0034621069207787514
1771082198573139200,3.85513916015625,-0.0006657897611148655,-0.006657897960394621,0.0034621069207787514
1771082198583080000,3.865079833984375,-0.0006657897611148655,0.008255792781710625,0.001331579522229731
1771082198593021000,3.87502099609375,-0.0006657897611148655,-0.005592633970081806,0.0034621069207787514
1771082198602961700,3.884961669921875,-0.0017310534603893757,-0.0034621069207787514,0.0034621069207787514
1771082198612902700,3.894902587890625,-0.0006657897611148655,0.008255792781710625,0.001331579522229731
1771082198622843400,3.904843505859375,-0.0006657897611148655,-0.006657897960394621,0.0023968431632965803
1771082198632784100,3.9147841796875,-0.0006657897611148655,-0.001331579522229731,0.0034621069207787514
1771082198642725000,3.92472509765625,-0.0006657897611148655,0.00612526573240757,0.001331579522229731
1771082198652665900,3.934665771484375,-0.0006657897611148655,-0.006657897960394621,0.0034621069207787514
1771082198662606800,3.94460693359375,-0.0017310534603893757,0.002929474925622344,0.001331579522229731
1771082198672547600,3.954547607421875,-0.0006657897611148655,0.0007989477599039674,0.0034621069207787514
1771082198682488300,3.96448828125,-0.0006657897611148655,-0.004527370445430279,0.0034621069207787514
1771082198692429300,3.97442919921875,-0.0006657897611148655,0.002929474925622344,0.001331579522229731
1771082198702370000,3.9843701171875,-0.0006657897611148655,-0.0023968431632965803,0.0023968431632965803
1771082198712310800,3.994310791015625,0.0003994738799519837,-0.0023968431632965803,0.0034621069207787514
1771082198722251800,4.004251708984375,-0.0006657897611148655,0.0050600022077560425,0.001331579522229731
1771082198732192500,4.014192626953125,-0.0006657897611148655,-0.0034621069207787514,0.0034621069207787514
1771082198742133500,4.024133544921875,-0.0006657897611148655,-0.0023968431632965803,0.0023968431632965803
1771082198752074200,4.03407421875,-0.0006657897611148655,0.00612526573240757,0.0002663159102667123
1771082198762015000,4.044014892578125,-0.0006657897611148655,-0.007723161485046148,0.0034621069207787514
1771082198771956000,4.0539560546875,-0.0006657897611148655,0.002929474925622344,0.0023968431632965803
1771082198781896700,4.063896728515625,-0.0006657897611148655,0.003994738683104515,0.001331579522229731
1771082198791837400,4.07383740234375,-0.0006657897611148655,-0.007723161485046148,0.004527370445430279
1771082198801778400,4.0837783203125,-0.0017310534603893757,0.003994738683104515,0.001331579522229731
1771082198821660200,4.10366015625,-0.0006657897611148655,-0.005592633970081806,0.0034621069207787514
1771082198831601000,4.113600830078125,-0.0017310534603893757,0.002929474925622344,0.001331579522229731
1771082198841541600,4.123541748046875,-0.0006657897611148655,0.0018642114009708166,0.0023968431632965803
1771082198851482600,4.133482666015625,-0.0017310534603893757,-0.004527370445430279,0.0023968431632965803
1771082198861423400,4.14342333984375,-0.0006657897611148655,0.003994738683104515,0.0023968431632965803
1771082198871364000,4.153364013671875,-0.0006657897611148655,-0.0023968431632965803,0.0023968431632965803
1771082198881305000,4.16330517578125,-0.0006657897611148655,-0.0023968431632965803,0.0034621069207787514
1771082198901186800,4.183186767578125,-0.0006657897611148655,-0.004527370445430279,0.0034621069207787514
1771082198911127600,4.19312744140625,-0.0017310534603893757,-0.0002663159102667123,0.0023968431632965803
1771082198921068300,4.203068359375,-0.0017310534603893757,0.0050600022077560425,0.001331579522229731
1771082198931009300,4.21300927734375,-0.0006657897611148655,-0.006657897960394621,0.004527370445430279
1771082198940950000,4.222949951171875,-0.0017310534603893757,0.0018642114009708166,0.0023968431632965803
1771082198950891000,4.23289111328125,-0.0006657897611148655,0.003994738683104515,0.0023968431632965803
1771082198960831700,4.242831787109375,-0.0006657897611148655,-0.008788425475358963,0.0034621069207787514
1771082198970772500,4.2527724609375,-0.0006657897611148655,0.00612526573240757,0.001331579522229731
1771082198980713500,4.26271337890625,-0.0017310534603893757,-0.0002663159102667123,0.001331579522229731
1771082198990654500,4.272654541015625,-0.0006657897611148655,-0.005592633970081806,0.0034621069207787514
1771082199000595200,4.28259521484375,-0.0006657897611148655,0.00612526573240757,0.001331579522229731
1771082199010536200,4.2925361328125,-0.0006657897611148655,-0.0034621069207787514,0.0034621069207787514
1771082199020477000,4.302476806640625,-0.0006657897611148655,-0.0023968431632965803,0.0034621069207787514
1771082199030418000,4.31241796875,-0.0017310534603893757,0.003994738683104515,0.0023968431632965803
1771082199040359000,4.32235888671875,-0.0006657897611148655,-0.0034621069207787514,0.004527370445430279
1771082199050299600,4.332299560546875,-0.0017310534603893757,0.0007989477599039674,0.001331579522229731
1771082199060240600,4.34224072265625,-0.0006657897611148655,0.0007989477599039674,0.001331579522229731
1771082199070181400,4.352181396484375,-0.0006657897611148655,-0.004527370445430279,0.0034621069207787514
1771082199080122400,4.362122314453125,-0.0006657897611148655,0.0018642114009708166,0.001331579522229731
1771082199090063400,4.3720634765625,-0.0006657897611148655,-0.0002663159102667123,0.0023968431632965803
1771082199100004000,4.382004150390625,-0.0017310534603893757,-0.004527370445430279,0.0023968431632965803
1771082199109945000,4.391945068359375,-0.0017310534603893757,0.0050600022077560425,0.001331579522229731
1771082199119885800,4.4018857421875,-0.0006657897611148655,-0.0023968431632965803,0.0034621069207787514
1771082199139767600,4.421767578125,-0.0006657897611148655,0.0050600022077560425,0.001331579522229731
1771082199149708500,4.43170849609375,0.0003994738799519837,-0.005592633970081806,0.004527370445430279
1771082199159649500,4.4416494140625,-0.0006657897611148655,-0.0002663159102667123,0.0023968431632965803
1771082199169590300,4.45159033203125,-0.0006657897611148655,0.003994738683104515,0.001331579522229731
1771082199179531300,4.46153125,-0.0006657897611148655,-0.006657897960394621,0.004527370445430279
1771082199189472000,4.471471923828125,-0.0006657897611148655,0.0018642114009708166,0.001331579522229731
1771082199199413000,4.4814130859375,-0.0006657897611148655,0.0007989477599039674,0.0023968431632965803
1771082199209354000,4.49135400390625,-0.0006657897611148655,-0.005592633970081806,0.0034621069207787514
1771082199219294700,4.501294677734375,-0.0006657897611148655,0.002929474925622344,0.0023968431632965803
1771082199239176400,4.521176513671875,-0.0006657897611148655,-0.0023968431632965803,0.0023968431632965803
1771082199249117400,4.531117431640625,-0.0006657897611148655,0.003994738683104515,0.001331579522229731
1771082199259058200,4.54105810546875,-0.0006657897611148655,-0.0023968431632965803,0.0034621069207787514
1771082199268999200,4.550999267578125,-0.0006657897611148655,-0.0002663159102667123,0.001331579522229731
1771082199278940200,4.560940185546875,-0.0006657897611148655,0.002929474925622344,0.001331579522229731
1771082199288881000,4.570880859375,-0.0006657897611148655,-0.004527370445430279,0.0034621069207787514
1771082199298822000,4.58082177734375,-0.0006657897611148655,0.002929474925622344,0.001331579522229731
1771082199308762600,4.5907626953125,-0.0006657897611148655,0.0007989477599039674,0.0023968431632965803
1771082199318703600,4.60070361328125,-0.0006657897611148655,-0.006657897960394621,0.004527370445430279
1771082199328644400,4.610644287109375,-0.0017310534603893757,0.0050600022077560425,0.001331579522229731
1771082199338585000,4.620585205078125,-0.0006657897611148655,-0.0002663159102667123,0.0023968431632965803
1771082199348526000,4.630526123046875,-0.0006657897611148655,-0.004527370445430279,0.0034621069207787514
1771082199368407800,4.65040771484375,-0.0017310534603893757,-0.0023968431632965803,0.0023968431632965803
1771082199388289300,4.670289306640625,-0.0006657897611148655,0.003994738683104515,0.0023968431632965803
1771082199398230300,4.680230224609375,-0.0006657897611148655,-0.004527370445430279,0.0034621069207787514
1771082199408171000,4.6901708984375,-0.0006657897611148655,0.0007989477599039674,0.0023968431632965803
1771082199418112000,4.700112060546875,-0.0006657897611148655,0.0007989477599039674,0.0023968431632965803
1771082199428052700,4.710052734375,-0.0006657897611148655,-0.0034621069207787514,0.0023968431632965803
1771082199437993500,4.719993408203125,-0.0006657897611148655,0.002929474925622344,0.0023968431632965803
1771082199447934500,4.7299345703125,-0.0006657897611148655,-0.001331579522229731,0.0023968431632965803
1771082199457875200,4.739875244140625,-0.0006657897611148655,-0.001331579522229731,0.0023968431632965803
1771082199467816000,4.74981591796875,-0.0017310534603893757,0.002929474925622344,0.0023968431632965803
1771082199477757000,4.7597568359375,-0.0006657897611148655,-0.0034621069207787514,0.0034621069207787514
1771082199487697700,4.76969775390625,-0.0006657897611148655,-0.0002663159102667123,0.0023968431632965803
1771082199497638700,4.779638671875,-0.0006657897611148655,0.002929474925622344,0.0023968431632965803
1771082199517520100,4.79952001953125,-0.0006657897611148655,-0.0002663159102667123,0.0023968431632965803
1771082199537401900,4.81940185546875,-0.0006657897611148655,-0.004527370445430279,0.0034621069207787514
1771082199557283600,4.83928369140625,0.0003994738799519837,0.0007989477599039674,0.001331579522229731
1771082199577165300,4.859165283203125,-0.0006657897611148655,0.002929474925622344,0.0023968431632965803
1771082199587106000,4.86910595703125,-0.0017310534603893757,-0.0002663159102667123,0.0034621069207787514
1771082199606987800,4.88898779296875,-0.0006657897611148655,0.003994738683104515,0.001331579522229731
1771082199616928500,4.898928466796875,-0.0006657897611148655,-0.0034621069207787514,0.0034621069207787514
1771082199626869500,4.908869384765625,-0.0006657897611148655,-0.0002663159102667123,0.0023968431632965803
1771082199636810200,4.918810302734375,-0.0017310534603893757,0.002929474925622344,0.0023968431632965803
1771082199646751000,4.9287509765625,-0.0006657897611148655,-0.0034621069207787514,0.0034621069207787514
1771082199656692000,4.93869189453125,-0.0006657897611148655,0.0018642114009708166,0.0023968431632965803
1771082199666632700,4.9486328125,-0.0006657897611148655,0.0007989477599039674,0.0023968431632965803
1771082199686514400,4.968514404296875,-0.0006657897611148655,0.002929474925622344,0.001331579522229731
1771082199706396200,4.988396240234375,-0.0006657897611148655,-0.001331579522229731,0.0023968431632965803
1771082199716337000,4.9983369140625,-0.0006657897611148655,0.0018642114009708166,0.0023968431632965803
1771082199726277600,5.008277587890625,-0.0006657897611148655,-0.001331579522229731,0.0034621069207787514
1771082199736218600,5.018218505859375,-0.0017310534603893757,0.0007989477599039674,0.0023968431632965803
1771082199756100000,5.03810009765625,-0.0017310534603893757,-0.0023968431632965803,0.0034621069207787514
1771082199775981800,5.05798193359375,-0.0006657897611148655,-0.0002663159102667123,0.0023968431632965803
1771082199785922800,5.0679228515625,-0.0017310534603893757,-0.001331579522229731,0.0023968431632965803
1771082199795863600,5.077863525390625,-0.0006657897611148655,0.0018642114009708166,0.0023968431632965803
1771082199805804300,5.08780419921875,-0.0017310534603893757,-0.0023968431632965803,0.0023968431632965803
1771082199815745300,5.097745361328125,-0.0017310534603893757,-0.0002663159102667123,0.0034621069207787514
1771082199825686000,5.10768603515625,-0.0017310534603893757,0.0018642114009708166,0.0023968431632965803
1771082199845567700,5.127567626953125,-0.0006657897611148655,-0.0002663159102667123,0.0023968431632965803
1771082199855508500,5.137508544921875,-0.0006657897611148655,0.0018642114009708166,0.0023968431632965803
1771082199865449500,5.147449462890625,-0.0006657897611148655,-0.0023968431632965803,0.0023968431632965803
1771082199875390200,5.15739013671875,-0.0006657897611148655,0.0007989477599039674,0.0023968431632965803
1771082199885331000,5.1673310546875,-0.0006657897611148655,0.0007989477599039674,0.0023968431632965803
1771082199895272000,5.17727197265625,-0.0006657897611148655,-0.0023968431632965803,0.0023968431632965803
1771082199905212700,5.187212646484375,-0.0006657897611148655,0.0007989477599039674,0.0023968431632965803
1771082199915153700,5.197153564453125,-0.0006657897611148655,-0.0002663159102667123,0.001331579522229731
1771082199925094400,5.207094482421875,-0.0017310534603893757,-0.0002663159102667123,0.0034621069207787514
1771082199944976100,5.22697607421875,-0.0006657897611148655,-0.0002663159102667123,0.0023968431632965803
1771082199954916900,5.236916748046875,-0.0017310534603893757,-0.0002663159102667123,0.0023968431632965803
1771082199964857600,5.246857666015625,-0.0006657897611148655,0.0007989477599039674,0.0023968431632965803
1771082199974798600,5.256798583984375,-0.0006657897611148655,-0.0002663159102667123,0.0023968431632965803
1771082199984739300,5.2667392578125,-0.0006657897611148655,0.0007989477599039674,0.0023968431632965803
1771082199994680300,5.276680419921875,-0.0006657897611148655,-0.0002663159102667123,0.0034621069207787514
1771082200004621000,5.28662109375,-0.0006657897611148655,-0.0002663159102667123,0.0034621069207787514
1771082200014561800,5.296561767578125,-0.0006657897611148655,0.0007989477599039674,0.0023968431632965803
1771082200024502800,5.306502685546875,-0.0017310534603893757,-0.001331579522229731,0.0023968431632965803
1771082200034443500,5.316443603515625,-0.0017310534603893757,0.0018642114009708166,0.0034621069207787514
1771082200044384300,5.32638427734375,-0.0006657897611148655,0.0007989477599039674,0.0023968431632965803
1771082200054325200,5.3363251953125,-0.0006657897611148655,-0.0023968431632965803,0.0023968431632965803
1771082200064266000,5.346265869140625,-0.0017310534603893757,0.0018642114009708166,0.001331579522229731
1771082200074207000,5.35620703125,-0.0017310534603893757,-0.0023968431632965803,0.0034621069207787514
1771082200084147700,5.366147705078125,-0.0006657897611148655,-0.001331579522229731,0.0023968431632965803
1771082200094088400,5.37608837890625,-0.0006657897611148655,0.0018642114009708166,0.001331579522229731
1771082200104029400,5.386029541015625,-0.0017310534603893757,-0.001331579522229731,0.0023968431632965803
1771082200113970200,5.39597021484375,-0.0017310534603893757,-0.0002663159102667123,0.0034621069207787514
1771082200123911200,5.4059111328125,-0.0017310534603893757,0.0018642114009708166,0.0023968431632965803
1771082200133852000,5.415851806640625,-0.0006657897611148655,-0.001331579522229731,0.0034621069207787514
1771082200143792600,5.425792724609375,-0.0006657897611148655,0.0007989477599039674,0.001331579522229731
1771082200153733600,5.435733642578125,-0.0006657897611148655,-0.001331579522229731,0.0023968431632965803
1771082200163674400,5.44567431640625,-0.0006657897611148655,-0.0002663159102667123,0.0023968431632965803
1771082200173615000,5.455614990234375,-0.0006657897611148655,-0.0002663159102667123,0.0023968431632965803
1771082200183556000,5.46555615234375,-0.0006657897611148655,-0.001331579522229731,0.0034621069207787514
1771082200193496800,5.475496826171875,-0.0006657897611148655,0.0007989477599039674,0.0023968431632965803
1771082200203437800,5.485437744140625,-0.0006657897611148655,0.0007989477599039674,0.0034621069207787514
1771082200213378600,5.495378662109375,-0.0006657897611148655,-0.001331579522229731,0.0023968431632965803
1771082200223319300,5.5053193359375,-0.0006657897611148655,0.0018642114009708166,0.0023968431632965803
1771082200233260300,5.51526025390625,-0.0006657897611148655,-0.001331579522229731,0.0034621069207787514
1771082200243201000,5.525200927734375,-0.0006657897611148655,-0.001331579522229731,0.001331579522229731
1771082200253141800,5.535141845703125,-0.0006657897611148655,0.0018642114009708166,0.0023968431632965803
1771082200263082800,5.545082763671875,-0.0017310534603893757,-0.001331579522229731,0.0034621069207787514
1771082200282964500,5.564964599609375,-0.0006657897611148655,0.0007989477599039674,0.0034621069207787514
1771082200302846000,5.584845947265625,-0.0017310534603893757,0.0007989477599039674,0.0023968431632965803
1771082200312787000,5.594786865234375,-0.0006657897611148655,-0.0002663159102667123,0.0023968431632965803
1771082200322727700,5.604727783203125,-0.0006657897611148655,-0.001331579522229731,0.0023968431632965803
1771082200332668700,5.614668701171875,-0.0006657897611148655,0.0018642114009708166,0.001331579522229731
1771082200342609400,5.624609375,-0.0006657897611148655,-0.001331579522229731,0.0034621069207787514
1771082200352550100,5.634550048828125,-0.0006657897611148655,-0.0002663159102667123,0.0023968431632965803
1771082200362491100,5.6444912109375,-0.0006657897611148655,0.0007989477599039674,0.0023968431632965803
1771082200372432100,5.65443212890625,-0.0006657897611148655,-0.001331579522229731,0.0023968431632965803
1771082200382372900,5.664372802734375,-0.0006657897611148655,-0.0002663159102667123,0.001331579522229731
1771082200392313900,5.67431396484375,-0.0006657897611148655,-0.0002663159102667123,0.0023968431632965803
1771082200402254600,5.684254638671875,-0.0017310534603893757,-0.0002663159102667123,0.0023968431632965803
1771082200412195600,5.694195556640625,-0.0017310534603893757,0.0018642114009708166,0.0023968431632965803
1771082200422136600,5.704136474609375,-0.0006657897611148655,-0.001331579522229731,0.0023968431632965803
1771082200432077300,5.714077392578125,-0.0006657897611148655,-0.001331579522229731,0.0034621069207787514
1771082200442018300,5.724018310546875,-0.0017310534603893757,0.0007989477599039674,0.0023968431632965803
1771082200451959000,5.733958984375,-0.0006657897611148655,-0.001331579522229731,0.0034621069207787514
1771082200461900000,5.743900146484375,-0.0006657897611148655,-0.0002663159102667123,0.0023968431632965803
1771082200471840800,5.7538408203125,-0.0017310534603893757,-0.0002663159102667123,0.0034621069207787514
1771082200481781800,5.76378173828125,-0.0006657897611148655,-0.0002663159102667123,0.0034621069207787514
1771082200491722800,5.77372265625,-0.0017310534603893757,-0.0002663159102667123,0.0034621069207787514
1771082200501663500,5.78366357421875,-0.0006657897611148655,-0.001331579522229731,0.0023968431632965803
1771082200511604500,5.7936044921875,-0.0006657897611148655,-0.0002663159102667123,0.0023968431632965803
1771082200521545200,5.803545166015625,-0.0017310534603893757,-0.0002663159102667123,0.0023968431632965803
1771082200531486200,5.813486328125,-0.0006657897611148655,-0.0002663159102667123,0.0034621069207787514
1771082200541427200,5.82342724609375,-0.0017310534603893757,-0.0002663159102667123,0.0023968431632965803
1771082200551368000,5.833367919921875,-0.0017310534603893757,-0.001331579522229731,0.0023968431632965803
1771082200561309000,5.843308837890625,-0.0006657897611148655,-0.0002663159102667123,0.0034621069207787514
1771082200571249700,5.853249755859375,-0.0017310534603893757,-0.0002663159102667123,0.0023968431632965803
1771082200591131400,5.87313134765625,-0.0006657897611148655,-0.0002663159102667123,0.0023968431632965803
1771082200601072400,5.883072265625,-0.0006657897611148655,0.0007989477599039674,0.0034621069207787514
1771082200611013400,5.893013427734375,-0.0006657897611148655,-0.0002663159102667123,0.0023968431632965803
1771082200620954000,5.9029541015625,-0.0006657897611148655,-0.0023968431632965803,0.0023968431632965803
1771082200630895000,5.91289501953125,-0.0017310534603893757,0.0007989477599039674,0.0034621069207787514
1771082200640835800,5.9228359375,-0.0006657897611148655,-0.001331579522229731,0.0023968431632965803
1771082200650776800,5.93277685546875,-0.0006657897611148655,-0.0002663159102667123,0.0023968431632965803
1771082200660717600,5.942717529296875,-0.0006657897611148655,-0.001331579522229731,0.0023968431632965803
1771082200670658300,5.952658203125,-0.0006657897611148655,0.0007989477599039674,0.0023968431632965803
1771082200680599300,5.962599365234375,-0.0017310534603893757,0.0007989477599039674,0.0023968431632965803
1771082200690540000,5.9725400390625,-0.0006657897611148655,-0.001331579522229731,0.0023968431632965803
1771082200700480800,5.982480712890625,-0.0006657897611148655,0.0007989477599039674,0.001331579522229731
1771082200710421800,5.992421875,-0.0006657897611148655,-0.001331579522229731,0.0023968431632965803
1771082200720362500,6.002362548828125,-0.0006657897611148655,-0.0002663159102667123,0.0023968431632965803
1771082200730303500,6.012303466796875,-0.0017310534603893757,0.0018642114009708166,0.001331579522229731
1771082200740244200,6.022244140625,-0.0006657897611148655,-0.0023968431632965803,0.0023968431632965803
1771082200750185000,6.03218505859375,-0.0017310534603893757,0.0007989477599039674,0.001331579522229731
1771082200760126000,6.0421259765625,-0.0006657897611148655,-0.001331579522229731,0.0023968431632965803
1771082200770066700,6.052066650390625,-0.0006657897611148655,-0.0002663159102667123,0.0034621069207787514
1771082200789948400,6.071948486328125,-0.0006657897611148655,-0.001331579522229731,0.0023968431632965803
1771082200799889200,6.08188916015625,-0.0006657897611148655,-0.001331579522229731,0.0023968431632965803
1771082200809830100,6.091830078125,-0.0017310534603893757,0.0007989477599039674,0.001331579522229731
1771082200819771000,6.10177099609375,-0.0006657897611148655,-0.001331579522229731,0.0023968431632965803
1771082200829711600,6.111711669921875,-0.0006657897611148655,0.0007989477599039674,0.0023968431632965803
1771082200839652600,6.121652587890625,-0.0017310534603893757,0.0007989477599039674,0.0023968431632965803
1771082200859534300,6.141534423828125,-0.0006657897611148655,0.0007989477599039674,0.001331579522229731
1771082200869475000,6.15147509765625,-0.0017310534603893757,-0.001331579522229731,0.0023968431632965803
1771082200879415800,6.161415771484375,-0.0006657897611148655,-0.0002663159102667123,0.0023968431632965803
1771082200889356800,6.171356689453125,-0.0006657897611148655,0.0007989477599039674,0.001331579522229731
1771082200899297500,6.181297607421875,-0.0006657897611148655,-0.0002663159102667123,0.0023968431632965803
1771082200909238300,6.19123828125,-0.0006657897611148655,-0.0002663159102667123,0.0023968431632965803
1771082200919179300,6.20117919921875,-0.0017310534603893757,-0.0002663159102667123,0.0023968431632965803
1771082200929120000,6.2111201171875,-0.0006657897611148655,-0.001331579522229731,0.0034621069207787514
1771082200939061000,6.22106103515625,-0.0017310534603893757,-0.0002663159102667123,0.0023968431632965803
1771082200949001700,6.231001708984375,-0.0006657897611148655,-0.001331579522229731,0.0034621069207787514
1771082200958942500,6.2409423828125,-0.0017310534603893757,-0.0002663159102667123,0.0023968431632965803
1771082200968883500,6.250883544921875,-0.0006657897611148655,-0.0002663159102667123,0.0034621069207787514
1771082200978824200,6.26082421875,-0.0006657897611148655,-0.001331579522229731,0.0034621069207787514
1771082200988765000,6.270764892578125,-0.0017310534603893757,0.0007989477599039674,0.0023968431632965803
1771082200998706000,6.280705810546875,-0.0017310534603893757,-0.0002663159102667123,0.0034621069207787514
1771082201008646700,6.290646728515625,-0.0017310534603893757,-0.0002663159102667123,0.0034621069207787514
1771082201018587600,6.300587646484375,-0.0006657897611148655,0.0007989477599039674,0.0023968431632965803
1771082201028528400,6.3105283203125,-0.0006657897611148655,-0.0002663159102667123,0.0023968431632965803
1771082201038469000,6.32046923828125,-0.0006657897611148655,-0.0002663159102667123,0.0023968431632965803
1771082201048410000,6.33041015625,-0.0017310534603893757,-0.0002663159102667123,0.0023968431632965803
1771082201058350800,6.340350830078125,-0.0006657897611148655,-0.0002663159102667123,0.0023968431632965803
1771082201068291800,6.350291748046875,-0.0006657897611148655,-0.0002663159102667123,0.0034621069207787514
1771082201078232600,6.360232666015625,-0.0017310534603893757,-0.0002663159102667123,0.0034621069207787514
1771082201088173300,6.37017333984375,-0.0017310534603893757,-0.0002663159102667123,0.0034621069207787514
1771082201098114300,6.3801142578125,-0.0006657897611148655,-0.0002663159102667123,0.0023968431632965803
1771082201108055000,6.390054931640625,-0.0017310534603893757,-0.0002663159102667123,0.0023968431632965803
1771082201117995800,6.399995849609375,-0.0006657897611148655,-0.0002663159102667123,0.0023968431632965803
1771082201127936800,6.409936767578125,-0.0006657897611148655,-0.0002663159102667123,0.0023968431632965803
1771082201137877500,6.41987744140625,-0.0017310534603893757,-0.0002663159102667123,0.001331579522229731
1771082201147818500,6.429818603515625,-0.0006657897611148655,-0.001331579522229731,0.0023968431632965803
1771082201167700000,6.449699951171875,-0.0017310534603893757,-0.001331579522229731,0.0023968431632965803
1771082201187581700,6.469581787109375,-0.0006657897611148655,0.0007989477599039674,0.0023968431632965803
1771082201197522400,6.4795224609375,-0.0006657897611148655,-0.0023968431632965803,0.0034621069207787514
1771082201207463400,6.48946337890625,-0.0017310534603893757,0.0018642114009708166,0.0023968431632965803
1771082201217404200,6.499404052734375,-0.0006657897611148655,0.0007989477599039674,0.0034621069207787514
1771082201227345200,6.50934521484375,-0.0017310534603893757,-0.001331579522229731,0.0023968431632965803
1771082201237286000,6.519285888671875,-0.0006657897611148655,0.0007989477599039674,0.0023968431632965803
1771082201247226600,6.5292265625,-0.0006657897611148655,-0.0002663159102667123,0.0034621069207787514
1771082201257167600,6.539167724609375,-0.0006657897611148655,-0.0002663159102667123,0.0023968431632965803
1771082201267108400,6.5491083984375,-0.0006657897611148655,0.0007989477599039674,0.0023968431632965803
1771082201277049300,6.55904931640625,-0.0017310534603893757,-0.001331579522229731,0.0023968431632965803
1771082201286990000,6.568989990234375,-0.0017310534603893757,-0.0002663159102667123,0.0023968431632965803
1771082201296930800,6.578930908203125,-0.0006657897611148655,0.0007989477599039674,0.0023968431632965803
1771082201306871800,6.588871826171875,-0.0006657897611148655,-0.0023968431632965803,0.0023968431632965803
1771082201316812500,6.5988125,-0.0017310534603893757,0.0018642114009708166,0.001331579522229731
1771082201326753300,6.608753173828125,-0.0017310534603893757,0.0007989477599039674,0.0023968431632965803
1771082201336694300,6.6186943359375,-0.0006657897611148655,-0.001331579522229731,0.0034621069207787514
1771082201346635000,6.628635009765625,-0.0017310534603893757,0.0018642114009708166,0.0023968431632965803
1771082201366516700,6.648516845703125,-0.0017310534603893757,-0.001331579522229731,0.0023968431632965803
1771082201376457500,6.65845751953125,-0.0017310534603893757,0.0018642114009708166,0.0023968431632965803
1771082201386398500,6.6683984375,-0.0006657897611148655,-0.001331579522229731,0.0023968431632965803
1771082201396339200,6.678339111328125,-0.0006657897611148655,-0.001331579522229731,0.0023968431632965803
1771082201406280000,6.688280029296875,-0.0006657897611148655,0.0007989477599039674,0.0023968431632965803
1771082201416221000,6.698220947265625,-0.0017310534603893757,-0.0023968431632965803,0.0034621069207787514
1771082201426161700,6.70816162109375,-0.0006657897611148655,0.0007989477599039674,0.0023968431632965803
1771082201436102700,6.7181025390625,-0.0006657897611148655,-0.0002663159102667123,0.0023968431632965803
1771082201446043400,6.72804345703125,-0.0006657897611148655,-0.0023968431632965803,0.0023968431632965803
1771082201455984000,6.737984130859375,-0.0017310534603893757,0.0018642114009708166,0.0023968431632965803
1771082201465925000,6.747925048828125,-0.0006657897611148655,-0.0002663159102667123,0.0023968431632965803
1771082201475865900,6.757865966796875,-0.0006657897611148655,-0.0023968431632965803,0.0023968431632965803
1771082201485806800,6.767806884765625,-0.0017310534603893757,0.0007989477599039674,0.0023968431632965803
1771082201495747600,6.77774755859375,-0.0017310534603893757,-0.001331579522229731,0.0023968431632965803
1771082201505688300,6.787688232421875,0.0003994738799519837,-0.0002663159102667123,0.001331579522229731
1771082201515629300,6.79762939453125,-0.0006657897611148655,0.0007989477599039674,0.001331579522229731
1771082201525570000,6.807570068359375,-0.0017310534603893757,-0.001331579522229731,0.0034621069207787514
1771082201535510800,6.8175107421875,-0.0006657897611148655,0.0007989477599039674,0.0023968431632965803
1771082201545451800,6.82745166015625,-0.0006657897611148655,0.0007989477599039674,0.001331579522229731
1771082201555392500,6.837392578125,-0.0017310534603893757,-0.001331579522229731,0.0023968431632965803
1771082201565333500,6.84733349609375,-0.0017310534603893757,0.0018642114009708166,0.0023968431632965803
1771082201575274200,6.857274169921875,-0.0006657897611148655,-0.0002663159102667123,0.0023968431632965803
1771082201585215000,6.867215087890625,-0.0006657897611148655,-0.0023968431632965803,0.0023968431632965803
1771082201595156000,6.877156005859375,-0.0017310534603893757,0.0018642114009708166,0.0023968431632965803
1771082201605096700,6.8870966796875,-0.0006657897611148655,-0.0023968431632965803,0.0023968431632965803
1771082201615037400,6.897037353515625,-0.0006657897611148655,-0.0002663159102667123,0.0023968431632965803
1771082201624978400,6.906978515625,-0.0006657897611148655,0.0007989477599039674,0.001331579522229731
1771082201634919200,6.916919189453125,-0.0006657897611148655,-0.001331579522229731,0.0023968431632965803
1771082201644860200,6.926860107421875,-0.0006657897611148655,-0.0002663159102667123,0.0023968431632965803
1771082201654801000,6.93680078125,-0.0006657897611148655,0.0007989477599039674,0.001331579522229731
1771082201664741600,6.94674169921875,-0.0006657897611148655,-0.0023968431632965803,0.001331579522229731
1771082201674682600,6.9566826171875,-0.0006657897611148655,-0.0002663159102667123,0.0023968431632965803
1771082201684623400,6.966623291015625,-0.0017310534603893757,0.0007989477599039674,0.001331579522229731
1771082201694564000,6.976564208984375,-0.0006657897611148655,-0.0023968431632965803,0.0034621069207787514
1771082201704505000,6.986505126953125,-0.0006657897611148655,0.0007989477599039674,0.0023968431632965803
1771082201724386800,7.00638671875,-0.0006657897611148655,-0.0023968431632965803,0.0023968431632965803
1771082201734327600,7.01632763671875,-0.0006657897611148655,0.0018642114009708166,0.0023968431632965803
1771082201744268300,7.026268310546875,-0.0006657897611148655,0.0007989477599039674,0.0023968431632965803
1771082201754209300,7.036209228515625,-0.0006657897611148655,-0.0023968431632965803,0.0034621069207787514
1771082201764150000,7.04614990234375,-0.0006657897611148655,0.0007989477599039674,0.0023968431632965803
1771082201774091000,7.056091064453125,-0.0006657897611148655,-0.001331579522229731,0.0023968431632965803
1771082201784031700,7.06603173828125,-0.0006657897611148655,-0.0002663159102667123,0.0023968431632965803
1771082201793972500,7.075972412109375,-0.0006657897611148655,-0.0002663159102667123,0.0023968431632965803
1771082201803913500,7.08591357421875,-0.0017310534603893757,-0.0002663159102667123,0.001331579522229731
1771082201813854200,7.095854248046875,-0.0006657897611148655,0.0007989477599039674,0.0023968431632965803
1771082201823795000,7.105794921875,-0.0006657897611148655,-0.001331579522229731,0.0023968431632965803
1771082201833736000,7.11573583984375,-0.0017310534603893757,-0.0002663159102667123,0.001331579522229731
1771082201843676700,7.1256767578125,-0.0006657897611148655,0.0007989477599039674,0.0023968431632965803
1771082201853617700,7.13561767578125,-0.0017310534603893757,-0.0023968431632965803,0.0023968431632965803
1771082201863558400,7.145558349609375,-0.0017310534603893757,0.0007989477599039674,0.0034621069207787514
1771082201873499100,7.1554990234375,-0.0006657897611148655,0.0007989477599039674,0.001331579522229731
1771082201883440000,7.165440185546875,-0.0017310534603893757,-0.001331579522229731,0.0034621069207787514
1771082201893380900,7.175380859375,-0.0006657897611148655,-0.0002663159102667123,0.001331579522229731
1771082201903321600,7.185321533203125,-0.0006657897611148655,-0.0002663159102667123,0.0023968431632965803
1771082201913262600,7.1952626953125,-0.0006657897611148655,-0.0023968431632965803,0.0023968431632965803
1771082201923203300,7.205203369140625,-0.0017310534603893757,0.0018642114009708166,0.001331579522229731
1771082201933144300,7.215144287109375,-0.0006657897611148655,-0.001331579522229731,0.0034621069207787514
1771082201943085000,7.2250849609375,-0.0006657897611148655,-0.0023968431632965803,0.0023968431632965803
1771082201953025800,7.23502587890625,-0.0017310534603893757,0.0018642114009708166,0.0023968431632965803
1771082201962966800,7.244966796875,-0.0006657897611148655,-0.0002663159102667123,0.0023968431632965803
1771082201972907500,7.254907470703125,-0.0006657897611148655,-0.0002663159102667123,0.0023968431632965803
1771082201982848500,7.2648486328125,-0.0006657897611148655,0.0007989477599039674,0.0023968431632965803
1771082201992789200,7.274789306640625,-0.0006657897611148655,-0.0002663159102667123,0.0023968431632965803
1771082202002730000,7.28472998046875,-0.0006657897611148655,0.0007989477599039674,0.001331579522229731
1771082202012671000,7.2946708984375,-0.0006657897611148655,-0.0002663159102667123,0.0023968431632965803
1771082202022611700,7.30461181640625,-0.0006657897611148655,0.0007989477599039674,0.0023968431632965803
1771082202032552400,7.314552490234375,-0.0006657897611148655,0.0007989477599039674,0.001331579522229731
1771082202042493400,7.324493408203125,-0.0017310534603893757,-0.0002663159102667123,0.001331579522229731
1771082202052434200,7.33443408203125,-0.0017310534603893757,-0.0002663159102667123,0.0023968431632965803
1771082202062375200,7.344375244140625,-0.0006657897611148655,0.0007989477599039674,0.0023968431632965803
1771082202072316000,7.35431591796875,-0.0006657897611148655,-0.001331579522229731,0.0023968431632965803
1771082202082256600,7.364256591796875,-0.0006657897611148655,-0.001331579522229731,0.0023968431632965803
1771082202092197600,7.37419775390625,-0.0017310534603893757,0.0007989477599039674,0.0023968431632965803
1771082202102138400,7.384138427734375,-0.0006657897611148655,-0.0034621069207787514,0.0023968431632965803
1771082202112079000,7.3940791015625,-0.0006657897611148655,0.0007989477599039674,0.001331579522229731
1771082202122020000,7.40402001953125,-0.0017310534603893757,0.0007989477599039674,0.0023968431632965803
1771082202131960800,7.4139609375,-0.0006657897611148655,-0.001331579522229731,0.0023968431632965803
1771082202141901800,7.42390185546875,-0.0017310534603893757,0.0007989477599039674,0.0023968431632965803
1771082202151842600,7.433842529296875,-0.0006657897611148655,-0.001331579522229731,0.0034621069207787514
1771082202161783300,7.443783203125,-0.0006657897611148655,-0.0002663159102667123,0.0023968431632965803
1771082202171724300,7.453724365234375,-0.0006657897611148655,0.0007989477599039674,0.0023968431632965803
1771082202181665000,7.4636650390625,-0.0006657897611148655,-0.0002663159102667123,0.0034621069207787514
1771082202191606000,7.47360595703125,-0.0006657897611148655,0.0007989477599039674,0.001331579522229731
1771082202201546800,7.483546630859375,-0.0017310534603893757,-0.0002663159102667123,0.0023968431632965803
1771082202211487500,7.493487548828125,-0.0017310534603893757,-0.0002663159102667123,0.0023968431632965803
1771082202221428500,7.503428466796875,-0.0017310534603893757,0.0007989477599039674,0.0034621069207787514
1771082202231369200,7.513369140625,-0.0006657897611148655,-0.001331579522229731,0.0034621069207787514
1771082202241310000,7.52331005859375,-0.0017310534603893757,-0.0002663159102667123,0.0023968431632965803
1771082202251251000,7.5332509765625,-0.0006657897611148655,0.0018642114009708166,0.0023968431632965803
1771082202261191700,7.543191650390625,-0.0006657897611148655,-0.001331579522229731,0.0023968431632965803
1771082202271132700,7.553132568359375,-0.0006657897611148655,-0.001331579522229731,0.0023968431632965803
1771082202291014100,7.57301416015625,-0.0017310534603893757,-0.001331579522229731,0.0034621069207787514
1771082202300955100,7.582955078125,-0.0006657897611148655,-0.001331579522229731,0.0034621069207787514
1771082202310895900,7.592895751953125,-0.0006657897611148655,0.0007989477599039674,0.001331579522229731
1771082202320836600,7.602836669921875,-0.0006657897611148655,-0.0023968431632965803,0.0023968431632965803
1771082202330777600,7.612777587890625,-0.0017310534603893757,0.0007989477599039674,0.001331579522229731
1771082202340718300,7.62271826171875,-0.0006657897611148655,-0.0002663159102667123,0.0023968431632965803
1771082202350659300,7.632659423828125,-0.0006657897611148655,-0.001331579522229731,0.001331579522229731
1771082202360600000,7.64260009765625,-0.0006657897611148655,0.0018642114009708166,0.001331579522229731
1771082202370540800,7.652540771484375,-0.0017310534603893757,-0.0002663159102667123,0.0023968431632965803
1771082202380481800,7.662481689453125,-0.0017310534603893757,-0.0002663159102667123,0.0023968431632965803
1771082202390422500,7.672422607421875,-0.0006657897611148655,0.0018642114009708166,0.0023968431632965803
1771082202400363300,7.68236328125,-0.0006657897611148655,-0.0002663159102667123,0.0023968431632965803
1771082202410304300,7.69230419921875,-0.0006657897611148655,-0.001331579522229731,0.0023968431632965803
1771082202420245000,7.702244873046875,-0.0006657897611148655,0.0018642114009708166,0.0034621069207787514
1771082202430186000,7.71218603515625,-0.0017310534603893757,-0.0023968431632965803,0.001331579522229731
1771082202440126700,7.722126708984375,0.0003994738799519837,-0.0002663159102667123,0.001331579522229731
1771082202450067500,7.7320673828125,-0.0006657897611148655,-0.0002663159102667123,0.0023968431632965803
1771082202460008400,7.742008544921875,-0.0006657897611148655,-0.001331579522229731,0.0023968431632965803
1771082202469949200,7.75194921875,-0.0006657897611148655,-0.0002663159102667123,0.0023968431632965803
1771082202479890200,7.76189013671875,-0.0006657897611148655,-0.0002663159102667123,0.0023968431632965803
1771082202489831000,7.771830810546875,-0.0017310534603893757,0.0007989477599039674,0.0023968431632965803
1771082202499771600,7.781771728515625,-0.0017310534603893757,-0.0002663159102667123,0.0023968431632965803
1771082202509712600,7.791712646484375,0.0003994738799519837,-0.0023968431632965803,0.0023968431632965803
1771082202519653400,7.8016533203125,-0.0006657897611148655,0.0007989477599039674,0.001331579522229731
1771082202529594000,7.811593994140625,-0.0017310534603893757,-0.0002663159102667123,0.0023968431632965803
1771082202539535000,7.82153515625,-0.0006657897611148655,-0.0023968431632965803,0.0023968431632965803
1771082202549475800,7.831475830078125,-0.0017310534603893757,0.0007989477599039674,0.0023968431632965803
1771082202569357600,7.851357666015625,-0.0017310534603893757,-0.0023968431632965803,0.0023968431632965803
1771082202579298300,7.86129833984375,-0.0006657897611148655,0.0007989477599039674,0.0023968431632965803
1771082202589239300,7.8712392578125,-0.0017310534603893757,0.0007989477599039674,0.001331579522229731
1771082202599180000,7.881179931640625,-0.0006657897611148655,-0.0023968431632965803,0.0034621069207787514
1771082202609120800,7.891120849609375,-0.0006657897611148655,0.0007989477599039674,0.0023968431632965803
1771082202619061800,7.901061767578125,-0.0006657897611148655,0.0007989477599039674,0.0034621069207787514
1771082202629002500,7.91100244140625,-0.0006657897611148655,-0.001331579522229731,0.0034621069207787514
1771082202638943500,7.920943603515625,-0.0006657897611148655,-0.0002663159102667123,0.0023968431632965803
1771082202648884200,7.93088427734375,-0.0017310534603893757,-0.0002663159102667123,0.0023968431632965803
1771082202668766000,7.950765869140625,-0.0006657897611148655,-0.001331579522229731,0.0023968431632965803
1771082202688647700,7.970647705078125,-0.0017310534603893757,0.0007989477599039674,0.0023968431632965803
1771082202698588400,7.98058837890625,-0.0006657897611148655,-0.0023968431632965803,0.0023968431632965803
1771082202718470100,8.00047021484375,-0.0006657897611148655,0.0007989477599039674,0.0023968431632965803
1771082202738351600,8.0203515625,-0.0017310534603893757,0.0018642114009708166,0.0034621069207787514
1771082202748292600,8.030292724609374,-0.0006657897611148655,0.0007989477599039674,0.0023968431632965803
1771082202758233300,8.0402333984375,-0.0017310534603893757,-0.0023968431632965803,0.0023968431632965803
1771082202768174300,8.05017431640625,-0.0017310534603893757,-0.0002663159102667123,0.0023968431632965803
1771082202788055800,8.070055908203125,-0.0006657897611148655,-0.001331579522229731,0.0023968431632965803
1771082202807937500,8.0899375,-0.0006657897611148655,0.0007989477599039674,0.0034621069207787514
1771082202817878300,8.099878173828126,-0.0006657897611148655,-0.001331579522229731,0.0023968431632965803
1771082202837760000,8.119760009765624,-0.0006657897611148655,-0.0002663159102667123,0.0023968431632965803
1771082202857641700,8.139641845703125,-0.0017310534603893757,-0.0002663159102667123,0.0023968431632965803
1771082202877523500,8.1595234375,-0.0006657897611148655,0.0007989477599039674,0.001331579522229731
1771082202887464200,8.169464111328125,-0.0006657897611148655,-0.001331579522229731,0.0023968431632965803
1771082202897405000,8.179405029296875,-0.0006657897611148655,-0.0023968431632965803,0.0023968431632965803
1771082202907346000,8.189345947265625,-0.0017310534603893757,0.0018642114009708166,0.0023968431632965803
1771082202917286700,8.19928662109375,-0.0006657897611148655,-0.001331579522229731,0.0034621069207787514
1771082202937168400,8.21916845703125,-0.0006657897611148655,0.0018642114009708166,0.001331579522229731
1771082202957050000,8.239050048828124,-0.0006657897611148655,-0.0002663159102667123,0.0023968431632965803
1771082202966990800,8.248990966796875,-0.0017310534603893757,0.0018642114009708166,0.0023968431632965803
1771082202986872600,8.26887255859375,-0.0006657897611148655,-0.0002663159102667123,0.0023968431632965803
1771082203006754300,8.28875439453125,-0.0006657897611148655,-0.001331579522229731,0.0034621069207787514
1771082203016695000,8.298695068359375,-0.0006657897611148655,-0.0002663159102667123,0.0023968431632965803
1771082203026635800,8.3086357421875,-0.0006657897611148655,0.0007989477599039674,0.0023968431632965803
1771082203036576800,8.31857666015625,-0.0006657897611148655,-0.001331579522229731,0.0034621069207787514
1771082203046517500,8.328517578125,-0.0006657897611148655,-0.0002663159102667123,0.001331579522229731
1771082203056458500,8.33845849609375,-0.0006657897611148655,-0.0002663159102667123,0.0034621069207787514
1771082203066399200,8.348399169921874,-0.0017310534603893757,-0.0002663159102667123,0.0023968431632965803
1771082203076340000,8.358340087890625,-0.0006657897611148655,-0.0002663159102667123,0.001331579522229731
1771082203086281000,8.368281005859375,-0.0017310534603893757,-0.001331579522229731,0.0023968431632965803
1771082203096221700,8.3782216796875,-0.0006657897611148655,0.0018642114009708166,0.0023968431632965803
1771082203106162400,8.388162353515625,-0.0006657897611148655,-0.0002663159102667123,0.0034621069207787514
1771082203116103400,8.398103515625,-0.0006657897611148655,-0.0023968431632965803,0.0034621069207787514
1771082203126044200,8.408044189453125,-0.0006657897611148655,0.0018642114009708166,0.0023968431632965803
1771082203135985200,8.417985107421876,-0.0006657897611148655,-0.0002663159102667123,0.0034621069207787514
1771082203145926000,8.42792578125,-0.0006657897611148655,-0.0034621069207787514,0.0023968431632965803
1771082203165807600,8.4478076171875,-0.0006657897611148655,-0.001331579522229731,0.0023968431632965803
1771082203185689300,8.467689453125,-0.0006657897611148655,0.002929474925622344,0.0023968431632965803
1771082203205570800,8.48757080078125,-0.0006657897611148655,-0.0023968431632965803,0.0023968431632965803
1771082203215511800,8.49751171875,-0.0006657897611148655,0.002929474925622344,0.001331579522229731
1771082203235393300,8.517393310546876,-0.0017310534603893757,-0.0002663159102667123,0.0034621069207787514
1771082203245334300,8.527334228515626,-0.0006657897611148655,0.0018642114009708166,0.0023968431632965803
1771082203255275000,8.53727490234375,-0.0017310534603893757,-0.001331579522229731,0.0023968431632965803
1771082203265216000,8.547216064453124,-0.0017310534603893757,-0.0002663159102667123,0.001331579522229731
1771082203285097500,8.567097412109375,-0.0006657897611148655,-0.0023968431632965803,0.0023968431632965803
1771082203304979200,8.586979248046875,-0.0017310534603893757,-0.0002663159102667123,0.0023968431632965803
1771082203324861000,8.60686083984375,-0.0006657897611148655,-0.0002663159102667123,0.001331579522229731
1771082203344742700,8.62674267578125,-0.0006657897611148655,-0.0002663159102667123,0.0023968431632965803
1771082203354683400,8.636683349609376,-0.0006657897611148655,0.0007989477599039674,0.001331579522229731
1771082203384505900,8.666505859375,-0.0006657897611148655,-0.0002663159102667123,0.0023968431632965803
1771082203394446800,8.67644677734375,-0.0006657897611148655,-0.001331579522229731,0.0034621069207787514
1771082203404387600,8.6863876953125,-0.0006657897611148655,0.0007989477599039674,0.0023968431632965803
1771082203414328300,8.696328369140625,-0.0017310534603893757,-0.0002663159102667123,0.0034621069207787514
1771082203434210000,8.7162099609375,-0.0006657897611148655,0.0007989477599039674,0.0023968431632965803
1771082203454091800,8.736091796875,-0.0006657897611148655,-0.001331579522229731,0.0034621069207787514
1771082203464032500,8.746032470703126,-0.0006657897611148655,0.0007989477599039674,0.0023968431632965803
1771082203473973500,8.755973388671874,-0.0006657897611148655,0.0007989477599039674,0.0023968431632965803
1771082203483914200,8.765914306640624,-0.0006657897611148655,-0.0002663159102667123,0.0034621069207787514
1771082203503796000,8.7857958984375,-0.0017310534603893757,-0.0002663159102667123,0.0023968431632965803
1771082203523677400,8.805677490234375,-0.0006657897611148655,-0.0002663159102667123,0.0023968431632965803
1771082203543559200,8.82555908203125,-0.0006657897611148655,-0.001331579522229731,0.0023968431632965803
1771082203563441000,8.84544091796875,-0.0006657897611148655,-0.001331579522229731,0.0034621069207787514
1771082203583322600,8.865322509765624,-0.0006657897611148655,0.0007989477599039674,0.0023968431632965803
1771082203603204000,8.8852041015625,-0.0017310534603893757,-0.0002663159102667123,0.0023968431632965803
1771082203623085800,8.9050859375,-0.0006657897611148655,-0.001331579522229731,0.0023968431632965803
1771082203642967600,8.924967529296875,-0.0006657897611148655,0.0007989477599039674,0.0023968431632965803
1771082203662849000,8.94484912109375,-0.0017310534603893757,0.0018642114009708166,0.0023968431632965803
1771082203672790000,8.9547900390625,-0.0006657897611148655,-0.0002663159102667123,0.0023968431632965803
1771082203682730800,8.964730712890624,-0.0006657897611148655,-0.001331579522229731,0.0034621069207787514
1771082203692671500,8.97467138671875,-0.0006657897611148655,0.0018642114009708166,0.0023968431632965803
1771082203702612200,8.9846123046875,-0.0006657897611148655,-0.0002663159102667123,0.0023968431632965803
1771082203712553000,8.994552978515625,-0.0006657897611148655,-0.001331579522229731,0.001331579522229731
1771082203722493700,9.00449365234375,-0.0017310534603893757,0.0007989477599039674,0.0023968431632965803
1771082203742375400,9.02437548828125,-0.0017310534603893757,-0.0002663159102667123,0.0023968431632965803
1771082203752316200,9.034316162109375,-0.0006657897611148655,0.0018642114009708166,0.0023968431632965803
1771082203762257000,9.0442568359375,-0.0006657897611148655,-0.0002663159102667123,0.0023968431632965803
1771082203772197600,9.05419775390625,-0.0017310534603893757,-0.0002663159102667123,0.0023968431632965803
1771082203792079400,9.074079345703124,-0.0006657897611148655,-0.001331579522229731,0.0034621069207787514
1771082203811960800,9.0939609375,-0.0006657897611148655,0.0018642114009708166,0.001331579522229731
1771082203821901600,9.103901611328125,-0.0017310534603893757,-0.0023968431632965803,0.0034621069207787514
1771082203841783300,9.123783203125,-0.0006657897611148655,0.0018642114009708166,0.0023968431632965803
1771082203851724000,9.13372412109375,-0.0006657897611148655,-0.0023968431632965803,0.0034621069207787514
1771082203861664800,9.143664794921875,-0.0006657897611148655,0.0007989477599039674,0.0023968431632965803
1771082203871605500,9.15360546875,-0.0006657897611148655,0.0007989477599039674,0.0023968431632965803
1771082203881546200,9.163546142578125,-0.0017310534603893757,-0.0023968431632965803,0.0034621069207787514
1771082203891487000,9.173487060546876,-0.0006657897611148655,0.0007989477599039674,0.0023968431632965803
1771082203911368700,9.19336865234375,-0.0006657897611148655,-0.001331579522229731,0.0034621069207787514
1771082203921309400,9.203309326171874,-0.0006657897611148655,0.0007989477599039674,0.0023968431632965803
1771082203941191200,9.223191162109375,-0.0006657897611148655,-0.001331579522229731,0.0023968431632965803
1771082203951132000,9.2331318359375,-0.0006657897611148655,-0.0002663159102667123,0.0034621069207787514
1771082203961072600,9.24307275390625,-0.0017310534603893757,-0.0002663159102667123,0.0034621069207787514
1771082203971013600,9.253013671875,-0.0006657897611148655,-0.001331579522229731,0.0023968431632965803
1771082203980954400,9.262954345703125,-0.0006657897611148655,0.0007989477599039674,0.0023968431632965803
1771082203990895000,9.27289501953125,-0.0006657897611148655,-0.0002663159102667123,0.0023968431632965803
1771082204000836000,9.282836181640626,-0.0006657897611148655,-0.0002663159102667123,0.0023968431632965803
1771082204010776800,9.29277685546875,-0.0017310534603893757,0.0007989477599039674,0.0023968431632965803
1771082204020717800,9.3027177734375,-0.0006657897611148655,-0.0023968431632965803,0.0023968431632965803
1771082204030658600,9.312658447265624,-0.0006657897611148655,0.0007989477599039674,0.0023968431632965803
1771082204040599300,9.322599365234375,-0.0006657897611148655,0.0007989477599039674,0.0023968431632965803
1771082204050540300,9.332540283203125,-0.0017310534603893757,-0.0023968431632965803,0.0023968431632965803
1771082204060481000,9.34248095703125,-0.0006657897611148655,0.0007989477599039674,0.0023968431632965803
1771082204070421800,9.352421875,-0.0006657897611148655,0.0007989477599039674,0.0023968431632965803
1771082204080362800,9.36236279296875,-0.0006657897611148655,-0.001331579522229731,0.0023968431632965803
1771082204090303500,9.372303466796875,-0.0017310534603893757,0.0007989477599039674,0.0023968431632965803
1771082204100244500,9.382244384765626,-0.0006657897611148655,-0.0023968431632965803,0.0034621069207787514
1771082204110185200,9.392185302734376,-0.0006657897611148655,-0.001331579522229731,0.001331579522229731
1771082204120126000,9.4021259765625,-0.0006657897611148655,0.0007989477599039674,0.001331579522229731
1771082204130067000,9.41206689453125,-0.0006657897611148655,-0.0023968431632965803,0.0023968431632965803
1771082204140007700,9.422007568359374,-0.0006657897611148655,-0.0002663159102667123,0.0023968431632965803
1771082204149948700,9.43194873046875,-0.0017310534603893757,0.0007989477599039674,0.001331579522229731
1771082204159889400,9.441889404296875,-0.0006657897611148655,-0.001331579522229731,0.0023968431632965803
1771082204169830100,9.451830078125,-0.0006657897611148655,0.0007989477599039674,0.0023968431632965803
1771082204179771100,9.461771240234375,-0.0006657897611148655,0.0007989477599039674,0.0023968431632965803
1771082204189712000,9.4717119140625,-0.0006657897611148655,-0.001331579522229731,0.0034621069207787514
1771082204199652600,9.481652587890625,-0.0017310534603893757,-0.0002663159102667123,0.0034621069207787514
1771082204209593600,9.491593505859376,0.0003994738799519837,0.0007989477599039674,0.001331579522229731
1771082204219534300,9.501534423828126,-0.0017310534603893757,-0.001331579522229731,0.0023968431632965803
1771082204229475300,9.511475341796874,-0.0006657897611148655,-0.0002663159102667123,0.0023968431632965803
1771082204239416000,9.521416015625,-0.0006657897611148655,-0.0002663159102667123,0.001331579522229731
1771082204249356800,9.531356689453125,-0.0006657897611148655,-0.001331579522229731,0.0034621069207787514
1771082204259297800,9.5412978515625,-0.0006657897611148655,0.0007989477599039674,0.0023968431632965803
1771082204269238500,9.551238525390625,-0.0006657897611148655,-0.001331579522229731,0.0034621069207787514
1771082204279179300,9.56117919921875,0.0003994738799519837,-0.0002663159102667123,0.0023968431632965803
1771082204289120300,9.571120361328125,-0.0017310534603893757,-0.0002663159102667123,0.0023968431632965803
1771082204299061000,9.58106103515625,-0.0006657897611148655,-0.001331579522229731,0.0023968431632965803
1771082204309002000,9.591001953125,-0.0017310534603893757,-0.0002663159102667123,0.0023968431632965803
1771082204318942700,9.600942626953126,-0.0006657897611148655,0.0007989477599039674,0.0023968431632965803
1771082204328883500,9.610883544921874,-0.0017310534603893757,-0.0002663159102667123,0.0034621069207787514
1771082204338824400,9.620824462890624,-0.0006657897611148655,0.0007989477599039674,0.0034621069207787514
1771082204348765200,9.63076513671875,-0.0006657897611148655,-0.0002663159102667123,0.0023968431632965803
1771082204368647000,9.65064697265625,-0.0006657897611148655,0.0007989477599039674,0.0023968431632965803
1771082204378587600,9.660587646484375,-0.0017310534603893757,0.0007989477599039674,0.0023968431632965803
1771082204388528600,9.670528564453125,-0.0006657897611148655,-0.001331579522229731,0.0023968431632965803
1771082204408410000,9.69041015625,-0.0017310534603893757,-0.0002663159102667123,0.0034621069207787514
1771082204418351000,9.70035107421875,-0.0006657897611148655,-0.0002663159102667123,0.001331579522229731
1771082204428291800,9.710291748046876,-0.0006657897611148655,0.0018642114009708166,0.001331579522229731
1771082204438232800,9.72023291015625,-0.0006657897611148655,-0.001331579522229731,0.0023968431632965803
1771082204448173600,9.730173583984374,-0.0006657897611148655,0.0007989477599039674,0.0034621069207787514
1771082204458114300,9.7401142578125,-0.0006657897611148655,0.0007989477599039674,0.001331579522229731
1771082204468055300,9.75005517578125,-0.0006657897611148655,-0.0002663159102667123,0.001331579522229731
1771082204477996000,9.75999609375,-0.0006657897611148655,-0.001331579522229731,0.0023968431632965803
1771082204487936800,9.769936767578125,-0.0006657897611148655,-0.001331579522229731,0.0034621069207787514
1771082204497877800,9.779877685546875,-0.0006657897611148655,-0.0002663159102667123,0.0034621069207787514
1771082204507818500,9.789818603515625,-0.0006657897611148655,-0.0002663159102667123,0.0023968431632965803
1771082204517759500,9.799759521484376,-0.0006657897611148655,-0.0002663159102667123,0.0023968431632965803
1771082204527700200,9.8097001953125,-0.0006657897611148655,-0.0002663159102667123,0.0023968431632965803
1771082204537641000,9.819640869140626,-0.0017310534603893757,0.0007989477599039674,0.001331579522229731
1771082204557522700,9.839522705078124,-0.0006657897611148655,0.0007989477599039674,0.0023968431632965803
1771082204567463400,9.84946337890625,-0.0006657897611148655,0.0007989477599039674,0.0034621069207787514
1771082204577404400,9.859404296875,-0.0006657897611148655,-0.001331579522229731,0.0034621069207787514
1771082204587345200,9.86934521484375,-0.0017310534603893757,0.0007989477599039674,0.0023968431632965803
1771082204597286100,9.8792861328125,-0.0017310534603893757,-0.001331579522229731,0.0034621069207787514
1771082204607227000,9.889226806640625,-0.0006657897611148655,-0.0002663159102667123,0.0023968431632965803
1771082204617167600,9.899167724609375,-0.0006657897611148655,0.0007989477599039674,0.0023968431632965803
1771082204627108600,9.909108642578126,-0.0006657897611148655,-0.0002663159102667123,0.0023968431632965803
1771082204637049300,9.91904931640625,-0.0006657897611148655,-0.0002663159102667123,0.0023968431632965803
1771082204646990300,9.928990234375,-0.0006657897611148655,-0.0002663159102667123,0.0023968431632965803
1771082204656931000,9.93893115234375,-0.0017310534603893757,-0.0002663159102667123,0.0023968431632965803
1771082204666871800,9.948871826171874,-0.0006657897611148655,-0.001331579522229731,0.001331579522229731
1771082204676812800,9.958812744140625,-0.0006657897611148655,-0.0002663159102667123,0.0034621069207787514
1771082204686753500,9.96875341796875,-0.0006657897611148655,-0.0002663159102667123,0.0023968431632965803
1771082204696694300,9.9786943359375,-0.0006657897611148655,-0.0002663159102667123,0.0034621069207787514
1771082204706635300,9.98863525390625,-0.0006657897611148655,-0.0002663159102667123,0.0023968431632965803
1771082204716576000,9.998575927734375,-0.0006657897611148655,-0.0002663159102667123,0.0023968431632965803
1771082204726517000,10.00851708984375,-0.0006657897611148655,-0.0002663159102667123,0.0023968431632965803
1771082204736457700,10.018457763671876,-0.0006657897611148655,-0.0023968431632965803,0.0023968431632965803
1771082204746398500,10.0283984375,-0.0006657897611148655,0.0007989477599039674,0.0023968431632965803
1771082204756339500,10.03833935546875,-0.0006657897611148655,0.0007989477599039674,0.0034621069207787514
1771082204766280200,10.0482802734375,-0.0006657897611148655,-0.001331579522229731,0.0023968431632965803
1771082204776221000,10.058220947265625,-0.0006657897611148655,0.0007989477599039674,0.0023968431632965803
1771082204786162000,10.068161865234375,-0.0006657897611148655,-0.0002663159102667123,0.0023968431632965803
1771082204796102700,10.0781025390625,-0.0017310534603893757,-0.001331579522229731,0.0023968431632965803
1771082204806043600,10.088043701171875,-0.0017310534603893757,-0.0002663159102667123,0.0023968431632965803
1771082204815984400,10.097984375,-0.0017310534603893757,-0.0002663159102667123,0.0023968431632965803
1771082204825925000,10.107925048828125,-0.0006657897611148655,-0.0002663159102667123,0.0034621069207787514
1771082204835866000,10.1178662109375,-0.0017310534603893757,-0.0002663159102667123,0.0034621069207787514
1771082204845806800,10.127806884765626,-0.0006657897611148655,0.0007989477599039674,0.0023968431632965803
1771082204855747600,10.13774755859375,-0.0017310534603893757,-0.0002663159102667123,0.0023968431632965803
1771082204865688600,10.1476884765625,-0.0017310534603893757,-0.0002663159102667123,0.0023968431632965803
1771082204875629300,10.15762939453125,-0.0006657897611148655,-0.0002663159102667123,0.0023968431632965803
1771082204885570300,10.1675703125,-0.0006657897611148655,-0.0002663159102667123,0.0023968431632965803
1771082204895511000,10.177510986328125,-0.0017310534603893757,-0.0002663159102667123,0.0023968431632965803
1771082204905451800,10.18745166015625,-0.0006657897611148655,0.0007989477599039674,0.0034621069207787514
1771082204915392800,10.197392822265625,-0.0006657897611148655,-0.0002663159102667123,0.0034621069207787514
1771082204925333500,10.20733349609375,-0.0017310534603893757,-0.0002663159102667123,0.0023968431632965803
1771082204935274500,10.2172744140625,-0.0006657897611148655,0.0007989477599039674,0.0034621069207787514
1771082204955156000,10.237156005859376,-0.0006657897611148655,-0.0002663159102667123,0.0034621069207787514
1771082204975037700,10.25703759765625,0.0003994738799519837,-0.0002663159102667123,0.0023968431632965803
1771082204984978400,10.266978515625,-0.0017310534603893757,-0.0002663159102667123,0.0023968431632965803
1771082204994919400,10.27691943359375,-0.0006657897611148655,-0.001331579522229731,0.0034621069207787514
1771082205004860200,10.286860107421875,-0.0006657897611148655,0.0007989477599039674,0.0023968431632965803
1771082205014801200,10.29680126953125,-0.0006657897611148655,-0.0002663159102667123,0.0034621069207787514
1771082205024742000,10.306741943359375,-0.0006657897611148655,-0.0002663159102667123,0.0023968431632965803
1771082205034682600,10.3166826171875,-0.0017310534603893757,-0.0002663159102667123,0.0023968431632965803
1771082205044623600,10.32662353515625,-0.0006657897611148655,-0.0002663159102667123,0.0023968431632965803
1771082205054564400,10.336564453125,-0.0006657897611148655,0.0007989477599039674,0.0034621069207787514
1771082205064505000,10.346505126953126,-0.0017310534603893757,-0.001331579522229731,0.001331579522229731
1771082205074446000,10.356446044921874,-0.0006657897611148655,-0.0002663159102667123,0.0023968431632965803
1771082205084386800,10.36638671875,-0.0006657897611148655,-0.0002663159102667123,0.0023968431632965803
1771082205094327800,10.376327880859375,-0.0017310534603893757,-0.0002663159102667123,0.0023968431632965803
1771082205104268500,10.3862685546875,-0.0006657897611148655,-0.001331579522229731,0.0023968431632965803
1771082205114209300,10.396209228515625,-0.0006657897611148655,-0.0002663159102667123,0.0034621069207787514
1771082205124150300,10.406150390625,-0.0006657897611148655,-0.0002663159102667123,0.001331579522229731
1771082205134091000,10.416091064453125,-0.0006657897611148655,-0.0002663159102667123,0.0034621069207787514
1771082205144031700,10.42603173828125,-0.0017310534603893757,0.0007989477599039674,0.0034621069207787514
1771082205153972500,10.435972412109376,-0.0006657897611148655,-0.0002663159102667123,0.0023968431632965803
1771082205163913200,10.445913330078126,0.0003994738799519837,-0.0002663159102667123,0.0023968431632965803
1771082205173854000,10.45585400390625,-0.0017310534603893757,0.0007989477599039674,0.0023968431632965803
1771082205183795000,10.465794921875,-0.0017310534603893757,0.0007989477599039674,0.0023968431632965803
1771082205193735700,10.475735595703124,-0.0017310534603893757,-0.0002663159102667123,0.0023968431632965803
1771082205203676400,10.485676513671875,-0.0006657897611148655,-0.0002663159102667123,0.0034621069207787514
1771082205213617200,10.4956171875,-0.0006657897611148655,-0.0002663159102667123,0.0034621069207787514
1771082205223558000,10.505557861328125,-0.0017310534603893757,-0.0002663159102667123,0.001331579522229731
1771082205233499000,10.515498779296875,-0.0006657897611148655,-0.001331579522229731,0.0023968431632965803
1771082205253380400,10.53538037109375,-0.0006657897611148655,-0.0002663159102667123,0.0023968431632965803
1771082205263321000,10.545321044921875,-0.0017310534603893757,-0.0002663159102667123,0.0023968431632965803
1771082205273261800,10.55526171875,-0.0006657897611148655,-0.0002663159102667123,0.0023968431632965803
1771082205283202600,10.56520263671875,-0.0017310534603893757,-0.0002663159102667123,0.001331579522229731
1771082205293143600,10.5751435546875,-0.0006657897611148655,0.0007989477599039674,0.0034621069207787514
1771082205303084300,10.585084228515624,-0.0006657897611148655,-0.0002663159102667123,0.0034621069207787514
1771082205313025000,10.59502490234375,-0.0006657897611148655,-0.0002663159102667123,0.0023968431632965803
1771082205322965800,10.6049658203125,-0.0006657897611148655,-0.0002663159102667123,0.0023968431632965803
1771082205332906500,10.614906494140625,-0.0006657897611148655,-0.0002663159102667123,0.0023968431632965803
1771082205342847200,10.62484716796875,-0.0006657897611148655,-0.0002663159102667123,0.0023968431632965803
1771082205352788200,10.634788330078125,-0.0006657897611148655,-0.001331579522229731,0.0034621069207787514
1771082205362729000,10.64472900390625,-0.0006657897611148655,-0.0002663159102667123,0.0023968431632965803
1771082205372669700,10.654669677734375,-0.0017310534603893757,-0.0002663159102667123,0.0034621069207787514
1771082205382610400,10.6646103515625,-0.0017310534603893757,-0.0002663159102667123,0.0023968431632965803
1771082205392551200,10.67455126953125,-0.0017310534603893757,0.0007989477599039674,0.0023968431632965803
1771082205402492200,10.6844921875,-0.0017310534603893757,-0.0002663159102667123,0.0023968431632965803
1771082205412433000,10.694432861328124,-0.0006657897611148655,0.0007989477599039674,0.0023968431632965803
1771082205422373600,10.70437353515625,-0.0006657897611148655,-0.0002663159102667123,0.0023968431632965803
1771082205432314400,10.714314453125,-0.0006657897611148655,0.0007989477599039674,0.0023968431632965803
1771082205442255000,10.724255126953125,-0.0006657897611148655,-0.001331579522229731,0.001331579522229731
1771082205452196000,10.734196044921875,-0.0006657897611148655,-0.0002663159102667123,0.0034621069207787514
1771082205462136800,10.74413671875,-0.0017310534603893757,-0.0002663159102667123,0.0023968431632965803
1771082205472077600,10.75407763671875,-0.0006657897611148655,-0.0002663159102667123,0.0023968431632965803
1771082205482018600,10.7640185546875,-0.0017310534603893757,-0.001331579522229731,0.0034621069207787514
1771082205491959300,10.773959228515626,-0.0006657897611148655,-0.0002663159102667123,0.0023968431632965803
1771082205501900300,10.783900390625,-0.0006657897611148655,-0.0002663159102667123,0.001331579522229731
1771082205511841000,10.793841064453124,-0.0006657897611148655,-0.001331579522229731,0.0034621069207787514
1771082205521781800,10.80378173828125,-0.0017310534603893757,0.0007989477599039674,0.0023968431632965803
1771082205531722800,10.81372265625,-0.0017310534603893757,-0.001331579522229731,0.0023968431632965803
1771082205541663500,10.82366357421875,-0.0017310534603893757,-0.001331579522229731,0.0023968431632965803
1771082205551604200,10.833604248046875,-0.0006657897611148655,-0.0002663159102667123,0.0023968431632965803
1771082205561545200,10.843545166015625,-0.0017310534603893757,-0.0002663159102667123,0.0023968431632965803
1771082205571486000,10.85348583984375,-0.0006657897611148655,-0.0002663159102667123,0.0023968431632965803
1771082205581427000,10.863427001953125,-0.0006657897611148655,0.0007989477599039674,0.0023968431632965803
1771082205601308400,10.883308349609376,-0.0017310534603893757,-0.0002663159102667123,0.0023968431632965803
1771082205611249400,10.89324951171875,-0.0006657897611148655,0.0007989477599039674,0.0023968431632965803
1771082205621190100,10.903190185546874,-0.0006657897611148655,-0.0002663159102667123,0.0023968431632965803
1771082205631131000,10.913130859375,-0.0017310534603893757,-0.0002663159102667123,0.0023968431632965803
1771082205641071900,10.92307177734375,-0.0006657897611148655,0.0007989477599039674,0.0023968431632965803
1771082205651012600,10.9330126953125,-0.0006657897611148655,-0.0002663159102667123,0.0034621069207787514
1771082205660953600,10.94295361328125,-0.0006657897611148655,-0.001331579522229731,0.0023968431632965803
1771082205670894300,10.952894287109375,-0.0017310534603893757,-0.0002663159102667123,0.0023968431632965803
1771082205680835000,10.9628349609375,-0.0006657897611148655,-0.0002663159102667123,0.0034621069207787514
1771082205690776000,10.972776123046875,-0.0017310534603893757,-0.0002663159102667123,0.0023968431632965803
1771082205700716800,10.982716796875,-0.0006657897611148655,-0.001331579522229731,0.0023968431632965803
1771082205710657500,10.992657470703126,-0.0006657897611148655,-0.0002663159102667123,0.0023968431632965803
1771082205720598500,11.0025986328125,-0.0006657897611148655,-0.0002663159102667123,0.0023968431632965803
1771082205730539300,11.012539306640624,-0.0006657897611148655,-0.0002663159102667123,0.0023968431632965803
1771082205750421000,11.0324208984375,-0.0006657897611148655,0.0007989477599039674,0.0023968431632965803
1771082205760361700,11.04236181640625,-0.0006657897611148655,-0.0002663159102667123,0.0023968431632965803
1771082205770302700,11.052302734375,-0.0006657897611148655,0.0018642114009708166,0.0023968431632965803
1771082205780243500,11.062243408203125,-0.0006657897611148655,-0.0002663159102667123,0.0023968431632965803
1771082205790184400,11.072184326171875,-0.0006657897611148655,-0.001331579522229731,0.0034621069207787514
1771082205800125200,11.082125244140625,-0.0006657897611148655,-0.0002663159102667123,0.0023968431632965803
1771082205810066000,11.09206591796875,-0.0006657897611148655,-0.0002663159102667123,0.0023968431632965803
1771082205820007000,11.1020068359375,-0.0006657897611148655,-0.0002663159102667123,0.001331579522229731
1771082205829947600,11.11194775390625,-0.0006657897611148655,-0.0002663159102667123,0.0034621069207787514
1771082205839888400,11.121888427734374,-0.0006657897611148655,-0.001331579522229731,0.0023968431632965803
1771082205849829400,11.131829345703125,-0.0006657897611148655,0.0007989477599039674,0.0023968431632965803
1771082205859770000,11.14177001953125,-0.0006657897611148655,-0.0002663159102667123,0.0034621069207787514
1771082205869711000,11.151711181640625,-0.0017310534603893757,-0.0002663159102667123,0.0023968431632965803
1771082205879651800,11.16165185546875,-0.0006657897611148655,-0.0002663159102667123,0.0034621069207787514
1771082205889592600,11.171592529296875,-0.0006657897611148655,-0.0002663159102667123,0.0023968431632965803
1771082205899533600,11.181533447265625,-0.0006657897611148655,-0.0002663159102667123,0.0023968431632965803
1771082205909474300,11.191474365234376,-0.0006657897611148655,-0.0002663159102667123,0.0034621069207787514
1771082205919415000,11.2014150390625,-0.0006657897611148655,-0.0002663159102667123,0.0023968431632965803
1771082205929356000,11.21135595703125,-0.0006657897611148655,-0.0002663159102667123,0.0023968431632965803
1771082205939296800,11.221296875,-0.0006657897611148655,0.0007989477599039674,0.0023968431632965803
1771082205949237800,11.23123779296875,-0.0006657897611148655,-0.0002663159102667123,0.0023968431632965803
1771082205959178500,11.241178466796875,-0.0006657897611148655,0.0007989477599039674,0.0023968431632965803
1771082205969119200,11.251119140625,-0.0006657897611148655,-0.0002663159102667123,0.0023968431632965803
1771082205979060200,11.261060302734375,-0.0017310534603893757,-0.0002663159102667123,0.0034621069207787514
1771082205989001000,11.2710009765625,-0.0006657897611148655,0.0007989477599039674,0.0023968431632965803
1771082205998942000,11.28094189453125,0.0003994738799519837,-0.001331579522229731,0.0034621069207787514
1771082206008882700,11.290882568359375,-0.0006657897611148655,0.0007989477599039674,0.0023968431632965803
1771082206018823400,11.300823486328126,-0.0006657897611148655,-0.0002663159102667123,0.0023968431632965803
1771082206028764400,11.310764404296876,-0.0006657897611148655,-0.001331579522229731,0.0023968431632965803
1771082206038705200,11.320705078125,-0.0006657897611148655,0.0007989477599039674,0.001331579522229731
1771082206048646000,11.33064599609375,-0.0006657897611148655,-0.0002663159102667123,0.001331579522229731
1771082206058587000,11.3405869140625,-0.0006657897611148655,-0.0002663159102667123,0.0023968431632965803
1771082206068527600,11.350527587890625,-0.0006657897611148655,0.0007989477599039674,0.0023968431632965803
1771082206078468600,11.360468505859375,-0.0006657897611148655,-0.0002663159102667123,0.0023968431632965803
1771082206088409300,11.370409423828125,-0.0006657897611148655,-0.0002663159102667123,0.0023968431632965803
1771082206098350000,11.38035009765625,-0.0006657897611148655,-0.0002663159102667123,0.0034621069207787514
1771082206108291000,11.390291015625,-0.0006657897611148655,0.0007989477599039674,0.0023968431632965803
1771082206118231800,11.400231689453125,-0.0006657897611148655,-0.0002663159102667123,0.001331579522229731
1771082206128172500,11.410172607421876,-0.0006657897611148655,-0.001331579522229731,0.0034621069207787514
1771082206138113500,11.420113525390626,-0.0006657897611148655,-0.001331579522229731,0.001331579522229731
1771082206148054300,11.43005419921875,-0.0017310534603893757,-0.0002663159102667123,0.0023968431632965803
1771082206157995300,11.439995361328124,-0.0006657897611148655,-0.0002663159102667123,0.0023968431632965803
1771082206167936000,11.44993603515625,-0.0006657897611148655,-0.0002663159102667123,0.0023968431632965803
1771082206177876700,11.459876708984375,-0.0006657897611148655,-0.0002663159102667123,0.0023968431632965803
1771082206187817700,11.469817626953125,-0.0006657897611148655,-0.001331579522229731,0.001331579522229731
1771082206197758500,11.479758544921875,-0.0006657897611148655,0.0007989477599039674,0.0023968431632965803
1771082206207699200,11.48969921875,-0.0017310534603893757,-0.001331579522229731,0.0023968431632965803
1771082206217640200,11.49964013671875,-0.0017310534603893757,-0.001331579522229731,0.0023968431632965803
1771082206227581000,11.509580810546876,-0.0006657897611148655,-0.0002663159102667123,0.0023968431632965803
1771082206237522000,11.51952197265625,-0.0017310534603893757,-0.0002663159102667123,0.0023968431632965803
1771082206247462700,11.529462646484374,-0.0006657897611148655,-0.0002663159102667123,0.0023968431632965803
1771082206257403400,11.5394033203125,-0.0006657897611148655,0.0007989477599039674,0.0034621069207787514
1771082206267344100,11.54934423828125,-0.0017310534603893757,-0.001331579522229731,0.0034621069207787514
1771082206277285000,11.55928515625,-0.0006657897611148655,-0.0002663159102667123,0.0023968431632965803
1771082206287225900,11.569225830078125,-0.0006657897611148655,0.0007989477599039674,0.0023968431632965803
1771082206297166600,11.57916650390625,-0.0017310534603893757,-0.001331579522229731,0.0023968431632965803
1771082206307107300,11.589107421875,-0.0006657897611148655,-0.0002663159102667123,0.0023968431632965803
1771082206317048000,11.599048095703125,-0.0006657897611148655,-0.0002663159102667123,0.0023968431632965803
1771082206326988800,11.60898876953125,0.0003994738799519837,-0.0002663159102667123,0.0023968431632965803
1771082206336929800,11.6189296875,-0.0017310534603893757,-0.001331579522229731,0.0023968431632965803
1771082206346870500,11.62887060546875,-0.0006657897611148655,-0.0002663159102667123,0.0034621069207787514
1771082206356811300,11.638811279296876,-0.0006657897611148655,-0.0002663159102667123,0.0034621069207787514
1771082206366752000,11.648751953125,-0.0006657897611148655,0.0007989477599039674,0.0034621069207787514
1771082206386633500,11.668633544921875,-0.0017310534603893757,0.0007989477599039674,0.0023968431632965803
1771082206406515200,11.68851513671875,-0.0006657897611148655,0.0007989477599039674,0.001331579522229731
1771082206416456000,11.6984560546875,-0.0017310534603893757,0.0007989477599039674,0.0023968431632965803
1771082206426396700,11.708396728515625,-0.0006657897611148655,-0.0002663159102667123,0.0023968431632965803
1771082206436337400,11.71833740234375,-0.0017310534603893757,0.0007989477599039674,0.0023968431632965803
1771082206446278400,11.7282783203125,-0.0017310534603893757,0.0007989477599039674,0.0023968431632965803
1771082206456219100,11.73821923828125,-0.0006657897611148655,0.0007989477599039674,0.0034621069207787514
1771082206466159900,11.748159912109376,-0.0017310534603893757,-0.0002663159102667123,0.0034621069207787514
1771082206476100600,11.7581005859375,-0.0006657897611148655,-0.0002663159102667123,0.0023968431632965803
1771082206486041300,11.768041259765624,-0.0006657897611148655,-0.0002663159102667123,0.0034621069207787514
1771082206495982000,11.777982177734375,-0.0006657897611148655,-0.0002663159102667123,0.0034621069207787514
1771082206505923000,11.787923095703125,-0.0006657897611148655,-0.0002663159102667123,0.0023968431632965803
1771082206515863800,11.79786376953125,-0.0006657897611148655,0.0007989477599039674,0.0023968431632965803
1771082206525804500,11.807804443359375,-0.0006657897611148655,-0.001331579522229731,0.0023968431632965803
1771082206535745300,11.817745361328125,-0.0006657897611148655,-0.0002663159102667123,0.0023968431632965803
1771082206545686000,11.82768603515625,-0.0006657897611148655,0.0007989477599039674,0.0034621069207787514
1771082206565567700,11.847567626953126,-0.0006657897611148655,-0.0002663159102667123,0.0023968431632965803
1771082206575508500,11.857508544921876,-0.0017310534603893757,-0.0002663159102667123,0.0034621069207787514
1771082206595390000,11.877389892578124,-0.0017310534603893757,-0.0002663159102667123,0.0023968431632965803
1771082206615271700,11.897271728515625,-0.0017310534603893757,-0.0002663159102667123,0.0023968431632965803
1771082206635153200,11.917153076171875,-0.0006657897611148655,-0.0002663159102667123,0.0023968431632965803
1771082206645094100,11.92709423828125,-0.0006657897611148655,0.0007989477599039674,0.0023968431632965803
1771082206655035000,11.937034912109375,-0.0006657897611148655,0.0007989477599039674,0.0034621069207787514
1771082206664975600,11.9469755859375,-0.0006657897611148655,-0.0002663159102667123,0.0023968431632965803
1771082206674916600,11.95691650390625,-0.0017310534603893757,0.0007989477599039674,0.0023968431632965803
1771082206684857300,11.966857421875,-0.0006657897611148655,-0.0002663159102667123,0.0034621069207787514
1771082206694798300,11.97679833984375,-0.0006657897611148655,-0.0002663159102667123,0.0023968431632965803
1771082206714679800,11.9966796875,-0.0017310534603893757,0.0007989477599039674,0.0034621069207787514
1771082206734561500,12.0165615234375,-0.0006657897611148655,-0.0002663159102667123,0.0023968431632965803
1771082206744502300,12.026502197265625,-0.0017310534603893757,-0.0002663159102667123,0.0023968431632965803
1771082206754443300,12.036443359375,-0.0017310534603893757,0.0007989477599039674,0.0023968431632965803
1771082206774325000,12.056324951171876,-0.0006657897611148655,-0.0002663159102667123,0.0023968431632965803
1771082206784265700,12.066265625,-0.0017310534603893757,0.0007989477599039674,0.0023968431632965803
1771082206804147500,12.0861474609375,-0.0006657897611148655,-0.0002663159102667123,0.0023968431632965803
1771082206814088200,12.096088134765624,-0.0017310534603893757,0.0007989477599039674,0.0023968431632965803
1771082206824029200,12.106029296875,-0.0006657897611148655,-0.0002663159102667123,0.0023968431632965803
1771082206843910700,12.12591064453125,-0.0006657897611148655,-0.001331579522229731,0.001331579522229731
1771082206863792400,12.14579248046875,-0.0006657897611148655,-0.0002663159102667123,0.0023968431632965803
1771082206873733000,12.155733154296875,-0.0017310534603893757,-0.0002663159102667123,0.0023968431632965803
1771082206893614800,12.17561474609375,-0.0006657897611148655,0.0007989477599039674,0.001331579522229731
1771082206903555800,12.185555908203124,-0.0006657897611148655,-0.0002663159102667123,0.0023968431632965803
1771082206923437300,12.205437255859374,-0.0006657897611148655,0.0007989477599039674,0.0023968431632965803
1771082206933378300,12.21537841796875,-0.0017310534603893757,-0.0002663159102667123,0.0034621069207787514
1771082206943319000,12.225319091796875,-0.0017310534603893757,0.0007989477599039674,0.0023968431632965803
1771082206953259800,12.235259765625,-0.0017310534603893757,-0.0002663159102667123,0.0034621069207787514
1771082206963200800,12.24520068359375,-0.0006657897611148655,-0.0002663159102667123,0.0023968431632965803
1771082206973141500,12.2551416015625,-0.0006657897611148655,0.0007989477599039674,0.0023968431632965803
1771082206983082500,12.26508251953125,-0.0006657897611148655,-0.0002663159102667123,0.0023968431632965803
1771082206993023200,12.275023193359376,-0.0006657897611148655,-0.0002663159102667123,0.0034621069207787514
1771082207002964000,12.2849638671875,-0.0006657897611148655,0.0007989477599039674,0.0023968431632965803
1771082207012905000,12.294905029296874,-0.0017310534603893757,-0.001331579522229731,0.0023968431632965803
1771082207022845700,12.304845703125,-0.0006657897611148655,-0.0002663159102667123,0.0023968431632965803
1771082207032786700,12.31478662109375,-0.0006657897611148655,0.0007989477599039674,0.0023968431632965803
1771082207042727400,12.3247275390625,-0.0006657897611148655,-0.0002663159102667123,0.0023968431632965803
1771082207052668200,12.334668212890625,-0.0006657897611148655,-0.0002663159102667123,0.0034621069207787514
1771082207072550000,12.3545498046875,-0.0017310534603893757,-0.0002663159102667123,0.0034621069207787514
1771082207082490600,12.36449072265625,-0.0006657897611148655,0.0007989477599039674,0.0023968431632965803
1771082207092431600,12.374431640625,-0.0017310534603893757,-0.0002663159102667123,0.0023968431632965803
1771082207102372400,12.384372314453126,-0.0006657897611148655,-0.0002663159102667123,0.0023968431632965803
1771082207112313300,12.394313232421876,0.0003994738799519837,-0.001331579522229731,0.0023968431632965803
1771082207122254000,12.404254150390624,-0.0006657897611148655,-0.0002663159102667123,0.0023968431632965803
1771082207132194800,12.41419482421875,-0.0006657897611148655,-0.0002663159102667123,0.0034621069207787514
1771082207142135800,12.4241357421875,-0.0006657897611148655,-0.0002663159102667123,0.0023968431632965803
1771082207152076500,12.43407666015625,-0.0006657897611148655,-0.0002663159102667123,0.0023968431632965803
1771082207171958300,12.453958251953125,-0.0006657897611148655,-0.001331579522229731,0.0023968431632965803
1771082207181899000,12.46389892578125,-0.0006657897611148655,-0.0002663159102667123,0.0023968431632965803
1771082207191840000,12.473840087890625,-0.0006657897611148655,-0.0002663159102667123,0.0023968431632965803
1771082207201780700,12.48378076171875,-0.0006657897611148655,-0.0002663159102667123,0.0023968431632965803
1771082207211721500,12.493721435546876,-0.0006657897611148655,-0.001331579522229731,0.0023968431632965803
1771082207221662500,12.503662353515624,-0.0017310534603893757,-0.0002663159102667123,0.0023968431632965803
1771082207231603200,12.513603271484374,-0.0006657897611148655,-0.0002663159102667123,0.0034621069207787514
1771082207241544200,12.523544189453125,-0.0006657897611148655,-0.0002663159102667123,0.0034621069207787514
1771082207251485000,12.53348486328125,-0.0017310534603893757,0.0007989477599039674,0.0023968431632965803
1771082207261425700,12.54342578125,-0.0017310534603893757,0.0007989477599039674,0.0023968431632965803
1771082207271366700,12.55336669921875,-0.0006657897611148655,-0.0002663159102667123,0.0034621069207787514
1771082207281307400,12.563307373046875,-0.0006657897611148655,-0.0002663159102667123,0.0034621069207787514
1771082207291248000,12.573248046875,-0.0006657897611148655,-0.001331579522229731,0.001331579522229731
1771082207301188900,12.58318896484375,-0.0017310534603893757,-0.0002663159102667123,0.0034621069207787514
1771082207311129600,12.593129638671876,-0.0006657897611148655,-0.0002663159102667123,0.0023968431632965803
1771082207321070600,12.603070556640626,-0.0006657897611148655,-0.0002663159102667123,0.0034621069207787514
1771082207331011300,12.61301123046875,-0.0006657897611148655,-0.0002663159102667123,0.0034621069207787514
1771082207340952000,12.6229521484375,-0.0006657897611148655,-0.0002663159102667123,0.0023968431632965803
1771082207350892800,12.632892822265624,-0.0017310534603893757,-0.0002663159102667123,0.0023968431632965803
1771082207360833500,12.64283349609375,-0.0006657897611148655,-0.0002663159102667123,0.0034621069207787514
1771082207380715300,12.66271533203125,-0.0017310534603893757,-0.001331579522229731,0.0034621069207787514
1771082207390656000,12.672656005859375,-0.0006657897611148655,-0.0002663159102667123,0.001331579522229731
1771082207400596700,12.6825966796875,-0.0006657897611148655,-0.0002663159102667123,0.0034621069207787514
1771082207410537500,12.692537353515625,-0.0006657897611148655,-0.0002663159102667123,0.0023968431632965803
1771082207420478200,12.702478271484376,-0.0006657897611148655,-0.0002663159102667123,0.0023968431632965803
1771082207430419000,12.7124189453125,-0.0006657897611148655,-0.0002663159102667123,0.0034621069207787514
1771082207440360000,12.72235986328125,-0.0006657897611148655,-0.0002663159102667123,0.0023968431632965803
1771082207450300700,12.73230078125,-0.0017310534603893757,-0.0002663159102667123,0.0023968431632965803
1771082207460241400,12.742241455078124,-0.0006657897611148655,-0.0002663159102667123,0.0023968431632965803
1771082207470182100,12.75218212890625,-0.0006657897611148655,0.0007989477599039674,0.0034621069207787514
1771082207480123000,12.762122802734375,-0.0017310534603893757,0.0007989477599039674,0.0023968431632965803
1771082207490064000,12.77206396484375,-0.0006657897611148655,-0.0002663159102667123,0.0034621069207787514
1771082207500004600,12.782004638671875,-0.0006657897611148655,-0.0002663159102667123,0.0023968431632965803
1771082207509945300,12.7919453125,-0.0006657897611148655,-0.0002663159102667123,0.0023968431632965803
1771082207519886000,12.801885986328125,-0.0006657897611148655,-0.0002663159102667123,0.0023968431632965803
1771082207529826800,12.811826904296876,-0.0006657897611148655,0.0007989477599039674,0.0034621069207787514
1771082207539767600,12.821767578125,-0.0006657897611148655,-0.0002663159102667123,0.0023968431632965803
