time,seconds_elapsed,z,y,x
1771072975415386000,0.11038623046875,0,0,0
1771072975425327400,0.120327392578125,0.03278160095214844,-0.016646981239318848,-0.015823811292648315
1771072975435268600,0.1302685546875,0.11379718780517578,-0.03690946102142334,-0.0029954612255096436
1771072975445209900,0.1402099609375,0.12277698516845703,-0.03578376770019531,0.013071522116661072
1771072975455151400,0.1501513671875,0.09054756164550781,-0.044579267501831055,0.03690612316131592
1771072975465092900,0.1600927734375,0.1833477020263672,-0.05641138553619385,0.04098737984895706
1771072975475034400,0.170034423828125,0.2642202377319336,-0.05241286754608154,0.038422808051109314
1771072975484976000,0.17997607421875,0.24850082397460938,-0.017168402671813965,0.00933624804019928
1771072975494917400,0.18991748046875,0.1641101837158203,0.028443574905395508,-0.012455806136131287
1771072975504858000,0.199858154296875,0.006234169006347656,0.03529214859008789,-0.0015191733837127686
1771072975514798800,0.209798828125,-0.15024662017822266,0.04811859130859375,-0.0033807456493377686
1771072975524739600,0.219739501953125,-0.16757583618164062,0.07715892791748047,0.02745603770017624
1771072975534680300,0.229680419921875,-0.10268592834472656,0.12891554832458496,0.0494542196393013
1771072975544621300,0.239621337890625,-0.1582927703857422,0.14181005954742432,0.04551126807928085
1771072975554562000,0.24956201171875,-0.15710926055908203,0.1279737949371338,0.04556022584438324
1771072975564502800,0.259502685546875,-0.14754962921142578,0.08728861808776855,0.033491283655166626
1771072975574443500,0.269443603515625,-0.10974788665771484,0.07119452953338623,0.035339731723070145
1771072975584384300,0.27938427734375,-0.07891368865966797,0.06734991073608398,0.060707785189151764
1771072975594325000,0.289324951171875,-0.04770183563232422,0.06646907329559326,0.06377317756414413
1771072975604266000,0.299265869140625,0.0068187713623046875,0.08429443836212158,0.09182634204626083
1771072975614206700,0.309206787109375,-0.000553131103515625,0.0767827033996582,0.13351917266845703
1771072975624147500,0.3191474609375,-0.039710044860839844,0.03647947311401367,0.13404154777526855
1771072975634088200,0.329088134765625,-0.05449485778808594,0.005948901176452637,0.1437738835811615
1771072975644029000,0.33902880859375,-0.0023069381713867188,0.007113099098205566,0.1898770034313202
1771072975653970000,0.348969970703125,0.10301971435546875,0.012436509132385254,0.24136464297771454
1771072975663910700,0.35891064453125,0.11256122589111328,0.016377687454223633,0.2813217043876648
1771072975673851400,0.368851318359375,0.13132858276367188,-0.010976910591125488,0.2675758898258209
1771072975683792100,0.378792236328125,0.20763683319091797,-0.03243911266326904,0.23850977420806885
1771072975693732900,0.38873291015625,0.2057027816772461,-0.03730428218841553,0.22927901148796082
1771072975703673600,0.398673583984375,0.014603614807128906,-0.04173576831817627,0.23994842171669006
1771072975713614600,0.408614501953125,-0.17255878448486328,-0.05593574047088623,0.27118343114852905
1771072975723555300,0.418555419921875,-0.2636861801147461,-0.03455686569213867,0.32043057680130005
1771072975733496000,0.42849609375,-0.22702598571777344,0.03993642330169678,0.3401639461517334
1771072975743436800,0.438436767578125,-0.17066001892089844,0.12571001052856445,0.3274078369140625
1771072975753377500,0.44837744140625,-0.14599990844726562,0.18892288208007812,0.3205246329307556
1771072975763318300,0.458318359375,-0.11473941802978516,0.22727036476135254,0.327741801738739
1771072975773259300,0.46825927734375,-0.19573593139648438,0.23408830165863037,0.3658575415611267
1771072975783200000,0.478199951171875,-0.3397340774536133,0.25813794136047363,0.37173348665237427
1771072975793140700,0.488140625,-0.5012578964233398,0.29614508152008057,0.3850226104259491
1771072975803081500,0.49808154296875,-0.5752744674682617,0.35182785987854004,0.48103970289230347
1771072975813022200,0.508022216796875,-0.5992841720581055,0.3725602626800537,0.5718663930892944
1771072975822963200,0.517963134765625,-0.5817527770996094,0.35129666328430176,0.6509051322937012
1771072975832904000,0.527904052734375,-0.3974285125732422,0.26392149925231934,0.6924676895141602
1771072975842844700,0.5378447265625,-0.14112091064453125,0.15850400924682617,0.6936192512512207
1771072975852785400,0.547785400390625,0.0922403335571289,0.016407012939453125,0.6279308795928955
1771072975862726100,0.55772607421875,0.35729217529296875,-0.13152587413787842,0.5612198114395142
1771072975872667000,0.5676669921875,0.6630859375,-0.25129806995391846,0.4914705753326416
1771072975882607900,0.57760791015625,0.9600076675415039,-0.3786414861679077,0.4131474494934082
1771072975892548600,0.587548583984375,1.227656364440918,-0.48340070247650146,0.32457447052001953
1771072975902489300,0.5974892578125,1.3710718154907227,-0.47796082496643066,0.2807995080947876
1771072975912430000,0.60743017578125,1.1795005798339844,-0.36183905601501465,0.3273252546787262
1771072975922370800,0.617370849609375,0.7838916778564453,-0.2289409637451172,0.34794989228248596
1771072975932311800,0.627311767578125,0.42269325256347656,-0.11579596996307373,0.3105786144733429
1771072975942252500,0.63725244140625,0.16066551208496094,0.015003442764282227,0.2649933695793152
1771072975952193300,0.647193359375,0.04498863220214844,0.09665703773498535,0.20535054802894592
1771072975962134000,0.657134033203125,0.040012359619140625,0.12109172344207764,0.1593741774559021
1771072975972074800,0.66707470703125,-0.0326690673828125,0.09668624401092529,0.103066086769104
1771072975982015500,0.677015380859375,-0.1555624008178711,0.03463780879974365,-0.032946646213531494
1771072975991956500,0.68695654296875,-0.24100112915039062,0.032793402671813965,-0.02199476957321167
1771072976011838000,0.706837890625,-0.6304464340209961,0.07009756565093994,0.07946658134460449
1771072976021778700,0.71677880859375,-0.7138757705688477,0.1218562126159668,0.16429662704467773
1771072976031719400,0.726719482421875,-0.7939891815185547,0.1983633041381836,0.2664961814880371
1771072976041660200,0.73666015625,-0.9013395309448242,0.2749972343444824,0.33151084184646606
1771072976051601200,0.74660107421875,-1.0047292709350586,0.3631703853607178,0.358108788728714
1771072976061542000,0.7565419921875,-1.064070701599121,0.4411855936050415,0.3497515916824341
1771072976071482600,0.766482666015625,-1.0987682342529297,0.5367368459701538,0.35542482137680054
1771072976081423400,0.77642333984375,-0.9249038696289062,0.5861046314239502,0.3305964171886444
1771072976091364000,0.786364013671875,-0.8382434844970703,0.5899986028671265,0.31189897656440735
1771072976101305000,0.79630517578125,-0.851780891418457,0.5684901475906372,0.2977563440799713
1771072976111245800,0.806245849609375,-0.8816137313842773,0.5534368753433228,0.3068184554576874
1771072976121186600,0.8161865234375,-0.9040098190307617,0.5977046489715576,0.30670490860939026
1771072976131127300,0.826127197265625,-0.9190807342529297,0.6511991024017334,0.30866920948028564
1771072976141068000,0.836068115234375,-0.8868598937988281,0.6647051572799683,0.2774810791015625
1771072976151008800,0.8460087890625,-0.8176050186157227,0.6537370681762695,0.25726330280303955
1771072976160949800,0.85594970703125,-0.7993965148925781,0.6218769550323486,0.24872839450836182
1771072976170890500,0.865890380859375,-0.7349786758422852,0.5968790054321289,0.22885096073150635
1771072976180831200,0.875831298828125,-0.5188703536987305,0.5726745128631592,0.1642177700996399
1771072976190772000,0.88577197265625,-0.3113889694213867,0.5370571613311768,0.09795451164245605
1771072976200712700,0.895712646484375,-0.09804058074951172,0.4797166585922241,0.07565498352050781
1771072976210653400,0.9056533203125,0.18764781951904297,0.4583324193954468,0.04997652769088745
1771072976220594400,0.915594482421875,0.36809349060058594,0.47901058197021484,0.010171771049499512
1771072976230535200,0.92553515625,0.4829988479614258,0.49626481533050537,-0.0009129047393798828
1771072976240476000,0.935475830078125,0.4695415496826172,0.4944329261779785,-0.019084692001342773
1771072976250416600,0.945416748046875,0.3435401916503906,0.515714168548584,-0.0068056583404541016
1771072976260357400,0.955357421875,0.12054252624511719,0.5647319555282593,-0.004194498062133789
1771072976270298400,0.96529833984375,-0.12506771087646484,0.6257818937301636,0.009697675704956055
1771072976280239000,0.975239013671875,-0.2513093948364258,0.7173169851303101,0.023370802402496338
1771072976290179800,0.985179931640625,-0.24794292449951172,0.8094512224197388,0.039485156536102295
1771072976300120600,0.99512060546875,-0.2515125274658203,0.8417755365371704,-0.01844257116317749
1771072976310061300,1.005061279296875,-0.13901233673095703,0.7781822681427002,-0.11611369252204895
1771072976320002000,1.015001953125,-0.09177875518798828,0.740742564201355,-0.09068897366523743
1771072976329943000,1.024943115234375,-0.14240360260009766,0.6865932941436768,-0.016740620136260986
1771072976349824500,1.044824462890625,-0.4048938751220703,0.5064802169799805,-0.4000706672668457
1771072976359765200,1.05476513671875,-1.1161785125732422,0.55918288230896,-0.274911105632782
1771072976369706000,1.0647060546875,-0.24878978729248047,0.7874083518981934,0.33921515941619873
1771072976379646700,1.074646728515625,0.8003759384155273,0.8073129653930664,0.8945263624191284
1771072976389587700,1.084587646484375,1.0176191329956055,0.6874788999557495,0.9853717088699341
1771072976399528400,1.094528564453125,0.6719245910644531,0.5373920202255249,0.658591091632843
1771072976409469200,1.10446923828125,0.612335205078125,0.48714113235473633,0.40376853942871094
1771072976419410000,1.114409912109375,0.4373359680175781,0.49113941192626953,0.28783923387527466
1771072976429350700,1.1243505859375,0.600346565246582,0.41804182529449463,0.16917216777801514
1771072976439291600,1.134291748046875,0.7893543243408203,0.3043910264968872,0.1436755657196045
1771072976449232400,1.144232421875,0.8069295883178711,0.1695622205734253,0.03722667694091797
1771072976459173000,1.154173095703125,0.7749843597412109,-0.017631173133850098,-0.25372442603111267
1771072976469113900,1.16411376953125,0.6795186996459961,-0.16044151782989502,-0.6660807728767395
1771072976479054600,1.1740546875,0.3839292526245117,-0.17341482639312744,-1.0204163789749146
1771072976488995300,1.183995361328125,-0.19262409210205078,0.024878501892089844,-1.1094437837600708
1771072976498936300,1.193936279296875,-0.748321533203125,0.33044397830963135,-0.9940214157104492
1771072976508877000,1.203876953125,-1.0266141891479492,0.60240638256073,-0.7601565718650818
1771072976518817800,1.21381787109375,-0.9847183227539062,0.8234611749649048,-0.4112028479576111
1771072976528758500,1.223758544921875,-0.5519313812255859,0.9526345729827881,-0.061946749687194824
1771072976538699300,1.23369921875,0.4516725540161133,0.8750519752502441,0.1898450255393982
1771072976548640000,1.243639892578125,1.5215187072753906,0.5523769855499268,0.41581112146377563
1771072976558581000,1.2535810546875,2.323105812072754,0.11907029151916504,0.4960649013519287
1771072976568521700,1.263521728515625,3.0275802612304688,-0.2947981357574463,0.15752440690994263
1771072976578462500,1.27346240234375,3.4674510955810547,-0.6031848788261414,-0.3543628454208374
1771072976588403200,1.2834033203125,3.364649772644043,-0.8772245049476624,-0.8425625562667847
1771072976598344000,1.293343994140625,2.518794059753418,-1.0106849670410156,-1.1316769123077393
1771072976608284700,1.30328466796875,1.4195232391357422,-0.9231379628181458,-1.2639105319976807
1771072976618225400,1.313225341796875,0.5099086761474609,-0.7525361776351929,-1.326217532157898
1771072976628166100,1.323166259765625,-0.29314708709716797,-0.5604140758514404,-1.3680998086929321
1771072976638107000,1.33310693359375,-0.7824583053588867,-0.3132956027984619,-1.3178414106369019
1771072976648047600,1.343047607421875,-0.7283515930175781,-0.0405353307723999,-1.1463665962219238
1771072976657988400,1.35298828125,-0.11847400665283203,0.13775885105133057,-0.8838766813278198
1771072976667929000,1.36292919921875,1.1128873825073242,0.11581254005432129,-0.5808408260345459
1771072976677869800,1.372869873046875,2.2454099655151367,-0.07016587257385254,-0.19809669256210327
1771072976687810300,1.382810302734375,2.8203554153442383,-0.3981274366378784,0.05926397442817688
1771072976697751000,1.3927509765625,2.873462677001953,-0.6829099655151367,0.08246903121471405
1771072976707691800,1.40269189453125,2.463080406188965,-0.8688648343086243,-0.18369519710540771
1771072976717632500,1.412632568359375,1.7869071960449219,-0.9505826830863953,-0.5423635840415955
1771072976727573200,1.4225732421875,1.0030498504638672,-0.9051007032394409,-0.7621825933456421
1771072976737514000,1.432513916015625,0.2946147918701172,-0.7741038799285889,-0.8632334470748901
1771072976747454700,1.442454833984375,-0.23953533172607422,-0.6746907234191895,-0.9245480895042419
1771072976757395500,1.4523955078125,-0.9291191101074219,-0.5851538181304932,-0.9995308518409729
1771072976767336200,1.462336181640625,-1.4054651260375977,-0.5111093521118164,-1.1664482355117798
1771072976777277000,1.47227685546875,-1.515981674194336,-0.41112852096557617,-1.2577918767929077
1771072976787217700,1.4822177734375,-1.5104188919067383,-0.2960526943206787,-1.1781684160232544
1771072976797158400,1.492158447265625,-1.4678544998168945,-0.19602906703948975,-1.04823637008667
1771072976807099100,1.50209912109375,-1.1884241104125977,-0.10890817642211914,-1.047560453414917
1771072976817040000,1.512039794921875,-0.8798904418945312,-0.028903722763061523,-0.9882258176803589
1771072976826980600,1.521980712890625,-0.6703615188598633,-0.043402910232543945,-0.8853009343147278
1771072976836921300,1.53192138671875,-0.5684270858764648,-0.19024085998535156,-0.804818868637085
1771072976846862000,1.541862060546875,-0.5781421661376953,-0.3536452054977417,-0.7319356203079224
1771072976856803000,1.551802978515625,-0.5683460235595703,-0.4625208377838135,-0.6885747909545898
1771072976866743800,1.561743896484375,-0.49422359466552734,-0.5160379409790039,-0.6730655431747437
1771072976876684500,1.5716845703125,-0.3942899703979492,-0.5428173542022705,-0.627234697341919
1771072976886625300,1.581625244140625,-0.5210332870483398,-0.5087481737136841,-0.4805012047290802
1771072976896566000,1.59156591796875,-0.9091386795043945,-0.38616943359375,-0.3021020293235779
1771072976906507000,1.601507080078125,-1.5075922012329102,-0.14243268966674805,-0.04237814247608185
1771072976916447700,1.61144775390625,-2.0924487113952637,0.11350870132446289,0.13709253072738647
1771072976926388500,1.621388427734375,-2.593827724456787,0.2677595615386963,0.20637722313404083
1771072976936329200,1.6313291015625,-2.4799227714538574,0.30826497077941895,0.16116493940353394
1771072976946270000,1.64127001953125,-2.0273284912109375,0.34875988960266113,0.11624594032764435
1771072976956210700,1.651210693359375,-1.460251808166504,0.335740327835083,0.08496896177530289
1771072976966151700,1.661151611328125,-1.0014104843139648,0.1704559326171875,-0.07377970218658447
1771072976976092400,1.671092529296875,-0.7039289474487305,-0.028414487838745117,-0.2239769846200943
1771072976986033200,1.681033203125,-0.6262044906616211,-0.1729450225830078,-0.2902805209159851
1771072976995974000,1.690973876953125,-0.6553230285644531,-0.25762486457824707,-0.4378700256347656
1771072977005914600,1.70091455078125,-0.5815820693969727,-0.17673802375793457,-0.524823009967804
1771072977015855400,1.71085546875,-0.4627084732055664,-0.06692910194396973,-0.5782257914543152
1771072977025796400,1.72079638671875,-0.43184661865234375,-0.06560707092285156,-0.6400477290153503
1771072977035737000,1.730737060546875,-0.5526237487792969,-0.13443899154663086,-0.641246497631073
1771072977045677800,1.740677734375,-0.6839237213134766,-0.2770683765411377,-0.6906939148902893
1771072977055618600,1.75061865234375,-0.730804443359375,-0.2919720411300659,-0.7535509467124939
1771072977065559300,1.760559326171875,-0.6678752899169922,-0.2453594207763672,-0.738436222076416
1771072977075500300,1.770500244140625,-0.5935211181640625,-0.20115089416503906,-0.5947571396827698
1771072977085441000,1.78044091796875,-0.3268394470214844,-0.04785466194152832,-0.36622828245162964
1771072977095381800,1.7903818359375,-0.09015750885009766,0.06585979461669922,-0.18865226209163666
1771072977105322500,1.800322509765625,0.12405872344970703,0.037198781967163086,-0.13894601166248322
1771072977115263200,1.81026318359375,0.3093528747558594,-0.03057718276977539,-0.15343926846981049
1771072977125204000,1.820203857421875,0.3093280792236328,-0.12298274040222168,-0.3269348740577698
1771072977135145000,1.83014501953125,0.1416454315185547,-0.1849508285522461,-0.5947707295417786
1771072977145085700,1.840085693359375,-0.1288909912109375,-0.16021299362182617,-0.7283498644828796
1771072977155026400,1.8500263671875,-0.34752559661865234,-0.1852405071258545,-0.7940518856048584
1771072977164967200,1.85996728515625,-0.5794286727905273,-0.19803738594055176,-0.7553841471672058
1771072977174908000,1.869907958984375,-0.6443138122558594,-0.17195773124694824,-0.5958497524261475
1771072977184848600,1.8798486328125,-0.43632984161376953,-0.143585205078125,-0.39631733298301697
1771072977194789600,1.88978955078125,-0.037606239318847656,-0.18287229537963867,-0.2191852331161499
1771072977204730400,1.89973046875,0.37261104583740234,-0.22368431091308594,-0.019161269068717957
1771072977214671000,1.909671142578125,0.7565469741821289,-0.2505629062652588,0.17305392026901245
1771072977224611800,1.91961181640625,1.4724559783935547,-0.24826788902282715,0.40752673149108887
1771072977234552600,1.929552490234375,1.833632469177246,-0.33251428604125977,0.43920260667800903
1771072977244493600,1.93949365234375,1.8132152557373047,-0.42872846126556396,0.14849168062210083
1771072977254434300,1.949434326171875,1.434469223022461,-0.4197300672531128,0.0726635754108429
1771072977264375000,1.959375,0.48683929443359375,-0.3727238178253174,0.11838886141777039
1771072977274315800,1.969315673828125,-0.35430908203125,-0.2761366367340088,0.18673869967460632
1771072977284256500,1.979256591796875,-0.7604837417602539,0.03273320198059082,0.557509183883667
1771072977294197200,1.989197265625,-0.5066146850585938,0.3315911293029785,1.0304070711135864
1771072977304138200,1.99913818359375,-0.04179859161376953,0.4117600917816162,1.370118498802185
1771072977314079000,2.009078857421875,0.4523448944091797,0.23203420639038086,1.4916369915008545
1771072977324019700,2.019019775390625,1.0413217544555664,-0.1038963794708252,1.4055529832839966
1771072977333960400,2.02896044921875,1.464400291442871,-0.5683668851852417,1.2578767538070679
1771072977343901200,2.038901123046875,2.016786575317383,-1.0067379474639893,1.0738346576690674
1771072977353842000,2.048842041015625,2.7326269149780273,-1.3456087112426758,0.6327372789382935
1771072977363783000,2.058782958984375,3.2456274032592773,-1.5934017896652222,-0.0302962064743042
1771072977373723600,2.0687236328125,3.3626794815063477,-1.712458848953247,-0.6255173087120056
1771072977383664400,2.078664306640625,2.723944664001465,-1.7267811298370361,-1.022895336151123
1771072977393605000,2.088605224609375,1.530289649963379,-1.6113672256469727,-1.1219801902770996
1771072977403545900,2.0985458984375,0.16406917572021484,-1.3409334421157837,-1.0739692449569702
1771072977413486800,2.10848681640625,-0.9757270812988281,-0.9265687465667725,-0.8553882837295532
1771072977423427600,2.118427490234375,-1.4581880569458008,-0.5233180522918701,-0.40384936332702637
1771072977433368300,2.128368408203125,-1.3778104782104492,-0.23010730743408203,0.22943665087223053
1771072977443309000,2.13830908203125,-0.882634162902832,-0.0058252811431884766,0.8591452836990356
1771072977453249800,2.148249755859375,-0.088287353515625,0.23220348358154297,1.3566722869873047
1771072977463190500,2.1581904296875,0.6637697219848633,0.3438255786895752,1.5471478700637817
1771072977473131500,2.168131591796875,1.230987548828125,0.21664214134216309,1.5338178873062134
1771072977483072300,2.178072265625,1.3281831741333008,-0.09564208984375,1.364325761795044
1771072977493013000,2.188012939453125,1.0190792083740234,-0.5058947801589966,1.0713673830032349
1771072977502953700,2.19795361328125,0.4601736068725586,-0.8813720941543579,0.5695796012878418
1771072977512894500,2.20789453125,-0.3139629364013672,-1.1947567462921143,0.08223065733909607
1771072977522835200,2.217835205078125,-1.2284784317016602,-1.4200470447540283,-0.199585422873497
1771072977532776200,2.227776123046875,-2.011176109313965,-1.5070196390151978,-0.33796483278274536
1771072977542717000,2.237717041015625,-2.4267659187316895,-1.4356474876403809,-0.37256333231925964
1771072977552657700,2.24765771484375,-2.4241952896118164,-1.2340383529663086,-0.4184502959251404
1771072977562598400,2.257598388671875,-2.221670627593994,-1.0442533493041992,-0.5911920666694641
1771072977572539100,2.2675390625,-2.0101656913757324,-0.8888781666755676,-0.691662073135376
1771072977582480100,2.277480224609375,-1.827408790588379,-0.6871259212493896,-0.6361901760101318
1771072977592420900,2.2874208984375,-1.6086883544921875,-0.4457530975341797,-0.4545159339904785
1771072977602361600,2.297361572265625,-1.439809799194336,-0.23064374923706055,-0.24673211574554443
1771072977612302300,2.30730224609375,-1.3779029846191406,-0.03642439842224121,-0.17995373904705048
1771072977622243000,2.3172431640625,-1.2963571548461914,0.09730923175811768,-0.24692784249782562
1771072977632183800,2.327183837890625,-1.3743162155151367,0.20802783966064453,-0.30680781602859497
1771072977642124800,2.337124755859375,-1.6449508666992188,0.3153650760650635,-0.27913063764572144
1771072977652065500,2.3470654296875,-1.8124175071716309,0.40360260009765625,-0.24576732516288757
1771072977662006300,2.35700634765625,-1.801231861114502,0.5057306289672852,-0.2102380096912384
1771072977671947000,2.366947021484375,-1.6243433952331543,0.620712399482727,-0.12928852438926697
1771072977681887700,2.3768876953125,-1.284815788269043,0.7221558094024658,-0.004837363958358765
1771072977691828700,2.386828857421875,-0.8593931198120117,0.6873290538787842,-0.007278710603713989
1771072977701769500,2.39676953125,-0.40523624420166016,0.5431226491928101,-0.11266690492630005
1771072977711710200,2.406710205078125,-0.16994667053222656,0.3447359800338745,-0.14286696910858154
1771072977721651000,2.41665087890625,-0.1262216567993164,0.16562175750732422,-0.09199432283639908
1771072977731591700,2.426591796875,0.036792755126953125,0.13630568981170654,0.012698784470558167
1771072977741532400,2.436532470703125,0.3211708068847656,0.19542527198791504,-0.02353663742542267
1771072977751473400,2.446473388671875,0.5549421310424805,0.25546300411224365,-0.12111533433198929
1771072977761414100,2.4564140625,0.7120342254638672,0.26417338848114014,-0.20953060686588287
1771072977771355000,2.46635498046875,0.8666105270385742,0.22197866439819336,-0.294136643409729
1771072977781295600,2.476295654296875,0.9638299942016602,0.11946117877960205,-0.3727993965148926
1771072977791236400,2.486236328125,1.0110692977905273,0.05700576305389404,-0.40642765164375305
1771072977801177000,2.496177001953125,0.9799318313598633,0.08936870098114014,-0.3992702066898346
1771072977811118000,2.5061181640625,0.9280462265014648,0.1680436134338379,-0.37911200523376465
1771072977821058800,2.516058837890625,0.8078603744506836,0.2544628381729126,-0.26908934116363525
1771072977830999600,2.52599951171875,0.6625556945800781,0.29632651805877686,-0.07253693044185638
1771072977840940300,2.535940185546875,0.5755910873413086,0.27069175243377686,0.1756439208984375
1771072977850881000,2.545881103515625,0.5728216171264648,0.19546055793762207,0.39632004499435425
1771072977860822000,2.555822021484375,0.8040437698364258,0.08338916301727295,0.5196254253387451
1771072977870762800,2.5657626953125,1.3327875137329102,0.010234594345092773,0.3969564139842987
1771072977880703500,2.575703369140625,1.7263851165771484,0.13894009590148926,0.07218585163354874
1771072977890644200,2.585644287109375,1.3534202575683594,0.29705381393432617,-0.19052958488464355
1771072977900585000,2.5955849609375,0.5003452301025391,0.33731675148010254,-0.16255605220794678
1771072977910525700,2.605525634765625,-0.6363201141357422,0.3521120548248291,0.27408891916275024
1771072977920466700,2.615466796875,-1.3200950622558594,0.5360324382781982,0.9160165786743164
1771072977930407400,2.625407470703125,-1.0004663467407227,0.7963054180145264,1.3576829433441162
1771072977940348200,2.63534814453125,0.2668876647949219,0.8368686437606812,1.516726016998291
1771072977950289000,2.645288818359375,1.9123449325561523,0.44796323776245117,1.5245285034179688
1771072977960229600,2.655229736328125,3.0033836364746094,-0.22713744640350342,1.5645948648452759
1771072977970170400,2.66517041015625,3.9937753677368164,-0.8317170143127441,1.311760663986206
1771072977980111400,2.675111328125,4.858451843261719,-1.3416035175323486,0.6724207401275635
1771072977990052000,2.685052001953125,4.978084564208984,-1.7114254236221313,-0.2246764898300171
1771072977999992800,2.694992919921875,4.224337577819824,-1.9336018562316895,-1.048640489578247
1771072978009933600,2.70493359375,2.762674331665039,-1.8521466255187988,-1.3440346717834473
1771072978019874300,2.714874267578125,1.1176252365112305,-1.4238479137420654,-1.231537938117981
1771072978029815300,2.724815185546875,-0.21483421325683594,-0.9635586738586426,-1.1998014450073242
1771072978039756000,2.734756103515625,-1.2680864334106445,-0.44010627269744873,-0.9563362002372742
1771072978049696800,2.74469677734375,-1.8728618621826172,0.048188090324401855,-0.5442221164703369
1771072978059637500,2.754637451171875,-1.9005451202392578,0.3523099422454834,-0.12171712517738342
1771072978069578200,2.764578125,-1.4846372604370117,0.4801994562149048,0.3058208227157593
1771072978079519000,2.77451904296875,-0.7717065811157227,0.3956797122955322,0.5783325433731079
1771072978089460000,2.7844599609375,0.016233444213867188,0.05847644805908203,0.45587781071662903
1771072978099400700,2.794400634765625,0.5052824020385742,-0.33543670177459717,0.26226890087127686
1771072978109341400,2.804341552734375,0.6325063705444336,-0.6547348499298096,0.192766010761261
1771072978119282200,2.8142822265625,0.6688785552978516,-0.9030065536499023,-0.04315608739852905
1771072978129223000,2.824222900390625,0.6004295349121094,-1.116738200187683,-0.40352946519851685
1771072978139163600,2.83416357421875,0.44175052642822266,-1.3217912912368774,-0.7073527574539185
1771072978149104600,2.844104736328125,0.3768758773803711,-1.5350204706192017,-0.898503303527832
1771072978159045400,2.85404541015625,0.4056720733642578,-1.7554675340652466,-1.0890183448791504
1771072978168986000,2.863986083984375,0.37782859802246094,-1.9019105434417725,-1.2844665050506592
1771072978178926800,2.8739267578125,0.11013317108154297,-1.94563627243042,-1.3727595806121826
1771072978188867600,2.88386767578125,-0.3773679733276367,-1.8777146339416504,-1.3050464391708374
1771072978198808600,2.89380859375,-0.8428583145141602,-1.7292296886444092,-1.2138344049453735
1771072978208749300,2.903749267578125,-1.3342418670654297,-1.5133113861083984,-1.0907461643218994
1771072978218690000,2.91368994140625,-1.8182859420776367,-1.2185535430908203,-0.8515160083770752
1771072978228630800,2.923630859375,-2.166487693786621,-0.9386378526687622,-0.6387587785720825
1771072978238571500,2.933571533203125,-2.3055896759033203,-0.686581015586853,-0.5021335482597351
1771072978248512300,2.94351220703125,-2.310335159301758,-0.447833776473999,-0.36233389377593994
1771072978258453200,2.953453369140625,-2.3076367378234863,-0.2605912685394287,-0.19435161352157593
1771072978268394000,2.96339404296875,-2.2834248542785645,-0.12343037128448486,-0.028406046330928802
1771072978278334700,2.973334716796875,-2.259504795074463,0.0034303665161132812,0.11906855553388596
1771072978288275500,2.983275390625,-2.083418369293213,0.13326287269592285,0.14100037515163422
1771072978298216200,2.99321630859375,-1.7915844917297363,0.2020193338394165,0.03586585819721222
1771072978308157000,3.003156982421875,-1.498861312866211,0.14953279495239258,-0.10386847704648972
1771072978318098000,3.013097900390625,-1.3101558685302734,0.04460275173187256,-0.14189933240413666
1771072978328038700,3.02303857421875,-1.1536893844604492,-0.03565371036529541,-0.15479734539985657
1771072978337979400,3.0329794921875,-0.8932561874389648,-0.04410672187805176,-0.21509474515914917
1771072978347920100,3.042920166015625,-0.6482477188110352,0.0009785890579223633,-0.2705804407596588
1771072978357860900,3.05286083984375,-0.3992471694946289,0.0646982192993164,-0.25714781880378723
1771072978367801900,3.0628017578125,-0.2225017547607422,0.03173494338989258,-0.23599860072135925
1771072978377742600,3.07274267578125,-0.17025470733642578,-0.02850794792175293,-0.18519416451454163
1771072978387683300,3.082683349609375,-0.20156288146972656,-0.09885406494140625,-0.18984907865524292
1771072978397624000,3.0926240234375,-0.18738174438476562,-0.14514660835266113,-0.22564268112182617
1771072978407564800,3.102564697265625,-0.15648555755615234,-0.13392877578735352,-0.2412913590669632
1771072978417505500,3.112505615234375,-0.18543243408203125,-0.09092068672180176,-0.19680199027061462
1771072978427446500,3.122446533203125,-0.2217111587524414,-0.017632484436035156,-0.05054086446762085
1771072978437387300,3.13238720703125,-0.23682785034179688,0.04633355140686035,0.10196152329444885
1771072978447328000,3.142327880859375,-0.037552833557128906,0.10842084884643555,0.25220513343811035
1771072978457268700,3.152268798828125,0.31353759765625,0.11538219451904297,0.4824540615081787
1771072978467209500,3.16220947265625,0.5799684524536133,0.023092031478881836,0.6821920871734619
1771072978477150200,3.172150146484375,0.8551521301269531,-0.12801194190979004,0.8628441095352173
1771072978487091000,3.182091064453125,1.1319284439086914,-0.3263450860977173,1.0053824186325073
1771072978497031700,3.19203173828125,1.5773563385009766,-0.4699137210845947,0.8721327781677246
1771072978506972400,3.201972412109375,2.1573381423950195,-0.4694690704345703,0.3831607699394226
1771072978516913200,3.2119130859375,2.2794876098632812,-0.33674514293670654,-0.12772667407989502
1771072978526854000,3.22185400390625,1.6659297943115234,-0.19369840621948242,-0.3053264021873474
1771072978536794600,3.231794677734375,0.4661731719970703,-0.020591020584106445,-0.08060556650161743
1771072978546735400,3.2417353515625,-0.7419939041137695,0.28769421577453613,0.4667024612426758
1771072978556676000,3.251676025390625,-1.2800922393798828,0.802304744720459,1.1136910915374756
1771072978566616800,3.261616943359375,-1.052907943725586,1.2206852436065674,1.707331657409668
1771072978576557600,3.2715576171875,-0.16695594787597656,1.210827112197876,2.157038688659668
1771072978586498300,3.281498291015625,1.2608518600463867,0.6864418983459473,2.254716157913208
1771072978596439000,3.29143896484375,2.7014102935791016,-0.07632172107696533,2.0771279335021973
1771072978606379800,3.3013798828125,3.755621910095215,-0.7059800624847412,1.6569699048995972
1771072978616320300,3.3113203125,4.442724227905273,-1.2484536170959473,0.7446081638336182
1771072978626261000,3.321260986328125,4.404211044311523,-1.72015380859375,-0.4187746047973633
1771072978636201700,3.33120166015625,3.644942283630371,-2.026486396789551,-1.275118350982666
1771072978646142500,3.341142578125,2.336348533630371,-2.0851047039031982,-1.6335265636444092
1771072978656083200,3.351083251953125,0.7892847061157227,-1.881389856338501,-1.5700328350067139
1771072978666024000,3.36102392578125,-0.6324176788330078,-1.4738085269927979,-1.2860779762268066
1771072978675964700,3.370964599609375,-1.391775131225586,-0.9460736513137817,-0.9425230622291565
1771072978685905400,3.380905517578125,-1.3537120819091797,-0.5049939155578613,-0.41658520698547363
1771072978695846100,3.39084619140625,-0.7165441513061523,-0.28572607040405273,0.22016867995262146
1771072978705787000,3.400786865234375,-0.009035110473632812,-0.285943865776062,0.7712470889091492
1771072978715727600,3.4107275390625,0.5329294204711914,-0.270238995552063,1.204505443572998
1771072978725668400,3.42066845703125,0.8435392379760742,-0.26638174057006836,1.467542052268982
1771072978735609000,3.430609130859375,0.9143161773681641,-0.2796311378479004,1.5850868225097656
1771072978745549800,3.4405498046875,0.7221250534057617,-0.3491528034210205,1.4856078624725342
1771072978755490600,3.450490478515625,0.2962837219238281,-0.4602853059768677,1.2369579076766968
1771072978765431300,3.460431396484375,-0.17175674438476562,-0.6019980907440186,0.9168700575828552
1771072978775372000,3.4703720703125,-0.5457868576049805,-0.7402279376983643,0.602496325969696
1771072978785312800,3.480312744140625,-0.9213094711303711,-0.899258017539978,0.2553630471229553
1771072978795253800,3.490253662109375,-1.202439308166504,-1.0514247417449951,-0.11363054811954498
1771072978805194500,3.500194580078125,-1.417607307434082,-1.134199857711792,-0.3634992241859436
1771072978815135200,3.51013525390625,-1.6836223602294922,-1.0918469429016113,-0.5007905960083008
1771072978825076000,3.520075927734375,-1.9262123107910156,-0.9108960628509521,-0.48566147685050964
1771072978835016700,3.5300166015625,-2.040400505065918,-0.6398787498474121,-0.4171413481235504
1771072978844957400,3.53995751953125,-2.0361404418945312,-0.3342101573944092,-0.38255125284194946
1771072978854898400,3.5498984375,-2.018868923187256,-0.07994329929351807,-0.2739422917366028
1771072978864839200,3.559839111328125,-1.9242968559265137,0.09504330158233643,-0.21642662584781647
1771072978874780000,3.56977978515625,-1.8172268867492676,0.25377559661865234,-0.2508707344532013
1771072978884720600,3.579720703125,-1.6260757446289062,0.37741756439208984,-0.3457432985305786
1771072978894661400,3.589661376953125,-1.5396709442138672,0.45434141159057617,-0.4162384271621704
1771072978904602400,3.599602294921875,-1.6653151512145996,0.5071830749511719,-0.45725786685943604
1771072978914543000,3.609543212890625,-1.9501891136169434,0.5852768421173096,-0.3809797465801239
1771072978924483800,3.61948388671875,-2.3276476860046387,0.6794412136077881,-0.2658197581768036
1771072978934424600,3.629424560546875,-2.4257941246032715,0.7403180599212646,-0.22923767566680908
1771072978944365300,3.639365234375,-2.2552366256713867,0.771275520324707,-0.08715635538101196
1771072978954306000,3.64930615234375,-1.9169774055480957,0.722055196762085,0.1229672059416771
1771072978964247000,3.6592470703125,-1.5068540573120117,0.6425161361694336,0.33485332131385803
1771072978974187800,3.669187744140625,-0.9483480453491211,0.5672435760498047,0.4327014088630676
1771072978984128500,3.67912841796875,-0.34185218811035156,0.5044620037078857,0.4425921142101288
1771072978994069200,3.6890693359375,0.11460494995117188,0.4862520694732666,0.3581392168998718
1771072979004010000,3.699010009765625,0.41208457946777344,0.47338080406188965,0.2151891440153122
1771072979013951000,3.708950927734375,0.6609020233154297,0.4250342845916748,0.1291692554950714
1771072979023891700,3.7188916015625,0.9114360809326172,0.3218100070953369,0.034111812710762024
1771072979033832400,3.72883251953125,1.1328496932983398,0.16306328773498535,-0.06627976894378662
1771072979043773200,3.738773193359375,1.3087434768676758,0.0005815029144287109,-0.1466509848833084
1771072979053714000,3.7487138671875,1.3534955978393555,-0.1783583164215088,-0.18137076497077942
1771072979063654700,3.758654541015625,1.372232437133789,-0.3056600093841553,-0.22578708827495575
1771072979073595600,3.768595703125,1.6916236877441406,-0.2887275218963623,-0.5671460032463074
1771072979083536400,3.778536376953125,2.0719785690307617,-0.10385656356811523,-1.0296380519866943
1771072979093477000,3.78847705078125,1.7658929824829102,0.011600732803344727,-0.9986473321914673
1771072979103417900,3.79841796875,0.7243490219116211,0.02525615692138672,-0.352001428604126
1771072979113358600,3.808358642578125,0.002765655517578125,0.21030926704406738,0.3586874008178711
1771072979123299300,3.81829931640625,0.33654308319091797,0.513247013092041,0.9128453731536865
1771072979133240300,3.828240234375,1.7308588027954102,0.5116214752197266,1.0945539474487305
1771072979143181000,3.83818115234375,3.442575454711914,0.06428885459899902,1.126217246055603
1771072979153121800,3.848121826171875,4.747140884399414,-0.5819647312164307,1.0893833637237549
1771072979163062500,3.8580625,5.659326553344727,-1.2623789310455322,0.5991301536560059
1771072979173003300,3.868003173828125,5.799574851989746,-1.9672582149505615,-0.34662991762161255
1771072979182944300,3.8779443359375,4.972675323486328,-2.4313793182373047,-1.2829307317733765
1771072979192885000,3.887885009765625,3.3266592025756836,-2.3318638801574707,-1.7212767601013184
1771072979202825700,3.89782568359375,1.4541082382202148,-1.783538579940796,-1.7145800590515137
1771072979212766500,3.907766357421875,-0.2745475769042969,-1.142524242401123,-1.6236828565597534
1771072979222707200,3.917707275390625,-1.568929672241211,-0.45712780952453613,-1.3236722946166992
1771072979232648000,3.92764794921875,-2.170098304748535,0.1786510944366455,-0.7289087176322937
1771072979242589000,3.9375888671875,-2.088066577911377,0.5125524997711182,-0.07366175949573517
1771072979252529700,3.94752978515625,-1.31195068359375,0.5332744121551514,0.6250767707824707
1771072979262470400,3.957470458984375,-0.1712818145751953,0.24266481399536133,0.9353779554367065
1771072979272411100,3.9674111328125,0.8983850479125977,-0.20020699501037598,0.9138566255569458
1771072979282351900,3.977351806640625,1.7033491134643555,-0.55949866771698,0.8239644765853882
1771072979292292600,3.987292724609375,2.2217512130737305,-0.8229531049728394,0.5463583469390869
1771072979302233600,3.997233642578125,2.32379150390625,-1.093700647354126,0.08322367072105408
1771072979312174300,4.00717431640625,1.8910999298095703,-1.384739875793457,-0.3815420866012573
1771072979322115000,4.017114990234375,1.1704902648925781,-1.6844643354415894,-0.7968505620956421
1771072979332055800,4.027055908203125,0.33873462677001953,-1.939482569694519,-1.1284228563308716
1771072979341996500,4.03699658203125,-0.5639762878417969,-2.0819485187530518,-1.3124643564224243
1771072979351937500,4.0469375,-1.46160888671875,-2.10426664352417,-1.3831944465637207
1771072979361878300,4.056878173828125,-2.2541937828063965,-2.0667078495025635,-1.4095193147659302
1771072979371819000,4.066819091796875,-2.9945106506347656,-1.9570246934890747,-1.22670316696167
1771072979381759700,4.076759765625,-3.644547939300537,-1.7774078845977783,-0.7777509689331055
1771072979391700500,4.086700439453125,-4.154679298400879,-1.4984842538833618,-0.22997137904167175
1771072979401641200,4.09664111328125,-4.353923797607422,-1.1544184684753418,0.2866553068161011
1771072979411582200,4.106582275390625,-4.250608921051025,-0.7873069047927856,0.6596074104309082
1771072979421523000,4.11652294921875,-3.8357343673706055,-0.4747995138168335,0.8012165427207947
1771072979431463700,4.126463623046875,-3.0711660385131836,-0.22903883457183838,0.8319809436798096
1771072979441404400,4.136404296875,-2.2313036918640137,-0.11366939544677734,0.831512451171875
1771072979451345200,4.14634521484375,-1.4444465637207031,-0.14575743675231934,0.7070286870002747
1771072979461286000,4.156285888671875,-1.0159826278686523,-0.27287423610687256,0.5365989208221436
1771072979471227000,4.166226806640625,-0.7734966278076172,-0.4666556119918823,0.28807830810546875
1771072979481167600,4.176167724609375,-0.6766090393066406,-0.602421760559082,0.04090891778469086
1771072979491108400,4.1861083984375,-0.6493749618530273,-0.6031458377838135,-0.09001681208610535
1771072979501049000,4.196049072265625,-0.7187395095825195,-0.5329254865646362,-0.09609241783618927
1771072979510989800,4.20598974609375,-0.7991228103637695,-0.49711334705352783,-0.09405799210071564
1771072979520930800,4.215930908203125,-0.8119678497314453,-0.4443051815032959,-0.025758683681488037
1771072979530871600,4.22587158203125,-0.6617622375488281,-0.3509964942932129,-0.009148865938186646
1771072979540812300,4.235812255859375,-0.3794670104980469,-0.26457512378692627,-0.11038567125797272
1771072979550753000,4.2457529296875,-0.0673513412475586,-0.17627251148223877,-0.11280307173728943
1771072979560693800,4.25569384765625,0.16533374786376953,-0.09151673316955566,-0.07212771475315094
1771072979570634500,4.265634521484375,0.33604907989501953,-0.01035165786743164,-0.015452533960342407
1771072979580575500,4.275575439453125,0.46428680419921875,0.0877835750579834,-0.008859604597091675
1771072979590516200,4.28551611328125,0.5357818603515625,0.13141393661499023,-0.10774870216846466
1771072979600457000,4.29545703125,0.4812889099121094,0.17881298065185547,-0.1369486302137375
1771072979610397700,4.305397705078125,0.3461322784423828,0.21783947944641113,-0.14085163176059723
1771072979620338400,4.31533837890625,0.2947196960449219,0.2778804302215576,-0.06698313355445862
1771072979630279200,4.325279052734375,0.4218626022338867,0.3161005973815918,0.14379876852035522
1771072979640220200,4.33522021484375,0.8679914474487305,0.2970086336135864,0.3870577812194824
1771072979650161000,4.345160888671875,1.3601837158203125,0.157423734664917,0.5631210803985596
1771072979660101600,4.3551015625,1.7863683700561523,-0.01154470443725586,0.6467268466949463
1771072979670042400,4.36504248046875,2.2330169677734375,-0.1240609884262085,0.573068380355835
1771072979679983000,4.374983154296875,2.6669416427612305,-0.10238111019134521,0.08248937129974365
1771072979689923800,4.384923828125,2.4387130737304688,0.03410601615905762,-0.5036376714706421
1771072979699864600,4.394864501953125,1.2778434753417969,0.12364792823791504,-0.6306431889533997
1771072979709805300,4.404805419921875,-0.26444530487060547,0.13844788074493408,-0.31535452604293823
1771072979719746000,4.41474609375,-1.4887771606445312,0.26698076725006104,0.2086828649044037
1771072979729686800,4.424686767578125,-1.817232608795166,0.6281307935714722,0.8119933009147644
1771072979739627500,4.43462744140625,-0.7793674468994141,0.994623064994812,1.3481885194778442
1771072979749568300,4.444568359375,1.0400753021240234,0.8128467798233032,1.4982496500015259
1771072979759509000,4.454509033203125,2.580556869506836,0.2619354724884033,1.7005890607833862
1771072979769449700,4.46444970703125,3.705317497253418,-0.3935379981994629,1.7559967041015625
1771072979779390500,4.474390380859375,4.733650207519531,-1.0515239238739014,1.2208771705627441
1771072979789331200,4.484331298828125,5.24600887298584,-1.658590316772461,0.31705427169799805
1771072979799272000,4.49427197265625,4.792630195617676,-2.140164375305176,-0.6111865043640137
1771072979809212700,4.504212646484375,3.445302963256836,-2.252577304840088,-1.1506699323654175
1771072979819153400,4.5141533203125,1.7050771713256836,-1.7997112274169922,-1.0390170812606812
1771072979829094100,4.52409423828125,0.16195392608642578,-1.0260059833526611,-0.7347660064697266
1771072979839035000,4.534034912109375,-1.3936996459960938,-0.3838374614715576,-0.3409740924835205
1771072979848975400,4.543975341796875,-2.811102867126465,0.24061036109924316,0.34128233790397644
1771072979858916000,4.553916015625,-3.584373950958252,0.7675284147262573,1.0561453104019165
1771072979868856800,4.56385693359375,-3.2674899101257324,1.0737651586532593,1.533840298652649
1771072979878797600,4.573797607421875,-1.6977005004882812,0.9083781242370605,1.6030864715576172
1771072979888738300,4.58373828125,0.02078533172607422,0.2186412811279297,1.3975272178649902
1771072979898679000,4.593678955078125,1.127969741821289,-0.4758051633834839,1.2102117538452148
1771072979908619800,4.603619873046875,1.9373798370361328,-1.0460261106491089,0.75311279296875
1771072979918560500,4.613560546875,2.278977394104004,-1.4747949838638306,0.019045427441596985
1771072979928501200,4.623501220703125,2.008729934692383,-1.776382565498352,-0.7083950638771057
1771072979938442000,4.63344189453125,1.3311843872070312,-1.979962944984436,-1.2305701971054077
1771072979948382700,4.6433828125,0.3546142578125,-2.018868923187256,-1.3942841291427612
1771072979958323500,4.653323486328125,-0.7606096267700195,-1.8729135990142822,-1.2673245668411255
1771072979968264200,4.66326416015625,-1.7711405754089355,-1.6118886470794678,-1.061603307723999
1771072979978205000,4.673204833984375,-2.5775160789489746,-1.2875919342041016,-0.8160107731819153
1771072979988145700,4.683145751953125,-3.140265941619873,-0.938305675983429,-0.5406264066696167
1771072979998086400,4.69308642578125,-3.3242459297180176,-0.590151846408844,-0.2606394290924072
1771072980008027100,4.703027099609375,-3.295185089111328,-0.28532838821411133,0.04287108778953552
1771072980017967900,4.7129677734375,-3.3066463470458984,0.03645491600036621,0.37487202882766724
1771072980027908600,4.72290869140625,-3.258420467376709,0.3820619583129883,0.6137598156929016
1771072980037849300,4.732849365234375,-3.048107147216797,0.7157292366027832,0.6966409683227539
1771072980047790300,4.742790283203125,-2.7404818534851074,1.0581202507019043,0.721477746963501
1771072980057731000,4.75273095703125,-2.388235569000244,1.390215516090393,0.832195520401001
1771072980067671800,4.762671875,-2.1419334411621094,1.5683273077011108,0.938558042049408
1771072980077612500,4.772612548828125,-1.9560418128967285,1.600067138671875,0.9360783100128174
1771072980087553300,4.78255322265625,-1.773341178894043,1.4478113651275635,0.8053857088088989
1771072980097494000,4.792493896484375,-1.5632247924804688,1.181886076927185,0.5587358474731445
1771072980107435000,4.80243505859375,-1.1086883544921875,0.9525177478790283,0.3809674382209778
1771072980117375700,4.812375732421875,-0.5128011703491211,0.8044517040252686,0.342430055141449
1771072980127316500,4.82231640625,0.1026163101196289,0.6765223741531372,0.30542081594467163
1771072980137257200,4.83225732421875,0.5347490310668945,0.5576995611190796,0.3658156991004944
1771072980147198000,4.842197998046875,0.8150844573974609,0.47833120822906494,0.42158663272857666
1771072980157139000,4.852138916015625,1.0487995147705078,0.3843204975128174,0.3281722962856293
1771072980167079700,4.86207958984375,1.312373161315918,0.2635822296142578,0.1274837851524353
1771072980177020400,4.8720205078125,1.5437040328979492,0.14177894592285156,-0.10386884957551956
1771072980186961200,4.881961181640625,1.7310819625854492,0.008489012718200684,-0.3342697024345398
1771072980196902000,4.89190185546875,1.8317184448242188,-0.12220311164855957,-0.5376349091529846
1771072980206842600,4.901842529296875,1.877145767211914,-0.2657419443130493,-0.7538654208183289
1771072980216783600,4.91178369140625,1.8583192825317383,-0.3928029537200928,-0.9929081201553345
1771072980226724400,4.921724365234375,1.7613725662231445,-0.5194534063339233,-1.2158873081207275
1771072980236665000,4.9316650390625,1.6249094009399414,-0.633208155632019,-1.3169770240783691
1771072980246605800,4.941605712890625,1.5662050247192383,-0.7027960419654846,-1.2304856777191162
1771072980256546600,4.951546630859375,1.6567754745483398,-0.6578345894813538,-1.1180565357208252
1771072980266487300,4.9614873046875,1.9392995834350586,-0.40775442123413086,-1.1660752296447754
1771072980276428300,4.97142822265625,1.8547048568725586,-0.05827450752258301,-1.214266300201416
1771072980286369000,4.981369140625,1.1647272109985352,0.21616053581237793,-1.0783370733261108
1771072980296309800,4.991309814453125,0.23268413543701172,0.4069787263870239,-0.7543591260910034
1771072980306250500,5.00125048828125,-0.4097118377685547,0.6420652866363525,-0.1551530361175537
1771072980316191200,5.011191162109375,-0.5207939147949219,0.9314690828323364,0.6148507595062256
1771072980326132200,5.02113232421875,0.03389453887939453,1.079378366470337,1.1654391288757324
1771072980336073000,5.031072998046875,1.146012306213379,0.8622719049453735,1.2690668106079102
1771072980346013700,5.041013671875,2.3238039016723633,0.3898395299911499,1.233433723449707
1771072980355954400,5.050954345703125,3.3632030487060547,-0.11781013011932373,0.9783077239990234
1771072980365895200,5.060895263671875,4.187162399291992,-0.626518964767456,0.37285563349723816
1771072980375836000,5.0708359375,4.228931427001953,-1.189643144607544,-0.43031877279281616
1771072980385777000,5.08077685546875,3.4214515686035156,-1.6348451375961304,-1.1866785287857056
1771072980395717600,5.090717529296875,2.033658981323242,-1.709444522857666,-1.5559545755386353
1771072980405658400,5.100658447265625,0.5791139602661133,-1.367741346359253,-1.6073410511016846
1771072980415599000,5.11059912109375,-0.5089597702026367,-0.8554295301437378,-1.663252830505371
1771072980425539800,5.120539794921875,-1.2470932006835938,-0.4370311498641968,-1.5924155712127686
1771072980435480600,5.13048046875,-1.7160120010375977,-0.12245237827301025,-1.191267967224121
1771072980445421600,5.140421630859375,-1.5682077407836914,0.06225705146789551,-0.5383555293083191
1771072980455362300,5.1503623046875,-0.7328634262084961,0.06478142738342285,0.05233537405729294
1771072980465303000,5.160302978515625,0.23069095611572266,-0.0644831657409668,0.2746214270591736
1771072980475243800,5.170243896484375,0.933990478515625,-0.25916290283203125,0.15859657526016235
1771072980485184500,5.1801845703125,1.1466522216796875,-0.5134159326553345,-0.023486418649554253
1771072980495125500,5.19012548828125,0.9775638580322266,-0.7596384882926941,-0.30226752161979675
1771072980505066200,5.200066162109375,0.5134811401367188,-0.9351788759231567,-0.5894899368286133
1771072980515007000,5.210007080078125,-0.039834022521972656,-1.02634596824646,-0.7944260835647583
1771072980524947700,5.21994775390625,-0.42231082916259766,-1.0521923303604126,-0.9802330136299133
1771072980534888400,5.229888427734375,-0.5867500305175781,-1.124314308166504,-1.1353654861450195
1771072980544829200,5.2398291015625,-0.7628355026245117,-1.2409329414367676,-1.1837188005447388
1771072980554770200,5.249770263671875,-0.8834714889526367,-1.3338123559951782,-1.192135214805603
1771072980564711000,5.2597109375,-0.9676408767700195,-1.3496203422546387,-1.140036940574646
1771072980574651600,5.269651611328125,-1.117849349975586,-1.2877966165542603,-1.0385161638259888
1771072980584592400,5.27959228515625,-1.3576908111572266,-1.1874616146087646,-0.9086623191833496
1771072980594533000,5.289533203125,-1.6606731414794922,-1.0439252853393555,-0.7570988535881042
1771072980604473900,5.299473876953125,-1.826045036315918,-0.892987072467804,-0.6584454774856567
1771072980614414800,5.309414794921875,-1.9209332466125488,-0.7326357364654541,-0.44205743074417114
1771072980624355600,5.31935546875,-1.9979252815246582,-0.5466235876083374,-0.17260782420635223
1771072980634296300,5.32929638671875,-2.0547285079956055,-0.3534510135650635,0.020929543301463127
1771072980644237000,5.339237060546875,-2.0317482948303223,-0.15477395057678223,0.10205978155136108
1771072980654177800,5.349177734375,-2.0893373489379883,0.021759867668151855,0.0836375504732132
1771072980664118800,5.359118896484375,-2.2634010314941406,0.14676380157470703,0.09881780296564102
1771072980674059500,5.3690595703125,-2.506484031677246,0.22108244895935059,0.14046232402324677
1771072980684000300,5.379000244140625,-2.656559944152832,0.2569798231124878,0.1178867518901825
1771072980693941000,5.38894091796875,-2.652047634124756,0.24846410751342773,0.008172973990440369
1771072980703881700,5.3988818359375,-2.6677284240722656,0.23611629009246826,-0.032279372215270996
1771072980713822500,5.408822509765625,-2.7560715675354004,0.2077580690383911,0.0003757774829864502
1771072980723763500,5.418763427734375,-2.8165149688720703,0.17283153533935547,0.07472676038742065
1771072980733704200,5.4287041015625,-2.751194953918457,0.17925763130187988,0.16291913390159607
1771072980743645000,5.43864501953125,-2.55794620513916,0.24804413318634033,0.22460481524467468
1771072980753585700,5.448585693359375,-2.2729063034057617,0.2880922555923462,0.20178115367889404
1771072980763526400,5.4585263671875,-1.8818306922912598,0.31300973892211914,0.10267773270606995
1771072980773467100,5.468467041015625,-1.2892866134643555,0.27681446075439453,-0.1136263906955719
1771072980783407900,5.478407958984375,-0.696019172668457,0.1180950403213501,-0.28628620505332947
1771072980793348600,5.4883486328125,-0.22376251220703125,-0.18049407005310059,-0.284069687128067
1771072980803289300,5.498289306640625,0.16119861602783203,-0.422693133354187,-0.32729095220565796
1771072980813230000,5.50822998046875,0.578460693359375,-0.5150386095046997,-0.3788822293281555
1771072980823170800,5.5181708984375,1.0204086303710938,-0.499647855758667,-0.4605247378349304
1771072980833111300,5.528111328125,1.3338966369628906,-0.4857279062271118,-0.4302459955215454
1771072980843052000,5.538052001953125,1.681777000427246,-0.5256174802780151,-0.28612038493156433
1771072980852992800,5.54799267578125,2.200108528137207,-0.5905376672744751,-0.06399786472320557
1771072980862933500,5.55793359375,2.7595958709716797,-0.6629880666732788,0.06751483678817749
1771072980872874200,5.567874267578125,3.4537878036499023,-0.6916540861129761,0.010167181491851807
1771072980882815000,5.57781494140625,4.09429931640625,-0.684217631816864,-0.13883042335510254
1771072980892755700,5.587755615234375,4.113239288330078,-0.5827792882919312,-0.2935721278190613
1771072980902696400,5.597696533203125,3.3404245376586914,-0.3826643228530884,-0.2995258867740631
1771072980912637200,5.60763720703125,2.2243337631225586,-0.09104263782501221,-0.0705735981464386
1771072980922578000,5.617577880859375,1.2617244720458984,0.3049182891845703,0.48754245042800903
1771072980932518700,5.6275185546875,0.8690729141235352,0.7969517707824707,1.1622390747070312
1771072980942459400,5.63745947265625,1.3882293701171875,1.1240559816360474,1.5575921535491943
1771072980952400100,5.647400146484375,2.606904983520508,0.9876514673233032,1.6379727125167847
1771072980962340900,5.6573408203125,3.6451940536499023,0.37210583686828613,1.6420397758483887
1771072980972281600,5.667281494140625,4.4565582275390625,-0.38236069679260254,1.5525546073913574
1771072980982222300,5.677222412109375,5.285785675048828,-1.0311808586120605,1.0528135299682617
1771072980992163000,5.6871630859375,5.4813032150268555,-1.6364659070968628,0.3436161279678345
1771072981002103800,5.697103759765625,4.563056945800781,-2.0499963760375977,-0.41759905219078064
1771072981012044500,5.70704443359375,2.9286012649536133,-2.001798629760742,-0.8761097192764282
1771072981021985300,5.7169853515625,1.298661231994629,-1.5572820901870728,-0.9032142162322998
1771072981031926000,5.726926025390625,-0.04550647735595703,-1.0370219945907593,-0.9622080326080322
1771072981041866800,5.73686669921875,-1.2607498168945312,-0.642657458782196,-0.8512186408042908
1771072981051807500,5.746807373046875,-2.229191780090332,-0.28201985359191895,-0.4557086229324341
1771072981061748200,5.756748291015625,-2.73286771774292,-0.029897451400756836,-0.020373515784740448
1771072981071689000,5.76668896484375,-2.814337730407715,0.14501214027404785,0.4335630238056183
1771072981081629700,5.776629638671875,-2.3626937866210938,0.25077974796295166,0.8558237552642822
1771072981091570400,5.7865703125,-1.3072900772094727,0.26925957202911377,1.1059198379516602
1771072981101511200,5.79651123046875,-0.2246541976928711,0.17394137382507324,1.189775824546814
1771072981111452000,5.806451904296875,0.6156864166259766,0.03123617172241211,1.2305458784103394
1771072981121392600,5.816392578125,1.1979084014892578,-0.24571287631988525,1.1442325115203857
1771072981131333400,5.82633349609375,1.2434816360473633,-0.6165639162063599,0.8196757435798645
1771072981141274000,5.836274169921875,0.8471317291259766,-1.0034339427947998,0.2723802924156189
1771072981151214800,5.84621484375,0.27053165435791016,-1.300815463066101,-0.3241060674190521
1771072981161155600,5.856155517578125,-0.48542308807373047,-1.511351227760315,-0.7761069536209106
1771072981171096600,5.8660966796875,-1.2599515914916992,-1.601321816444397,-0.925662636756897
1771072981181037300,5.876037353515625,-1.9645328521728516,-1.5036747455596924,-0.8298419713973999
1771072981190978000,5.88597802734375,-2.556579113006592,-1.2825610637664795,-0.6778687834739685
1771072981200918800,5.895918701171875,-2.9604806900024414,-0.9634857773780823,-0.5030864477157593
1771072981210859500,5.905859619140625,-3.1031365394592285,-0.6064673662185669,-0.3295537233352661
1771072981220800300,5.91580029296875,-3.0189361572265625,-0.26749491691589355,-0.1294434368610382
1771072981230741200,5.9257412109375,-2.672703742980957,0.07131493091583252,0.09429144859313965
1771072981240682000,5.935681884765625,-2.1531519889831543,0.3626573085784912,0.3537919819355011
1771072981250622700,5.945622802734375,-1.6344976425170898,0.6041972637176514,0.5043581128120422
1771072981260563500,5.9555634765625,-1.0946989059448242,0.8108699321746826,0.5807026028633118
1771072981270504200,5.965504150390625,-0.6980733871459961,0.9525402784347534,0.6171087026596069
1771072981280445200,5.975445068359375,-0.5992040634155273,0.9816197156906128,0.6314634084701538
1771072981290386000,5.985385986328125,-0.7642145156860352,0.937253475189209,0.7078635692596436
1771072981300326700,5.99532666015625,-1.097834587097168,0.9014980792999268,0.8184876441955566
1771072981310267400,6.005267333984375,-1.3620166778564453,0.8900080919265747,0.8586788177490234
1771072981320208100,6.0152080078125,-1.4408159255981445,0.8853930234909058,0.8651362657546997
1771072981330148900,6.02514892578125,-1.3804779052734375,0.8344684839248657,0.8949078321456909
1771072981340089900,6.03508984375,-1.1694364547729492,0.7250766754150391,0.9314287900924683
1771072981350030600,6.045030517578125,-0.8100042343139648,0.6552404165267944,0.9054928421974182
1771072981359971300,6.054971435546875,-0.41409969329833984,0.612078070640564,0.8089359402656555
1771072981369912000,6.064912109375,-0.08621406555175781,0.5709148645401001,0.783507227897644
1771072981379852800,6.074852783203125,0.27453041076660156,0.524970293045044,0.6777278780937195
1771072981389793500,6.08479345703125,0.5753040313720703,0.4340919256210327,0.38337206840515137
1771072981399734500,6.094734619140625,0.6710987091064453,0.24365437030792236,0.05691283941268921
1771072981409675300,6.10467529296875,0.45992088317871094,0.01759624481201172,-0.20903456211090088
1771072981419616000,6.114615966796875,0.047512054443359375,-0.15342319011688232,-0.41646966338157654
1771072981429556700,6.124556640625,-0.40120697021484375,-0.3405280113220215,-0.6133850812911987
1771072981439497500,6.13449755859375,-0.9486379623413086,-0.5738019943237305,-0.7292930483818054
1771072981449438500,6.1444384765625,-1.552424430847168,-0.753022313117981,-0.6517258286476135
1771072981459379200,6.154379150390625,-1.7288899421691895,-0.7741044759750366,-0.3526343107223511
1771072981469320000,6.16431982421875,-0.9996280670166016,-0.5720983743667603,-0.1417260766029358
1771072981479260700,6.1742607421875,0.14924144744873047,-0.1410984992980957,-0.14667844772338867
1771072981489201400,6.184201416015625,0.9656352996826172,0.34614133834838867,0.0175897479057312
1771072981499142100,6.19414208984375,0.8176870346069336,0.6670472621917725,0.5516219139099121
1771072981509083100,6.204083251953125,0.04746818542480469,0.8019075393676758,1.2362418174743652
1771072981519023900,6.21402392578125,-0.09926414489746094,0.8532066345214844,1.5379071235656738
1771072981528964600,6.223964599609375,0.8554372787475586,0.7384860515594482,1.4084136486053467
1771072981538905300,6.2339052734375,2.2918004989624023,0.4354276657104492,1.3418188095092773
1771072981548846000,6.24384619140625,3.6113815307617188,-0.15173590183258057,1.2658288478851318
1771072981558786800,6.253786865234375,4.728397369384766,-0.9591354727745056,0.7107430100440979
1771072981568727800,6.263727783203125,5.260922431945801,-1.737962007522583,-0.18217353522777557
1771072981578668500,6.27366845703125,5.006461143493652,-2.3755252361297607,-1.2365397214889526
1771072981588609300,6.283609375,3.6735754013061523,-2.620724678039551,-2.0733237266540527
1771072981598550000,6.293550048828125,1.830108642578125,-2.2564496994018555,-2.2567386627197266
1771072981608490800,6.30349072265625,0.18473529815673828,-1.4274386167526245,-2.0776376724243164
1771072981618431700,6.313431640625,-1.0454959869384766,-0.644061803817749,-1.8550771474838257
1771072981628372500,6.32337255859375,-1.9452261924743652,0.1549382209777832,-1.2801618576049805
1771072981638313200,6.333313232421875,-2.2115612030029297,0.8762378692626953,-0.47906675934791565
1771072981648254000,6.34325390625,-1.708116054534912,1.31943941116333,0.39507222175598145
1771072981658194700,6.353194580078125,-0.6484355926513672,1.382824420928955,1.1454864740371704
1771072981668135400,6.363135498046875,0.6360025405883789,0.959053635597229,1.2605953216552734
1771072981678076400,6.373076416015625,1.6974258422851562,0.27928483486175537,1.1437684297561646
1771072981688017200,6.38301708984375,2.336771011352539,-0.23020482063293457,1.1196975708007812
1771072981697958000,6.3929580078125,2.9043731689453125,-0.6690976619720459,0.6151331067085266
1771072981707898600,6.402898681640625,3.0690393447875977,-1.0947864055633545,-0.06993459910154343
1771072981717839400,6.41283935546875,2.7149887084960938,-1.4909535646438599,-0.6795369386672974
1771072981727780000,6.422780029296875,1.9603939056396484,-1.7811380624771118,-1.104910969734192
1771072981737721000,6.43272119140625,0.9922151565551758,-1.8324352502822876,-1.2196418046951294
1771072981747661800,6.442661865234375,-0.02238178253173828,-1.6516515016555786,-1.141418218612671
1771072981757602600,6.4526025390625,-0.9334926605224609,-1.4097288846969604,-1.0751042366027832
1771072981767543300,6.462543212890625,-1.6728110313415527,-1.179466962814331,-1.0054044723510742
1771072981777484000,6.472484130859375,-2.1099634170532227,-0.9798855781555176,-0.8818017244338989
1771072981787424800,6.4824248046875,-2.162147045135498,-0.8328152894973755,-0.7588216662406921
1771072981797365500,6.492365478515625,-2.009009838104248,-0.7167942523956299,-0.6735283136367798
1771072981807306000,6.502305908203125,-1.915544033050537,-0.587016224861145,-0.5650242567062378
1771072981817246700,6.512246826171875,-1.9649014472961426,-0.4186251163482666,-0.4297247529029846
1771072981827187500,6.5221875,-2.0803604125976562,-0.18746578693389893,-0.4376635253429413
1771072981837128200,6.532128173828125,-2.1616249084472656,0.04507088661193848,-0.5611755847930908
1771072981847069000,6.54206884765625,-2.211198329925537,0.18627607822418213,-0.6556921601295471
1771072981857009700,6.552009765625,-2.3438992500305176,0.27780961990356445,-0.5960249900817871
1771072981866950400,6.561950439453125,-2.4811534881591797,0.35779690742492676,-0.44838207960128784
1771072981876891100,6.57189111328125,-2.3892970085144043,0.42812299728393555,-0.41946202516555786
1771072981886831900,6.581831787109375,-2.1310057640075684,0.5032302141189575,-0.5297797322273254
1771072981896772600,6.591772705078125,-1.892618179321289,0.5003607273101807,-0.655000627040863
1771072981906713300,6.60171337890625,-1.886486530303955,0.4667532444000244,-0.6227583289146423
1771072981916654000,6.611654052734375,-1.8592019081115723,0.4444100856781006,-0.46203744411468506
1771072981926594800,6.6215947265625,-1.6178526878356934,0.46418285369873047,-0.39879292249679565
1771072981936535600,6.63153564453125,-1.1582832336425781,0.4668315649032593,-0.45746612548828125
1771072981946476300,6.641476318359375,-0.7290782928466797,0.34596776962280273,-0.5624467134475708
1771072981956417000,6.6514169921875,-0.41574859619140625,0.1717061996459961,-0.6167346239089966
1771072981966357800,6.661357666015625,-0.18430614471435547,0.016796112060546875,-0.6242599487304688
1771072981976298500,6.671298583984375,0.008820533752441406,-0.10152435302734375,-0.645218014717102
1771072981986239200,6.6812392578125,0.03960609436035156,-0.1239464282989502,-0.5624036192893982
1771072981996180000,6.691179931640625,-0.053646087646484375,-0.07556462287902832,-0.44744130969047546
1771072982006120700,6.70112060546875,-0.03460216522216797,-0.04300332069396973,-0.35417261719703674
1771072982016061400,6.7110615234375,-0.008790016174316406,-0.06362771987915039,-0.24438819289207458
1771072982026002200,6.721002197265625,0.08103561401367188,-0.09879016876220703,0.08162178099155426
1771072982035943000,6.73094287109375,0.13193893432617188,-0.10974335670471191,0.5710713863372803
1771072982045883600,6.740883544921875,0.14842700958251953,-0.0828237533569336,0.9991075396537781
1771072982055824400,6.750824462890625,0.326171875,-0.05498170852661133,1.2359700202941895
1771072982065765000,6.76076513671875,0.8177690505981445,-0.08398866653442383,1.2631127834320068
1771072982075705900,6.770705810546875,1.5537042617797852,-0.160394549369812,1.045788049697876
1771072982085646600,6.780646484375,2.359490394592285,-0.2566039562225342,0.5752952098846436
1771072982095587300,6.79058740234375,2.208510398864746,-0.314375638961792,0.21514897048473358
1771072982105528000,6.800528076171875,1.098464012145996,-0.24998116493225098,0.2538453936576843
1771072982115468800,6.81046875,-0.16203975677490234,-0.1100006103515625,0.416836678981781
1771072982125409500,6.820409423828125,-0.9960031509399414,0.0722038745880127,0.47718456387519836
1771072982135350300,6.830350341796875,-1.2479782104492188,0.41983282566070557,0.8563591241836548
1771072982145291000,6.840291015625,-0.700251579284668,0.5852733850479126,1.2728990316390991
1771072982155231700,6.850231689453125,0.6528749465942383,0.30493617057800293,1.481022834777832
1771072982165172500,6.86017236328125,1.9177427291870117,-0.29128098487854004,1.5138481855392456
1771072982175113200,6.87011328125,2.9741172790527344,-0.8473836183547974,1.3734396696090698
1771072982185054000,6.880053955078125,4.0193891525268555,-1.2976057529449463,0.8037525415420532
1771072982194994700,6.88999462890625,4.6080322265625,-1.7066749334335327,-0.033836185932159424
1771072982204935400,6.899935302734375,4.405185699462891,-2.042999029159546,-0.8265482187271118
1771072982214876400,6.90987646484375,3.2841014862060547,-2.087339401245117,-1.156116247177124
1771072982224817200,6.919817138671875,1.853306770324707,-1.729791283607483,-0.9784403443336487
1771072982234758000,6.9297578125,0.6451520919799805,-1.228272557258606,-0.8961473703384399
1771072982244698600,6.93969873046875,-0.1844043731689453,-0.7457079887390137,-0.6492068767547607
1771072982254639400,6.949639404296875,-0.49640941619873047,-0.33155810832977295,-0.1401333510875702
1771072982264580000,6.959580078125,-0.38343143463134766,-0.14088428020477295,0.4129908084869385
1771072982274521000,6.96952099609375,-0.18340682983398438,-0.13943135738372803,0.9108021259307861
1771072982284461800,6.9794619140625,-0.00635528564453125,-0.2246638536453247,1.1947553157806396
1771072982294402600,6.989402587890625,0.2123565673828125,-0.2942763566970825,1.265220284461975
1771072982304343300,6.99934326171875,0.4131908416748047,-0.3166804313659668,1.1346073150634766
1771072982314284000,7.009283935546875,0.44370269775390625,-0.38744330406188965,0.9435144066810608
1771072982324225000,7.01922509765625,0.37152576446533203,-0.5323203206062317,0.6884892582893372
1771072982334165800,7.029165771484375,0.26177406311035156,-0.6650729775428772,0.32140520215034485
1771072982344106500,7.0391064453125,0.14105796813964844,-0.8137164115905762,-0.050923675298690796
1771072982354047200,7.049047119140625,-0.05730152130126953,-0.9316731691360474,-0.3810330331325531
1771072982363988000,7.058988037109375,-0.2972440719604492,-0.9715900421142578,-0.6894358396530151
1771072982373928700,7.0689287109375,-0.5690717697143555,-0.9292492866516113,-0.8886611461639404
1771072982383869700,7.07886962890625,-0.8559656143188477,-0.8337933421134949,-0.9038021564483643
1771072982393810400,7.088810546875,-1.1316804885864258,-0.6564475297927856,-0.7635481953620911
1771072982403751200,7.098751220703125,-1.3318586349487305,-0.4136478900909424,-0.6223567724227905
1771072982413692000,7.10869189453125,-1.4137706756591797,-0.13868486881256104,-0.5002561807632446
1771072982423632600,7.118632568359375,-1.5927400588989258,0.104500412940979,-0.3353126645088196
1771072982433573400,7.128573486328125,-1.7517175674438477,0.3245420455932617,-0.17184345424175262
1771072982443514400,7.138514404296875,-1.7452683448791504,0.5466729402542114,-0.08452022075653076
1771072982453455000,7.148455078125,-1.6239194869995117,0.727728009223938,0.005959123373031616
1771072982463395800,7.158395751953125,-1.4929475784301758,0.874495267868042,0.13053259253501892
1771072982473336600,7.168336669921875,-1.3307733535766602,0.9625920057296753,0.2189173698425293
1771072982483277300,7.17827734375,-1.1731023788452148,1.0153577327728271,0.2622651755809784
1771072982493218300,7.18821826171875,-1.1558475494384766,0.9966602325439453,0.28665387630462646
1771072982503159000,7.198158935546875,-1.2740440368652344,0.9822475910186768,0.42565131187438965
1771072982513099800,7.208099853515625,-1.2770309448242188,1.0228170156478882,0.5346217155456543
1771072982523040500,7.21804052734375,-1.1989068984985352,1.108805775642395,0.6030452251434326
1771072982532981200,7.227981201171875,-1.107203483581543,1.1877801418304443,0.724595844745636
1771072982542922000,7.237921875,-0.9212589263916016,1.176167607307434,0.8483399748802185
1771072982552863000,7.247863037109375,-0.581883430480957,1.0823123455047607,0.8787378668785095
1771072982562803700,7.2578037109375,-0.1182260513305664,0.9038807153701782,0.8155423402786255
1771072982572744400,7.267744384765625,0.3381690979003906,0.6707043647766113,0.7497043609619141
1771072982582685200,7.277685302734375,0.6730308532714844,0.4903777837753296,0.619906485080719
1771072982592626000,7.2876259765625,0.9084920883178711,0.3489569425582886,0.32178670167922974
1771072982602567000,7.29756689453125,0.9519729614257812,0.2617999315261841,0.03927997127175331
1771072982612507600,7.307507568359375,0.9403858184814453,0.1752375364303589,-0.140268936753273
1771072982622448400,7.317448486328125,1.1107254028320312,0.09459853172302246,-0.28978782892227173
1771072982632389000,7.32738916015625,1.2864389419555664,0.014314651489257812,-0.38188436627388
1771072982642329900,7.337329833984375,1.3079900741577148,-0.09205639362335205,-0.443098247051239
1771072982652270600,7.3472705078125,1.2021522521972656,-0.25622236728668213,-0.42172589898109436
1771072982662211600,7.357211669921875,1.2747802734375,-0.4343518018722534,-0.3684491217136383
1771072982672152300,7.36715234375,1.8407812118530273,-0.46650636196136475,-0.5038623213768005
1771072982682093000,7.377093017578125,2.4694480895996094,-0.11982536315917969,-0.9601544141769409
1771072982692033800,7.38703369140625,1.8975696563720703,0.3515491485595703,-1.2532196044921875
1771072982701974500,7.396974609375,0.2966737747192383,0.5420436859130859,-1.2277414798736572
1771072982711915300,7.406915283203125,-1.5595178604125977,0.5055203437805176,-0.9808217883110046
1771072982721856000,7.41685595703125,-2.8762855529785156,0.5602073669433594,-0.2295081615447998
1771072982731796700,7.426796630859375,-2.7240662574768066,0.8020243644714355,0.749393105506897
1771072982741737500,7.436737548828125,-1.0129547119140625,0.7961878776550293,1.3327378034591675
1771072982751678200,7.44667822265625,1.3369340896606445,0.4360795021057129,1.5864830017089844
1771072982761619000,7.456618896484375,3.470170021057129,-0.011600255966186523,1.7237982749938965
1771072982771559700,7.4665595703125,5.1178693771362305,-0.5351899862289429,1.16257643699646
1771072982781500400,7.47650048828125,5.497809410095215,-1.1435492038726807,0.12539923191070557
1771072982791441200,7.486441162109375,4.523550987243652,-1.6752921342849731,-1.0184439420700073
1771072982801382000,7.4963818359375,2.8308486938476562,-1.7128552198410034,-1.7634683847427368
1771072982811322600,7.506322509765625,1.0262317657470703,-1.344527006149292,-2.2164697647094727
1771072982821263400,7.516263427734375,-0.5293560028076172,-0.8947060108184814,-2.5496764183044434
1771072982831204000,7.5262041015625,-1.6811308860778809,-0.5657058954238892,-2.6157054901123047
1771072982841144800,7.536144775390625,-2.4078407287597656,-0.2544724941253662,-2.098261594772339
1771072982851085600,7.54608544921875,-2.862041473388672,-0.09600353240966797,-1.1659860610961914
1771072982861026300,7.5560263671875,-3.0881476402282715,-0.06764912605285645,-0.22399601340293884
1771072982870967000,7.565967041015625,-2.690779209136963,0.008097410202026367,0.44044041633605957
1771072982880907800,7.57590771484375,-1.584841251373291,0.006136178970336914,0.5918503403663635
1771072982890848500,7.5858486328125,-0.16628742218017578,-0.13073432445526123,0.5933541655540466
1771072982900789200,7.595789306640625,1.0674171447753906,-0.4045579433441162,0.7062075138092041
1771072982910730000,7.60572998046875,1.8273420333862305,-0.7366256713867188,0.7204552888870239
1771072982920670700,7.615670654296875,2.056086540222168,-1.0866361856460571,0.4872909486293793
1771072982930611500,7.625611572265625,1.7958040237426758,-1.434004783630371,0.02416309341788292
1771072982940552200,7.63555224609375,1.159280776977539,-1.640313744544983,-0.5036300420761108
1771072982950493000,7.645492919921875,0.33739471435546875,-1.7121717929840088,-0.9765093326568604
1771072982960433700,7.65543359375,-0.31696033477783203,-1.7469254732131958,-1.340407371520996
1771072982970374400,7.66537451171875,-0.7187290191650391,-1.7752876281738281,-1.5616573095321655
1771072982980315100,7.675315185546875,-0.961639404296875,-1.7043869495391846,-1.4882646799087524
1771072982990255600,7.685255615234375,-1.1676244735717773,-1.5288760662078857,-1.2699798345565796
1771072983000196400,7.6951962890625,-1.2193794250488281,-1.2680926322937012,-1.0268486738204956
1771072983010137000,7.70513720703125,-1.2770395278930664,-0.8976777195930481,-0.7342539429664612
1771072983020077800,7.715077880859375,-1.3309783935546875,-0.4899861812591553,-0.4303743839263916
1771072983030018600,7.7250185546875,-1.3764228820800781,-0.19538187980651855,-0.2174992710351944
1771072983039959300,7.734959228515625,-1.4731988906860352,-0.029322147369384766,-0.036716826260089874
1771072983049900000,7.744900146484375,-1.5856208801269531,0.11547577381134033,0.15316322445869446
1771072983059840800,7.7548408203125,-1.5993280410766602,0.2912862300872803,0.32322371006011963
1771072983069781500,7.764781494140625,-1.526759147644043,0.45429015159606934,0.44004395604133606
1771072983079722200,7.77472216796875,-1.4949140548706055,0.6248210668563843,0.48566463589668274
1771072983089663000,7.7846630859375,-1.5349884033203125,0.7395486831665039,0.5445807576179504
1771072983099603700,7.794603759765625,-1.561230182647705,0.7598806619644165,0.5612002611160278
1771072983109544400,7.80454443359375,-1.4235897064208984,0.7426419258117676,0.4917970895767212
1771072983119485200,7.814485107421875,-1.0508413314819336,0.6495691537857056,0.33882108330726624
1771072983129426000,7.824426025390625,-0.6464042663574219,0.4606136083602905,0.18365034461021423
1771072983139366700,7.83436669921875,-0.3772134780883789,0.2386777400970459,0.0779924988746643
1771072983149307400,7.844307373046875,-0.23550701141357422,0.08522248268127441,0.011625245213508606
1771072983159248100,7.854248046875,-0.04886913299560547,0.01140904426574707,-0.12250366806983948
1771072983169188900,7.86418896484375,0.25438404083251953,-0.012308359146118164,-0.30089718103408813
1771072983179129600,7.874129638671875,0.4258279800415039,-0.04684805870056152,-0.41402143239974976
1771072983189070600,7.884070556640625,0.5327119827270508,-0.08759951591491699,-0.4694894552230835
1771072983199011300,7.89401123046875,0.6876296997070312,-0.09464502334594727,-0.5235441327095032
1771072983208952000,7.9039521484375,0.8404550552368164,-0.049576520919799805,-0.45917633175849915
1771072983218892800,7.913892822265625,0.8479490280151367,-0.010157346725463867,-0.23921209573745728
1771072983228833500,7.92383349609375,0.714991569519043,0.05105018615722656,0.07223442196846008
1771072983238774300,7.933774169921875,0.5297708511352539,0.04807472229003906,0.3239842653274536
1771072983248715300,7.94371533203125,0.40662384033203125,-0.0741586685180664,0.47620099782943726
1771072983258656000,7.953656005859375,0.6173086166381836,-0.23025274276733398,0.35429975390434265
1771072983268596700,7.9635966796875,1.0439605712890625,-0.25336742401123047,-0.045501887798309326
1771072983278537500,7.973537353515625,1.1946163177490234,-0.2681097984313965,-0.25902825593948364
1771072983288478200,7.983478271484375,0.9559040069580078,-0.3004467487335205,0.00890854001045227
1771072983298419200,7.993419189453125,0.40227794647216797,-0.2546110153198242,0.5577133297920227
1771072983308360000,8.00335986328125,-0.13991641998291016,0.024693965911865234,1.1953877210617065
1771072983318300700,8.01330078125,-0.16130828857421875,0.4636204242706299,1.6654020547866821
1771072983328241400,8.023241455078125,0.5221624374389648,0.5857393741607666,1.8000473976135254
1771072983338182100,8.03318212890625,1.565079689025879,0.24656081199645996,1.7940336465835571
1771072983348123000,8.043122802734375,2.705063819885254,-0.27541255950927734,1.8709806203842163
1771072983358063900,8.05306396484375,3.8385753631591797,-0.8823148012161255,1.4914720058441162
1771072983368004600,8.063004638671876,4.557312965393066,-1.5199638605117798,0.6676244735717773
1771072983377945300,8.0729453125,4.3462724685668945,-2.0835208892822266,-0.2823810577392578
1771072983387886000,8.082885986328124,3.3573780059814453,-2.269172430038452,-1.0401816368103027
1771072983397826800,8.092826904296874,1.8865528106689453,-1.958099603652954,-1.2220635414123535
1771072983407767600,8.102767578125,0.3377370834350586,-1.5055201053619385,-1.420967936515808
1771072983417708500,8.11270849609375,-1.2713794708251953,-1.0928781032562256,-1.4419647455215454
1771072983427649300,8.122649169921875,-2.706908702850342,-0.645437479019165,-1.042438268661499
1771072983437590000,8.132590087890625,-3.3296780586242676,-0.21991264820098877,-0.4055257737636566
1771072983447530800,8.14253076171875,-2.8901476860046387,0.06600487232208252,0.3563930094242096
1771072983457471500,8.152471435546875,-1.2973260879516602,0.06650233268737793,0.9421204328536987
1771072983467412500,8.16241259765625,0.3708982467651367,-0.141648530960083,1.1576584577560425
1771072983477353200,8.172353271484376,1.7412433624267578,-0.4352445602416992,1.4183684587478638
1771072983487294000,8.1822939453125,2.517176628112793,-0.7315356731414795,1.4554482698440552
1771072983497234700,8.192234619140624,2.56479549407959,-1.0126581192016602,1.131879448890686
1771072983507175400,8.202175537109374,1.6211872100830078,-1.2640572786331177,0.6086913347244263
1771072983517116200,8.2121162109375,0.08490562438964844,-1.3388817310333252,0.16475051641464233
1771072983527057200,8.22205712890625,-1.183868408203125,-1.2569267749786377,-0.06680548936128616
1771072983536998000,8.231997802734375,-1.8859868049621582,-1.0583094358444214,-0.19443194568157196
1771072983546938600,8.241938720703125,-2.0950069427490234,-0.8847578167915344,-0.35710281133651733
1771072983556879400,8.25187939453125,-2.050657272338867,-0.8530555367469788,-0.3833436369895935
1771072983566820000,8.261820068359375,-2.0322728157043457,-0.890536367893219,-0.23389771580696106
1771072983576760800,8.2717607421875,-2.0178098678588867,-0.858961284160614,-0.09527948498725891
1771072983586701800,8.281701904296876,-1.9304800033569336,-0.7149347066879272,-0.05191120505332947
1771072983596642600,8.291642578125,-1.9827985763549805,-0.5120748281478882,-0.017974048852920532
1771072983606583300,8.301583251953126,-2.1340107917785645,-0.32093310356140137,0.08544550836086273
1771072983616524000,8.31152392578125,-2.248180389404297,-0.10815691947937012,0.19715221226215363
1771072983626464800,8.32146484375,-2.2757315635681152,0.09782135486602783,0.20315386354923248
1771072983636405800,8.33140576171875,-2.3129806518554688,0.3123217821121216,0.18114794790744781
1771072983646346500,8.341346435546875,-2.3770828247070312,0.5067245960235596,0.12370318174362183
1771072983656287200,8.351287353515625,-2.3944082260131836,0.6780173778533936,-0.01897352933883667
1771072983666228000,8.36122802734375,-2.255430221557617,0.8242449760437012,-0.09610319137573242
1771072983676168700,8.371168701171875,-2.0511531829833984,0.920654296875,-0.06535491347312927
1771072983686109400,8.381109375,-1.8653230667114258,1.0220067501068115,0.057869285345077515
1771072983696050200,8.39105029296875,-1.6931447982788086,1.1352031230926514,0.20975710451602936
1771072983705991000,8.400990966796876,-1.4940881729125977,1.205432415008545,0.3456379473209381
1771072983715931600,8.410931640625,-1.1774415969848633,1.211233139038086,0.4941076636314392
1771072983725872400,8.420872314453124,-0.7291479110717773,1.1220028400421143,0.5777143836021423
1771072983735813000,8.430813232421874,-0.24480628967285156,0.9970502853393555,0.6395132541656494
1771072983745753900,8.44075390625,0.3858814239501953,0.8943278789520264,0.6442747712135315
1771072983755694600,8.450694580078125,0.886021614074707,0.8193273544311523,0.5325868129730225
1771072983765635300,8.46063525390625,1.1414165496826172,0.7430176734924316,0.3523057699203491
1771072983775576000,8.470576171875,1.4366874694824219,0.573244571685791,0.10416576266288757
1771072983785516800,8.480516845703125,1.7792158126831055,0.3352311849594116,-0.24641594290733337
1771072983795457500,8.49045751953125,1.9973840713500977,0.07720756530761719,-0.5347360372543335
1771072983805398300,8.500398193359375,2.161288261413574,-0.1723496913909912,-0.8194648027420044
1771072983815339000,8.510339111328125,2.147319793701172,-0.3084641695022583,-0.9738435745239258
1771072983825279700,8.52027978515625,1.9130258560180664,-0.2968257665634155,-0.856550931930542
1771072983835220500,8.530220458984376,1.7117624282836914,-0.16597914695739746,-0.6166892051696777
1771072983845161200,8.5401611328125,1.8442697525024414,0.1578768491744995,-0.5419708490371704
1771072983855102000,8.55010205078125,1.8636274337768555,0.5490152835845947,-0.58063143491745
1771072983865042700,8.560042724609374,1.2639179229736328,0.7739561796188354,-0.5357235670089722
1771072983874983400,8.5699833984375,0.10730934143066406,0.9009512662887573,-0.27089619636535645
1771072983884924000,8.579923828125,-1.0824403762817383,1.0865191221237183,0.3647645115852356
1771072983894864600,8.58986474609375,-1.5226926803588867,1.3560149669647217,1.079427719116211
1771072983904805400,8.599805419921875,-0.6386737823486328,1.3928438425064087,1.502071738243103
1771072983914746000,8.60974609375,1.1170282363891602,0.8851677179336548,1.425708293914795
1771072983924686800,8.619686767578125,2.8671045303344727,0.2549949884414673,1.3693828582763672
1771072983934627600,8.629627685546875,4.414356231689453,-0.4372711181640625,0.9073586463928223
1771072983944568300,8.639568359375,5.141283988952637,-1.2141640186309814,0.10920053720474243
1771072983954509000,8.649509033203126,4.669426918029785,-1.8587501049041748,-0.762737512588501
1771072983964449800,8.65944970703125,3.1186647415161133,-2.046964645385742,-1.4117196798324585
1771072983974390500,8.669390625,1.2372121810913086,-1.5343092679977417,-1.4842514991760254
1771072983984331300,8.679331298828124,-0.3561534881591797,-0.7105721235275269,-1.489508867263794
1771072983994272000,8.68927197265625,-1.6148953437805176,-0.06396162509918213,-1.4644020795822144
1771072984004212700,8.699212646484375,-2.4756522178649902,0.44715559482574463,-1.0504674911499023
1771072984014153500,8.709153564453125,-2.7022504806518555,0.7577747106552124,-0.38777536153793335
1771072984024094200,8.71909423828125,-2.157896041870117,0.8271965980529785,0.3774707317352295
1771072984034035000,8.729034912109375,-0.8381471633911133,0.6308168172836304,0.8314168453216553
1771072984043975700,8.7389755859375,0.3761634826660156,0.18585574626922607,0.8048653602600098
1771072984053916400,8.74891650390625,1.2722644805908203,-0.26358604431152344,0.7500187158584595
1771072984063857200,8.758857177734376,1.7900819778442383,-0.6422479152679443,0.5729120373725891
1771072984073798000,8.7687978515625,1.85723876953125,-1.0316612720489502,0.2633436918258667
1771072984083738600,8.778738525390626,1.5081281661987305,-1.375203013420105,-0.11441220343112946
1771072984093679400,8.788679443359374,1.1204957962036133,-1.6131945848464966,-0.579093337059021
1771072984103620000,8.7986201171875,0.7608318328857422,-1.7508715391159058,-0.9828933477401733
1771072984113560800,8.808560791015625,0.3570995330810547,-1.8610178232192993,-1.2647916078567505
1771072984123501600,8.81850146484375,0.031083106994628906,-1.979037880897522,-1.4168736934661865
1771072984133442300,8.8284423828125,-0.30562496185302734,-2.0463550090789795,-1.3890554904937744
1771072984143383000,8.838383056640625,-0.5884943008422852,-1.9778426885604858,-1.2252395153045654
1771072984153323800,8.84832373046875,-0.5810003280639648,-1.6970257759094238,-1.1005611419677734
1771072984163264500,8.858264404296875,-0.33110904693603516,-1.2889224290847778,-1.0591920614242554
1771072984173205200,8.868205322265625,-0.23760509490966797,-0.9317709803581238,-0.9820934534072876
1771072984183146000,8.87814599609375,-0.3091421127319336,-0.7258150577545166,-0.8099230527877808
1771072984193087000,8.8880869140625,-0.5283031463623047,-0.5207968950271606,-0.48527705669403076
1771072984212968400,8.907968505859374,-1.140848159790039,-0.06186175346374512,-0.07215215265750885
1771072984222909200,8.9179091796875,-1.2076921463012695,0.14766335487365723,0.13407842814922333
1771072984232850000,8.927849853515625,-1.0818424224853516,0.34795689582824707,0.3195899724960327
1771072984242791000,8.937791015625,-0.8429756164550781,0.4667712450027466,0.5103083252906799
1771072984252731600,8.947731689453125,-0.6566648483276367,0.47879552841186523,0.6146863102912903
1771072984262672400,8.95767236328125,-0.7121543884277344,0.4593532085418701,0.6105390787124634
1771072984272613000,8.967613037109375,-1.0241212844848633,0.408369779586792,0.5776894092559814
1771072984282553900,8.977553955078125,-1.3971805572509766,0.3892092704772949,0.4797942638397217
1771072984292494600,8.98749462890625,-1.7627110481262207,0.3544950485229492,0.2928595542907715
1771072984302435600,8.997435546875,-2.0732436180114746,0.21711063385009766,0.06592422723770142
1771072984312376300,9.007376220703126,-2.3261303901672363,0.07676410675048828,-0.09249341487884521
1771072984322317000,9.017317138671874,-2.363189220428467,-0.018174171447753906,-0.16150358319282532
1771072984332257800,9.0272578125,-2.131503105163574,0.015172004699707031,-0.09694451093673706
1771072984342198500,9.037198486328125,-1.6619296073913574,0.13721895217895508,0.061417192220687866
1771072984352139300,9.04713916015625,-1.2195682525634766,0.3329474925994873,0.2518797814846039
1771072984362080300,9.057080322265625,-0.9021034240722656,0.45767831802368164,0.3801802396774292
1771072984372021000,9.06702099609375,-0.7762556076049805,0.5025770664215088,0.4329100549221039
1771072984381961700,9.076961669921875,-0.6125297546386719,0.5194611549377441,0.46691763401031494
1771072984391902500,9.08690234375,-0.33494091033935547,0.41895341873168945,0.4015584886074066
1771072984401843200,9.09684326171875,-0.11123180389404297,0.16149282455444336,0.37802964448928833
1771072984411784200,9.1067841796875,-0.029964447021484375,-0.20361995697021484,0.4186955392360687
1771072984421725000,9.116724853515626,0.08551788330078125,-0.5285626649856567,0.4245217442512512
1771072984431665700,9.126665771484374,0.32080841064453125,-0.7142577171325684,0.390877366065979
1771072984441606400,9.1366064453125,0.9908466339111328,-0.7661393880844116,0.09838449954986572
1771072984451547100,9.146547119140624,1.6820077896118164,-0.683416485786438,-0.3335166573524475
1771072984461487900,9.15648779296875,1.7217473983764648,-0.581063985824585,-0.4897785782814026
1771072984471428900,9.166428955078125,0.9282922744750977,-0.3052809238433838,-0.04706302285194397
1771072984481369600,9.17636962890625,-0.06898880004882812,0.12930655479431152,0.47210851311683655
1771072984491310300,9.186310302734375,-0.6906585693359375,0.5846118927001953,0.777808427810669
1771072984501251000,9.1962509765625,-0.532588005065918,0.9732255935668945,1.1861085891723633
1771072984511191800,9.20619189453125,0.3746919631958008,0.949763298034668,1.4161064624786377
1771072984521132500,9.216132568359376,1.4308137893676758,0.492250919342041,1.5418117046356201
1771072984531073500,9.226073486328126,2.438584327697754,-0.036737918853759766,1.7240873575210571
1771072984541014300,9.23601416015625,3.8272809982299805,-0.5146044492721558,1.437568187713623
1771072984550955000,9.245955078125,4.883427619934082,-0.9906182885169983,0.8379400968551636
1771072984560895700,9.255895751953124,5.568342208862305,-1.4722206592559814,0.15807455778121948
1771072984570836500,9.26583642578125,5.390951156616211,-1.918546438217163,-0.3250434398651123
1771072984580777500,9.275777587890625,4.291223526000977,-2.1162033081054688,-0.6747816801071167
1771072984590718200,9.28571826171875,2.715311050415039,-1.8941948413848877,-0.7530699968338013
1771072984600659000,9.295658935546875,1.2413396835327148,-1.3896453380584717,-0.45396697521209717
1771072984610599700,9.305599609375,0.15433502197265625,-0.8998066186904907,-0.17467162013053894
1771072984620540400,9.31554052734375,-0.5671672821044922,-0.5363398790359497,0.2132101058959961
1771072984630481200,9.325481201171876,-0.7486200332641602,-0.37970399856567383,0.5881638526916504
1771072984640422000,9.335421875,-0.49002647399902344,-0.38547229766845703,0.803932785987854
1771072984650362600,9.345362548828126,-0.13393878936767578,-0.42047321796417236,0.9210898280143738
1771072984660303400,9.355303466796874,-0.10514450073242188,-0.3793916702270508,1.0150492191314697
1771072984670244000,9.365244140625,-0.3926115036010742,-0.2728445529937744,1.0932390689849854
1771072984680184800,9.375184814453124,-0.7419347763061523,-0.19065892696380615,1.0265464782714844
1771072984690125600,9.38512548828125,-1.164698600769043,-0.18082106113433838,0.9383820295333862
1771072984700066300,9.39506640625,-1.7418432235717773,-0.2352280616760254,0.7783507108688354
1771072984710007000,9.405007080078125,-2.253392219543457,-0.34955084323883057,0.5167776346206665
1771072984719947800,9.41494775390625,-2.577901840209961,-0.4550207853317261,0.19375938177108765
1771072984729888500,9.424888427734375,-2.7159981727600098,-0.617389440536499,-0.2163437306880951
1771072984739829200,9.434829345703125,-2.6226792335510254,-0.81779944896698,-0.6234732270240784
1771072984749770000,9.44477001953125,-2.4247255325317383,-0.9817929267883301,-0.8880839347839355
1771072984759710700,9.454710693359376,-2.2127323150634766,-1.0329821109771729,-0.9014797806739807
1771072984769651500,9.4646513671875,-2.0053510665893555,-0.9288545250892639,-0.8003100752830505
1771072984779592200,9.47459228515625,-1.8906259536743164,-0.7073044776916504,-0.7548561096191406
1771072984789533000,9.484532958984374,-1.8204269409179688,-0.4912770986557007,-0.8053483963012695
1771072984799473700,9.4944736328125,-1.8687267303466797,-0.2781933546066284,-0.8088949918746948
1771072984809414400,9.504414306640625,-1.9733715057373047,-0.08128142356872559,-0.7488366365432739
1771072984819355100,9.514355224609375,-2.005551815032959,0.1436823606491089,-0.637998640537262
1771072984829295600,9.524295654296875,-1.9753918647766113,0.3934609889984131,-0.4428306221961975
1771072984839236400,9.534236328125,-1.8091473579406738,0.6254185438156128,-0.2873927354812622
1771072984849177000,9.544177001953125,-1.5526542663574219,0.8091797828674316,-0.10462288558483124
1771072984859117800,9.554117919921875,-1.3065462112426758,0.8954228162765503,0.11101573705673218
1771072984869058600,9.56405859375,-1.223958969116211,0.9147719144821167,0.38255032896995544
1771072984878999300,9.573999267578126,-0.9944849014282227,0.9319025278091431,0.5952661037445068
1771072984888940000,9.58393994140625,-0.6352214813232422,0.9685077667236328,0.7557120323181152
1771072984898880800,9.593880859375,-0.2800722122192383,0.9808613061904907,0.9032590985298157
1771072984908821500,9.603821533203124,0.09276199340820312,0.8720003366470337,0.9227799773216248
1771072984918762200,9.61376220703125,0.5362396240234375,0.6732344627380371,0.7781606912612915
1771072984928703000,9.623702880859375,0.9528131484985352,0.43447649478912354,0.5249598026275635
1771072984938643700,9.633643798828125,1.2953433990478516,0.23405170440673828,0.21888752281665802
1771072984948584400,9.64358447265625,1.5189456939697266,0.07974565029144287,-0.04178592562675476
1771072984968466000,9.6634658203125,1.4603261947631836,-0.08596432209014893,-0.32166337966918945
1771072984978406700,9.67340673828125,1.2572298049926758,-0.03786909580230713,-0.27544400095939636
1771072984988347400,9.683347412109375,0.983586311340332,0.07170975208282471,-0.1608087122440338
1771072984998288100,9.6932880859375,0.6891403198242188,0.15226030349731445,-0.09701517224311829
1771072985008228900,9.703228759765626,0.5812549591064453,0.1291733980178833,-0.07803887128829956
1771072985018169600,9.713169677734374,0.7382745742797852,-0.01670551300048828,0.004731982946395874
1771072985028110300,9.7231103515625,1.0736865997314453,-0.18987023830413818,0.05562064051628113
1771072985038051000,9.733051025390624,1.697321891784668,-0.2004411220550537,-0.14640873670578003
1771072985047991800,9.74299169921875,2.0027828216552734,0.0721888542175293,-0.4783414602279663
1771072985057932500,9.7529326171875,1.3271026611328125,0.42398715019226074,-0.5653852224349976
1771072985067873300,9.762873291015625,0.18244266510009766,0.6429518461227417,-0.4274158179759979
1771072985077814000,9.77281396484375,-0.8305082321166992,0.7000601291656494,-0.16666343808174133
1771072985087754800,9.782754638671875,-1.1577138900756836,0.8401669263839722,0.4784708023071289
1771072985097695500,9.792695556640625,-0.4650726318359375,0.9341717958450317,1.070786952972412
1771072985107636200,9.80263623046875,1.0048465728759766,0.7359452247619629,1.2402437925338745
1771072985117577000,9.812576904296876,2.634272575378418,0.3561171293258667,1.4032037258148193
1771072985127517700,9.822517578125,3.9142627716064453,-0.05382668972015381,1.2903873920440674
1771072985137458400,9.83245849609375,4.718807220458984,-0.45333659648895264,0.6750472784042358
1771072985147399200,9.842399169921874,4.806972503662109,-0.814132571220398,-0.2176344394683838
1771072985157340000,9.85233984375,4.021151542663574,-1.0427665710449219,-1.0787183046340942
1771072985167280600,9.86228076171875,2.6399145126342773,-0.9662164449691772,-1.4458231925964355
1771072985177221400,9.872221435546875,1.1312227249145508,-0.6762430667877197,-1.5855145454406738
1771072985187162400,9.882162353515625,-0.15557289123535156,-0.32082414627075195,-1.7548861503601074
1771072985197103000,9.89210302734375,-1.2565460205078125,-0.0627131462097168,-1.7194619178771973
1771072985207043800,9.9020439453125,-1.980532169342041,0.18915009498596191,-1.3922287225723267
1771072985216984600,9.911984619140625,-2.17421293258667,0.3054925203323364,-0.9014959335327148
1771072985226925300,9.92192529296875,-1.9631261825561523,0.16766071319580078,-0.43489494919776917
1771072985236866000,9.931865966796876,-1.1779003143310547,-0.1312696933746338,-0.12443417310714722
1771072985246807000,9.94180712890625,-0.2030496597290039,-0.36717963218688965,0.04127824306488037
1771072985256747800,9.951747802734374,0.6972665786743164,-0.4599531888961792,0.25387147068977356
1771072985266688500,9.9616884765625,1.5772514343261719,-0.5602693557739258,0.3002575933933258
1771072985276629200,9.971629150390624,2.192232131958008,-0.7278788089752197,0.22162224352359772
1771072985286570000,9.981570068359375,2.3096351623535156,-0.9494419097900391,0.11099718511104584
1771072985296511000,9.991510986328125,1.8306169509887695,-1.2272613048553467,-0.10387921333312988
1771072985306451700,10.00145166015625,0.8350458145141602,-1.37522554397583,-0.2721133530139923
1771072985316392400,10.011392333984375,-0.22067642211914062,-1.3969919681549072,-0.459033340215683
1771072985326333200,10.021333251953125,-1.0769996643066406,-1.394849181175232,-0.710100531578064
1771072985336274000,10.03127392578125,-1.773338794708252,-1.395861268043518,-0.8612253665924072
1771072985346214700,10.041214599609376,-2.2986888885498047,-1.3541910648345947,-0.8215492367744446
1771072985356155600,10.05115576171875,-2.6084866523742676,-1.2778513431549072,-0.7877164483070374
1771072985366096400,10.061096435546874,-2.6053104400634766,-1.1603496074676514,-0.7677581310272217
1771072985376037000,10.071037109375,-2.5236196517944336,-1.037238359451294,-0.6003718376159668
1771072985385977900,10.080977783203124,-2.423025608062744,-0.8718968629837036,-0.338515043258667
1771072985395918600,10.090918701171875,-2.2651991844177246,-0.6318249702453613,-0.1022072583436966
1771072985405859300,10.100859375,-2.028545379638672,-0.3492896556854248,0.04686686396598816
1771072985415800300,10.11080029296875,-1.789273738861084,-0.08815491199493408,0.144561305642128
1771072985425741000,10.120740966796875,-1.6688427925109863,0.13124549388885498,0.2865108251571655
1771072985435681800,10.130681884765625,-1.7434191703796387,0.29770708084106445,0.45737019181251526
1771072985445622500,10.14062255859375,-1.9891576766967773,0.42624223232269287,0.5820598006248474
1771072985455563300,10.150563232421876,-2.1725692749023438,0.5981835126876831,0.6252780556678772
1771072985465504300,10.160504150390626,-2.3496060371398926,0.7289345264434814,0.5159213542938232
1771072985475445000,10.170445068359374,-2.4708523750305176,0.7188596725463867,0.330712229013443
1771072985485385700,10.1803857421875,-2.4652175903320312,0.6152381896972656,0.11929811537265778
1771072985495326500,10.190326416015624,-2.2972359657287598,0.47796630859375,-0.09391289949417114
1771072985505267200,10.20026708984375,-1.9264016151428223,0.33913087844848633,-0.2265579253435135
1771072985515208000,10.2102080078125,-1.4051837921142578,0.2798011302947998,-0.264896422624588
1771072985525149000,10.22014892578125,-0.776270866394043,0.22272562980651855,-0.28458791971206665
1771072985535089700,10.230089599609375,-0.17530441284179688,0.16189360618591309,-0.3614376187324524
1771072985545030400,10.240030517578125,0.20027828216552734,0.13430190086364746,-0.49633917212486267
1771072985554971100,10.24997119140625,0.44467830657958984,0.07038617134094238,-0.6874435544013977
1771072985564911900,10.259911865234375,0.46296215057373047,-0.055145263671875,-0.9015902280807495
1771072985574852600,10.2698525390625,0.2317657470703125,-0.17982745170593262,-1.0454336404800415
1771072985584793300,10.27979345703125,-0.18911075592041016,-0.18859326839447021,-0.9842861294746399
1771072985594734000,10.289734130859374,-0.44890689849853516,-0.08478379249572754,-0.7857951521873474
1771072985604674800,10.2996748046875,-0.5272254943847656,0.0943223237991333,-0.4883762300014496
1771072985614615600,10.309615478515624,-0.44651126861572266,0.1959747076034546,-0.09658124297857285
1771072985624556300,10.319556396484375,-0.14773082733154297,0.1767408847808838,0.3295796513557434
1771072985634497000,10.3294970703125,0.4690542221069336,0.10811984539031982,0.6067239046096802
1771072985644437800,10.339437744140625,1.300736427307129,0.0430302619934082,0.616218090057373
1771072985654378500,10.34937841796875,2.2494373321533203,0.03450191020965576,0.32687729597091675
1771072985664319200,10.3593193359375,2.5585975646972656,0.011994600296020508,0.1210719645023346
1771072985674260000,10.369260009765625,1.740748405456543,0.013471603393554688,0.2834722101688385
1771072985684200700,10.37920068359375,0.6147594451904297,0.17844927310943604,0.6389951705932617
1771072985694141400,10.389141357421876,-0.17571163177490234,0.5046113729476929,1.0242966413497925
1771072985704082200,10.399082275390626,-0.1025247573852539,0.9102739095687866,1.4793930053710938
1771072985714023000,10.40902294921875,0.9633674621582031,0.9496495723724365,1.6662930250167847
1771072985723963600,10.418963623046874,2.4688644409179688,0.5202524662017822,1.783698320388794
1771072985733904400,10.428904296875,3.8410415649414062,-0.03280520439147949,2.051846504211426
1771072985743845000,10.43884521484375,4.9619293212890625,-0.6570836901664734,1.7978157997131348
1771072985753785900,10.448785888671875,5.945695877075195,-1.353272557258606,0.8919754028320312
1771072985763726600,10.4587265625,6.3562421798706055,-2.0724964141845703,-0.11960798501968384
1771072985773667300,10.468667236328125,5.8277130126953125,-2.6759490966796875,-1.1103196144104004
1771072985783608000,10.478608154296875,4.496826171875,-2.9382214546203613,-1.7967969179153442
1771072985793548800,10.488548828125,2.817220687866211,-2.721890926361084,-1.9618124961853027
1771072985803489500,10.498489501953125,1.059453010559082,-2.1860756874084473,-1.9459956884384155
1771072985813430300,10.50843017578125,-0.5311641693115234,-1.6244995594024658,-1.8582392930984497
1771072985823371000,10.51837109375,-1.925626277923584,-0.9894390106201172,-1.3194491863250732
1771072985833311700,10.528311767578124,-2.529214859008789,-0.19714069366455078,-0.24957916140556335
1771072985843252500,10.53825244140625,-2.4142842292785645,0.5652945041656494,1.15566885471344
1771072985853193200,10.548193115234374,-1.5874080657958984,1.1397044658660889,2.415248155593872
1771072985863133700,10.5581337890625,-0.3888568878173828,1.3670505285263062,2.946547746658325
1771072985873074400,10.568074462890625,0.6531562805175781,1.115360975265503,2.82008957862854
1771072985883015200,10.57801513671875,1.1713504791259766,0.5850841999053955,2.564228057861328
1771072985892956000,10.587955810546875,1.1811628341674805,0.028293609619140625,2.250809907913208
1771072985902896600,10.597896728515625,0.9367246627807617,-0.38490569591522217,1.6797007322311401
1771072985912837400,10.60783740234375,0.3455982208251953,-0.6948619484901428,1.0371466875076294
1771072985922778000,10.617778076171875,-0.4073219299316406,-0.9142738580703735,0.4138391613960266
1771072985932718800,10.62771875,-1.0754241943359375,-1.0850125551223755,0.037137992680072784
1771072985942659600,10.63765966796875,-1.5463953018188477,-1.176044225692749,-0.17071335017681122
1771072985952600300,10.647600341796876,-1.7367949485778809,-1.2184697389602661,-0.4486684799194336
1771072985962541000,10.657541015625,-1.668400764465332,-1.224045991897583,-0.6899293065071106
1771072985972481800,10.667481689453124,-1.499037742614746,-1.1746115684509277,-0.7586592435836792
1771072985982422500,10.677422607421875,-1.3742704391479492,-1.0827397108078003,-0.6372211575508118
1771072985992363300,10.68736328125,-1.3224821090698242,-0.8850956559181213,-0.4173817038536072
1771072986002304000,10.697303955078125,-1.262359619140625,-0.5250837206840515,-0.24446770548820496
1771072986012244700,10.70724462890625,-1.170029640197754,-0.1642094850540161,-0.1873023808002472
1771072986022185500,10.717185546875,-1.2460174560546875,0.09132301807403564,-0.15316972136497498
1771072986032126200,10.727126220703125,-1.7026724815368652,0.2164475917816162,-0.041430145502090454
1771072986042067000,10.73706689453125,-2.2268972396850586,0.2955590486526489,0.021555960178375244
1771072986052007700,10.747007568359376,-2.642637252807617,0.42704105377197266,0.07577788829803467
1771072986061948400,10.756948486328126,-2.743116855621338,0.6099717617034912,0.09509941935539246
1771072986071889200,10.76688916015625,-2.641727924346924,0.7789753675460815,0.06433635950088501
1771072986081830000,10.776829833984374,-2.3413610458374023,0.8689897060394287,0.0424099862575531
1771072986091770600,10.7867705078125,-1.8039946556091309,0.8282197713851929,-0.008110255002975464
1771072986101711400,10.79671142578125,-1.1632251739501953,0.6819216012954712,-0.028751403093338013
1771072986111652000,10.806652099609375,-0.7411785125732422,0.5541499853134155,0.03524482250213623
1771072986121592800,10.8165927734375,-0.43682384490966797,0.49169421195983887,0.07425156235694885
1771072986131533600,10.826533447265625,-0.1304941177368164,0.4830533266067505,0.02781142294406891
1771072986141474300,10.836474365234375,0.1133413314819336,0.43762099742889404,-0.03674347698688507
1771072986151415000,10.8464150390625,0.2661428451538086,0.3533972501754761,-0.053238824009895325
1771072986171296500,10.866296630859376,0.40903568267822266,0.2630993127822876,-0.048246145248413086
1771072986181237200,10.8762373046875,0.2774772644042969,0.2910269498825073,-0.10218794643878937
1771072986191178000,10.886177978515626,0.048155784606933594,0.36582112312316895,-0.15033777058124542
1771072986201119000,10.896118896484374,-0.004300117492675781,0.5027137994766235,-0.19194674491882324
1771072986211059700,10.906059814453124,0.09580516815185547,0.6439259052276611,-0.22134780883789062
1771072986221000400,10.91600048828125,0.2360973358154297,0.7952065467834473,-0.11630354821681976
1771072986230941200,10.925941162109375,0.3188362121582031,0.9072748422622681,0.03708438575267792
1771072986240882000,10.9358818359375,0.3394813537597656,0.9487119913101196,0.15265734493732452
1771072986250822700,10.94582275390625,0.4224700927734375,0.9718401432037354,0.19295790791511536
1771072986260763600,10.955763671875,0.6729068756103516,1.0094211101531982,0.058544475585222244
1771072986270704400,10.965704345703125,0.9067897796630859,1.3014801740646362,-0.3619788885116577
1771072986280645000,10.97564501953125,0.5988178253173828,1.809415340423584,-0.7936583757400513
1771072986290585900,10.9855859375,-0.42699527740478516,2.151547908782959,-0.6342911720275879
1771072986300526600,10.995526611328126,-1.8961472511291504,2.4323439598083496,0.6339623332023621
1771072986310467600,11.005467529296874,-2.4329166412353516,2.9649174213409424,2.1846022605895996
1771072986320408300,11.015408203125,-1.0550251007080078,3.6333110332489014,3.115241289138794
1771072986330349000,11.02534912109375,1.7740468978881836,3.7615299224853516,3.301246166229248
1771072986340289800,11.035289794921875,4.201007843017578,3.1444225311279297,3.270498037338257
1771072986350230500,11.04523046875,5.589132308959961,1.7924792766571045,2.807715892791748
1771072986360171300,11.055171142578125,6.513088226318359,0.27871131896972656,1.745224952697754
1771072986370112300,11.0651123046875,7.039705276489258,-1.052276372909546,0.22292554378509521
1771072986380053000,11.075052978515625,6.776906967163086,-2.1695711612701416,-1.4162646532058716
1771072986389993700,11.08499365234375,5.5763750076293945,-2.8412070274353027,-2.6600630283355713
1771072986399934500,11.0949345703125,3.7553281784057617,-3.0128231048583984,-3.2006566524505615
1771072986409875200,11.104875244140626,1.774876594543457,-2.585312604904175,-2.9979724884033203
1771072986419816000,11.11481591796875,0.2186298370361328,-1.8708229064941406,-2.5654897689819336
1771072986429757000,11.1247568359375,-1.0383577346801758,-1.285218596458435,-2.2083017826080322
1771072986439697700,11.13469775390625,-1.662156105041504,-0.7022063732147217,-1.5873550176620483
1771072986449638400,11.144638427734375,-1.5835351943969727,-0.32654106616973877,-0.798062801361084
1771072986459579100,11.1545791015625,-1.255040168762207,-0.3267662525177002,-0.2030898630619049
1771072986469520000,11.164519775390625,-0.8050327301025391,-0.7035841941833496,-0.14108803868293762
1771072986479460900,11.1744609375,-0.6985721588134766,-1.2013493776321411,-0.3843313455581665
1771072986489401600,11.184401611328125,-0.8748846054077148,-1.4507256746292114,-0.4405014216899872
1771072986499342300,11.19434228515625,-0.8959980010986328,-1.5320687294006348,-0.44555142521858215
1771072986509283000,11.204282958984376,-0.8811130523681641,-1.5866563320159912,-0.4935848116874695
1771072986519223800,11.214223876953126,-1.1237554550170898,-1.6066380739212036,-0.30182284116744995
1771072986529164500,11.22416455078125,-1.5447874069213867,-1.6028388738632202,-0.04977977275848389
1771072986539105500,11.23410546875,-1.7885746955871582,-1.6105077266693115,-0.09418478608131409
1771072986549046300,11.24404638671875,-1.6406440734863281,-1.6103436946868896,-0.2963930368423462
1771072986558987000,11.253987060546875,-1.3236093521118164,-1.6212939023971558,-0.42525070905685425
1771072986568927700,11.263927734375,-1.0759820938110352,-1.6853324174880981,-0.5418251752853394
1771072986578868500,11.273868408203125,-0.9183750152587891,-1.7726410627365112,-0.5795315504074097
1771072986588809200,11.283809326171875,-0.9647026062011719,-1.8762496709823608,-0.6101686954498291
1771072986598750000,11.29375,-1.3506040573120117,-1.9603877067565918,-0.48598557710647583
1771072986608690700,11.303690673828125,-1.7772250175476074,-1.9221113920211792,-0.34974443912506104
1771072986618631400,11.31363134765625,-2.037590503692627,-1.7710102796554565,-0.28907740116119385
1771072986628572200,11.323572265625,-1.8915019035339355,-1.5586787462234497,-0.21786487102508545
1771072986638513000,11.333512939453126,-1.5526037216186523,-1.408597469329834,-0.16771234571933746
1771072986648453600,11.34345361328125,-1.1211986541748047,-1.344292163848877,-0.25744467973709106
1771072986658394000,11.35339404296875,-0.8046503067016602,-1.32586669921875,-0.4340646266937256
1771072986668334800,11.3633349609375,-0.7072267532348633,-1.296400547027588,-0.5555411577224731
1771072986678275600,11.373275634765625,-0.8545675277709961,-1.1944973468780518,-0.5390616059303284
1771072986688216300,11.38321630859375,-1.227402687072754,-1.0062689781188965,-0.4446907639503479
1771072986698157000,11.393156982421875,-1.5297694206237793,-0.7545922994613647,-0.22642379999160767
1771072986708097800,11.403097900390625,-1.8008289337158203,-0.47674524784088135,0.01215711236000061
1771072986718038500,11.41303857421875,-2.113182544708252,-0.09496617317199707,0.38451823592185974
1771072986727979300,11.422979248046875,-2.291025161743164,0.31148815155029297,0.7754165530204773
1771072986737920000,11.432919921875,-1.9986796379089355,0.7385139465332031,0.9394771456718445
1771072986747860700,11.44286083984375,-1.315873146057129,1.0075950622558594,0.8511377573013306
1771072986757801500,11.452801513671876,-0.5817031860351562,1.0276546478271484,0.7528648972511292
1771072986767742200,11.4627421875,-0.17249202728271484,0.8270096778869629,0.6643550395965576
1771072986777683000,11.472682861328124,-0.19179153442382812,0.5800905227661133,0.48073869943618774
1771072986787623700,11.482623779296874,-0.4258394241333008,0.3708970546722412,0.2573194205760956
1771072986797564400,11.492564453125,-0.6356878280639648,0.2163701057434082,0.1522846519947052
1771072986807505200,11.502505126953125,-0.5686016082763672,0.1452326774597168,0.024567604064941406
1771072986817446000,11.51244580078125,-0.09634208679199219,0.11949825286865234,-0.06915086507797241
1771072986827386600,11.52238671875,0.46042919158935547,0.06972551345825195,-0.04091155529022217
1771072986837327400,11.532327392578125,0.7435169219970703,0.0013272762298583984,0.16486415266990662
1771072986847268000,11.54226806640625,0.8277473449707031,-0.06669795513153076,0.3456403911113739
1771072986857208800,11.552208740234375,1.0122413635253906,-0.1486586332321167,0.30608806014060974
1771072986867149600,11.562149658203126,1.4521503448486328,-0.10710763931274414,0.20097166299819946
1771072986877090300,11.57209033203125,1.7673006057739258,0.03618299961090088,0.18843549489974976
1771072986887031000,11.582031005859376,1.564199447631836,0.09761452674865723,0.32930177450180054
1771072986896971800,11.5919716796875,0.9730710983276367,0.12631845474243164,0.5473394989967346
1771072986906912500,11.60191259765625,0.3807363510131836,0.22868192195892334,0.7178241014480591
1771072986916853200,11.611853271484375,-0.09726715087890625,0.44569575786590576,0.8792203664779663
1771072986926794000,11.6217939453125,-0.4457387924194336,0.669705867767334,1.121260166168213
1771072986936734700,11.631734619140625,-0.2738628387451172,0.7410078048706055,1.3144011497497559
1771072986946675500,11.641675537109375,0.5537481307983398,0.5854743719100952,1.1506131887435913
1771072986956616200,11.6516162109375,1.652435302734375,0.225500226020813,0.9952426552772522
1771072986966557000,11.661556884765625,2.7224035263061523,-0.1793961524963379,0.8548277616500854
1771072986976497700,11.67149755859375,3.899293899536133,-0.5417096018791199,0.36317044496536255
1771072986986438400,11.6814384765625,4.766031265258789,-0.8787515163421631,-0.34195414185523987
1771072986996379100,11.691379150390626,5.063804626464844,-1.1774762868881226,-1.0888776779174805
1771072987006319900,11.70131982421875,4.545614242553711,-1.3681066036224365,-1.5581395626068115
1771072987016260600,11.711260498046874,3.306652069091797,-1.2477163076400757,-1.5464811325073242
1771072987026201000,11.721201171875,1.8618974685668945,-0.9209039211273193,-1.1999506950378418
1771072987036141800,11.731141845703124,0.6268167495727539,-0.6162614822387695,-0.9575576782226562
1771072987046082600,11.74108251953125,-0.37839794158935547,-0.28765296936035156,-0.38144800066947937
1771072987056023300,11.751023193359375,-0.7996072769165039,0.007497906684875488,0.36835765838623047
1771072987065964000,11.760964111328125,-0.6373443603515625,0.28011786937713623,1.1256228685379028
1771072987075904800,11.77090478515625,-0.12848758697509766,0.4698523283004761,1.7533174753189087
1771072987085845500,11.780845458984375,0.27121639251708984,0.5183287858963013,2.0569629669189453
1771072987095786200,11.7907861328125,0.3415098190307617,0.3789440393447876,2.0269596576690674
1771072987105727000,11.80072705078125,0.09978389739990234,0.13487565517425537,1.7751717567443848
1771072987115667700,11.810667724609376,-0.15657424926757812,-0.07318568229675293,1.46748948097229
1771072987125608400,11.8206083984375,-0.49152469635009766,-0.29568326473236084,1.0672547817230225
1771072987135549200,11.830549072265624,-0.854100227355957,-0.5517423152923584,0.6824815273284912
1771072987145490000,11.840489990234374,-1.1265678405761719,-0.8143693208694458,0.2539287209510803
1771072987155430700,11.8504306640625,-0.9856815338134766,-0.9879952073097229,-0.1756930649280548
1771072987165371400,11.860371337890625,-0.5746421813964844,-1.0883455276489258,-0.4394780993461609
1771072987175312100,11.87031201171875,-0.1414318084716797,-1.171308994293213,-0.6561598777770996
1771072987185252900,11.8802529296875,0.02564716339111328,-1.2245866060256958,-0.7464398145675659
1771072987195193600,11.890193603515625,-0.23224449157714844,-1.1211230754852295,-0.57169508934021
1771072987205134300,11.90013427734375,-0.756352424621582,-0.8754399418830872,-0.2504729628562927
1771072987215075000,11.910074951171875,-1.2644309997558594,-0.5686697363853455,-0.043834179639816284
1771072987225015800,11.920015869140625,-1.6782875061035156,-0.27781951427459717,0.03687676787376404
1771072987234956500,11.92995654296875,-2.120837688446045,-0.016152262687683105,0.26147177815437317
1771072987244897300,11.939897216796876,-2.2441797256469727,0.14076721668243408,0.331106036901474
1771072987254838000,11.949838134765624,-1.8917298316955566,0.18268346786499023,0.18795031309127808
1771072987264778800,11.95977880859375,-1.2578210830688477,0.083609938621521,0.02321872115135193
1771072987274719500,11.969719482421874,-0.6982755661010742,0.0017914772033691406,0.022956818342208862
1771072987284660500,11.979660400390625,-0.41745758056640625,0.04986929893493652,0.09374502301216125
1771072987294601200,11.989601318359375,-0.526576042175293,0.18080532550811768,0.1498832404613495
1771072987304542000,11.9995419921875,-0.9224338531494141,0.3256351947784424,0.21070599555969238
1771072987314482700,12.009482666015625,-1.3904800415039062,0.3875925540924072,0.17844656109809875
1771072987324423400,12.01942333984375,-1.77671480178833,0.39508914947509766,0.21478289365768433
1771072987334364200,12.0293642578125,-1.9967031478881836,0.3392674922943115,0.3432480990886688
1771072987344305200,12.03930517578125,-1.9301953315734863,0.28833961486816406,0.4767604470252991
1771072987354246000,12.049245849609376,-1.51900053024292,0.2894272804260254,0.551030695438385
1771072987364186600,12.0591865234375,-0.8356285095214844,0.32878756523132324,0.47442466020584106
1771072987374127400,12.06912744140625,-0.2980518341064453,0.3282451629638672,0.3540874123573303
1771072987384068000,12.079068115234374,-0.017381668090820312,0.3199615478515625,0.379250168800354
1771072987394009000,12.089009033203125,-0.02829265594482422,0.3504040241241455,0.3452308177947998
1771072987403949800,12.09894970703125,-0.1909322738647461,0.4283182621002197,0.2084600031375885
1771072987413890600,12.108890625,-0.33969593048095703,0.5294990539550781,-0.003473818302154541
1771072987423831300,12.118831298828125,-0.21817398071289062,0.6157550811767578,-0.1539858877658844
1771072987433772000,12.12877197265625,0.1691131591796875,0.6666700839996338,-0.15304993093013763
1771072987443712800,12.138712646484375,0.5881567001342773,0.6379778385162354,-0.09837843477725983
1771072987453653800,12.14865380859375,0.8601570129394531,0.5394802093505859,-0.057867974042892456
1771072987463594500,12.158594482421876,1.143141746520996,0.44956088066101074,-0.13468097150325775
1771072987473535200,12.16853515625,1.4344329833984375,0.5191936492919922,-0.3606094717979431
1771072987503357400,12.198357421875,-0.7379283905029297,0.8846936225891113,0.015492990612983704
1771072987513298400,12.20829833984375,-1.045928955078125,0.9591765403747559,0.3121587634086609
1771072987523239200,12.2182392578125,-0.848057746887207,1.0139257907867432,0.6969162821769714
1771072987533180000,12.228179931640625,-0.10993003845214844,0.9306614398956299,0.9698994159698486
1771072987543120600,12.23812060546875,0.7522068023681641,0.7741661071777344,1.0807045698165894
1771072987553061400,12.248061279296875,1.6197013854980469,0.5806753635406494,1.098628282546997
1771072987563002400,12.25800244140625,2.4077157974243164,0.2657327651977539,0.7756556868553162
1771072987572943000,12.267943115234376,2.8143739700317383,-0.0931168794631958,0.3812383711338043
1771072987582883800,12.2778837890625,2.8917360305786133,-0.39772677421569824,0.011216223239898682
1771072987592824600,12.287824462890624,2.7819719314575195,-0.700827956199646,-0.5343568325042725
1771072987602765300,12.297765380859374,2.500067710876465,-0.9534831643104553,-1.0270097255706787
1771072987612706000,12.3077060546875,1.9698095321655273,-1.0279829502105713,-1.3573648929595947
1771072987622646800,12.317646728515625,1.2462434768676758,-0.9885573983192444,-1.4942188262939453
1771072987632587500,12.32758740234375,0.5989046096801758,-0.907123327255249,-1.555191993713379
1771072987642528300,12.3375283203125,0.27538299560546875,-0.815977156162262,-1.5917547941207886
1771072987652469000,12.347468994140625,0.2794075012207031,-0.7662636041641235,-1.5281460285186768
1771072987662409700,12.35740966796875,0.6174402236938477,-0.8181928396224976,-1.3194118738174438
1771072987672350500,12.3673505859375,1.2152481079101562,-0.9129683971405029,-1.0117652416229248
1771072987682291200,12.377291259765625,1.8198442459106445,-0.9673994183540344,-0.7425497770309448
1771072987692232000,12.38723193359375,2.061735153198242,-0.9483951926231384,-0.5202850103378296
1771072987702172700,12.397172607421876,1.8799448013305664,-0.9014265537261963,-0.4264219403266907
1771072987712113400,12.407113525390624,1.2490758895874023,-0.8378509879112244,-0.45207110047340393
1771072987722054100,12.41705419921875,0.4396076202392578,-0.7947529554367065,-0.6118663549423218
1771072987731995000,12.426994873046874,-0.16652584075927734,-0.7726443409919739,-0.7048152089118958
1771072987741935600,12.436935546875,-0.6875734329223633,-0.7433863282203674,-0.6423283815383911
1771072987751876400,12.44687646484375,-1.098057746887207,-0.7180781364440918,-0.5821261405944824
1771072987761817000,12.456817138671875,-1.4272165298461914,-0.7189795970916748,-0.6173835396766663
1771072987771757800,12.4667578125,-1.6513776779174805,-0.7123919725418091,-0.7091397047042847
1771072987781698600,12.476698486328125,-1.7395377159118652,-0.7231273651123047,-0.824462890625
1771072987791639300,12.486639404296875,-1.6628813743591309,-0.7584390640258789,-0.8939390778541565
1771072987801580000,12.496580078125,-1.5693702697753906,-0.7661622762680054,-0.7774577736854553
1771072987811520800,12.506520751953126,-1.5064706802368164,-0.7528634071350098,-0.5980566143989563
1771072987821461500,12.51646142578125,-1.404646873474121,-0.6836808919906616,-0.46376097202301025
1771072987831402200,12.52640234375,-1.2830495834350586,-0.5731513500213623,-0.3860858678817749
1771072987841343000,12.536343017578124,-1.1560649871826172,-0.4283074140548706,-0.2947085201740265
1771072987851283700,12.54628369140625,-0.9665679931640625,-0.29888880252838135,-0.11118659377098083
1771072987861224400,12.556224365234375,-0.882136344909668,-0.1987370252609253,0.04530841112136841
