time,seconds_elapsed,z,y,x
1771072975425327400,0.120327392578125,0.005725792143493891,-0.004527370445430279,-0.23089589178562164
1771072975435268600,0.1302685546875,-0.002796316985040903,-0.05779055133461952,-0.19787272810935974
1771072975445209900,0.1402099609375,-0.015579480677843094,-0.08974846452474594,-0.1627190262079239
1771072975455151400,0.1501513671875,-0.02516685426235199,-0.10892320424318314,-0.14141374826431274
1771072975465092900,0.1600927734375,-0.030493171885609627,-0.10146636515855789,-0.13289164006710052
1771072975475034400,0.170034423828125,-0.0294279083609581,-0.06418213248252869,-0.1243695318698883
1771072975484976000,0.17997607421875,-0.024101590737700462,-0.01837579719722271,-0.11584742367267609
1771072975494917400,0.18991748046875,-0.014514217153191566,0.028495801612734795,-0.11158636957406998
1771072975504858000,0.199858154296875,-0.005992108024656773,0.060453712940216064,-0.110521100461483
1771072975514798800,0.209798828125,-0.0017310534603893757,0.05086633935570717,-0.10732531547546387
1771072975524739600,0.219739501953125,-0.003861580742523074,0.02210422046482563,-0.09986846894025803
1771072975534680300,0.229680419921875,-0.008122635073959827,-0.0034621069207787514,-0.07643266767263412
1771072975544621300,0.239621337890625,-0.019840534776449203,-0.032224226742982864,-0.04767054691910744
1771072975554562000,0.24956201171875,-0.031558435410261154,-0.06950845569372177,-0.025300011038780212
1771072975564502800,0.259502685546875,-0.04114580899477005,-0.10785794258117676,-0.010386320762336254
1771072975574443500,0.269443603515625,-0.04860265180468559,-0.1387505829334259,-0.002929474925622344
1771072975584384300,0.27938427734375,-0.05392897129058838,-0.15472954511642456,-0.0007989477599039674
1771072975594325000,0.289324951171875,-0.056059498339891434,-0.16325165331363678,-0.003994738683104515
1771072975604266000,0.299265869140625,-0.051798444241285324,-0.16325165331363678,-0.007190529722720385
1771072975614206700,0.309206787109375,-0.050733182579278946,-0.15153375267982483,-0.011451584286987782
1771072975624147500,0.3191474609375,-0.04966791719198227,-0.1344895362854004,-0.02210422046482563
1771072975634088200,0.329088134765625,-0.050733182579278946,-0.11211899667978287,-0.03382211923599243
1771072975644029000,0.33902880859375,-0.051798444241285324,-0.08974846452474594,-0.040213704109191895
1771072975653970000,0.348969970703125,-0.05392897129058838,-0.06524740159511566,-0.035952646285295486
1771072975663910700,0.35891064453125,-0.06032055243849754,-0.0492684431374073,-0.023169483989477158
1771072975673851400,0.368851318359375,-0.06671213358640671,-0.04607265070080757,-0.010386320762336254
1771072975683792100,0.378792236328125,-0.06564687192440033,-0.04607265070080757,0.010918952524662018
1771072975693732900,0.38873291015625,-0.06138581782579422,-0.04500738903880119,0.03861580789089203
1771072975703673600,0.398673583984375,-0.054994236677885056,-0.0354200154542923,0.05992107838392258
1771072975713614600,0.408614501953125,-0.04860265180468559,-0.011984216049313545,0.06631266325712204
1771072975723555300,0.418555419921875,-0.04647212475538254,0.014647374860942364,0.06205160543322563
1771072975733496000,0.42849609375,-0.04966791719198227,0.03382211923599243,0.05779055133461952
1771072975743436800,0.438436767578125,-0.05712476372718811,0.035952646285295486,0.06311687082052231
1771072975753377500,0.44837744140625,-0.06671213358640671,0.015712639316916466,0.08016108721494675
1771072975763318300,0.458318359375,-0.0762995108962059,-0.0141147430986166,0.10466215014457703
1771072975773259300,0.46825927734375,-0.08375635743141174,-0.03435475379228592,0.13342426717281342
1771072975783200000,0.478199951171875,-0.08908267319202423,-0.048203181475400925,0.1483379602432251
1771072975793140700,0.488140625,-0.09227846562862396,-0.07057371735572815,0.14407691359519958
1771072975803081500,0.49808154296875,-0.09867004305124283,-0.10998847335577011,0.12170637398958206
1771072975813022200,0.508022216796875,-0.11145320534706116,-0.14620743691921234,0.08335687965154648
1771072975822963200,0.517963134765625,-0.12956269085407257,-0.1813611388206482,0.029028434306383133
1771072975832904000,0.527904052734375,-0.146606907248497,-0.21971063315868378,-0.03275685757398605
1771072975842844700,0.5378447265625,-0.16258586943149567,-0.24847275018692017,-0.09347688406705856
1771072975852785400,0.547785400390625,-0.17323850095272064,-0.26764747500419617,-0.15206637978553772
1771072975862726100,0.55772607421875,-0.17430377006530762,-0.27190855145454407,-0.20746009051799774
1771072975872667000,0.5676669921875,-0.16684691607952118,-0.24527695775032043,-0.25007063150405884
1771072975882607900,0.57760791015625,-0.15086796879768372,-0.1760348230600357,-0.26818013191223145
1771072975892548600,0.587548583984375,-0.12743216753005981,-0.07483477145433426,-0.2564622163772583
1771072975902489300,0.5974892578125,-0.09653951972723007,0.03701791167259216,-0.20852535963058472
1771072975912430000,0.60743017578125,-0.07203845679759979,0.14141374826431274,-0.1392832249403
1771072975922370800,0.617370849609375,-0.05819002538919449,0.2000032514333725,-0.0679105594754219
1771072975932311800,0.627311767578125,-0.047537390142679214,0.21172115206718445,-0.010386320762336254
1771072975942252500,0.63725244140625,-0.03688475489616394,0.19254639744758606,0.029028434306383133
1771072975952193300,0.647193359375,-0.031558435410261154,0.15952323377132416,0.05139897018671036
1771072975962134000,0.657134033203125,-0.027297381311655045,0.11904320865869522,0.06950845569372177
1771072975972074800,0.66707470703125,-0.023036325350403786,0.07643266767263412,0.08442214131355286
1771072975982015500,0.677015380859375,-0.008122635073959827,0.02210422046482563,0.08974846452474594
1771072975991956500,0.68695654296875,0.0153131652623415,-0.011984216049313545,0.08761793375015259
1771072976011838000,0.706837890625,0.061119500547647476,-0.010918952524662018,0.04607265070080757
1771072976021778700,0.71677880859375,0.08135951310396194,0.002929474925622344,0.016245270147919655
1771072976031719400,0.726719482421875,0.08988162130117416,0.028495801612734795,-0.0050600022077560425
1771072976041660200,0.73666015625,0.08562056720256805,0.05086633935570717,-0.019973693415522575
1771072976051601200,0.74660107421875,0.06964161247015,0.05193160101771355,-0.03169159218668938
1771072976061542000,0.7565419921875,0.05153212696313858,0.03275685757398605,-0.040213704109191895
1771072976071482600,0.766482666015625,0.029161592945456505,0.0018642114009708166,-0.04127896577119827
1771072976081423400,0.77642333984375,0.0025300011038780212,-0.032224226742982864,-0.03169159218668938
1771072976091364000,0.786364013671875,-0.018775271251797676,-0.05033370852470398,-0.007190529722720385
1771072976101305000,0.79630517578125,-0.031558435410261154,-0.05779055133461952,0.011984216049313545
1771072976111245800,0.806245849609375,-0.04008054360747337,-0.06631266325712204,0.02263685315847397
1771072976121186600,0.8161865234375,-0.04434159770607948,-0.08868319541215897,0.02263685315847397
1771072976131127300,0.826127197265625,-0.04966791719198227,-0.11851058155298233,0.019441060721874237
1771072976141068000,0.836068115234375,-0.056059498339891434,-0.14620743691921234,0.010918952524662018
1771072976151008800,0.8460087890625,-0.06032055243849754,-0.16112112998962402,-0.00612526573240757
1771072976160949800,0.85594970703125,-0.0624510794878006,-0.1664474457502365,-0.03275685757398605
1771072976170890500,0.865890380859375,-0.0624510794878006,-0.16325165331363678,-0.07536740601062775
1771072976180831200,0.875831298828125,-0.05712476372718811,-0.1387505829334259,-0.1296958476305008
1771072976190772000,0.88577197265625,-0.04647212475538254,-0.08761793375015259,-0.17976324260234833
1771072976200712700,0.895712646484375,-0.034754227846860886,-0.029028434306383133,-0.2191779911518097
1771072976210653400,0.9056533203125,-0.023036325350403786,0.03488738462328911,-0.24048326909542084
1771072976220594400,0.915594482421875,-0.015579480677843094,0.08388951420783997,-0.23089589178562164
1771072976230535200,0.92553515625,-0.010253162123262882,0.10839057713747025,-0.1957421898841858
1771072976240476000,0.935475830078125,-0.005992108024656773,0.13289164006710052,-0.14460954070091248
1771072976250416600,0.945416748046875,-0.0017310534603893757,0.1531316488981247,-0.0870852991938591
1771072976260357400,0.955357421875,-0.003861580742523074,0.15206637978553772,-0.03169159218668938
1771072976270298400,0.96529833984375,-0.011318426579236984,0.1201084777712822,0.010918952524662018
1771072976280239000,0.975239013671875,-0.018775271251797676,0.0679105594754219,0.032224226742982864
1771072976290179800,0.985179931640625,-0.02516685426235199,0.018908429890871048,0.040746334940195084
1771072976300120600,0.99512060546875,-0.02516685426235199,-0.036485280841588974,0.03755054250359535
1771072976310061300,1.005061279296875,-0.002796316985040903,-0.08442214131355286,0.023702116683125496
1771072976320002000,1.015001953125,0.03235738351941109,-0.1153147891163826,0.007723161485046148
1771072976329943000,1.024943115234375,0.05898897349834442,-0.12064110487699509,-0.009321057237684727
1771072976349824500,1.044824462890625,0.12183953076601028,-0.11851058155298233,-0.04980107396841049
1771072976359765200,1.05476513671875,0.16658060252666473,-0.22184115648269653,-0.0774979293346405
1771072976369706000,1.0647060546875,0.1825595498085022,-0.3731085956096649,-0.10839057713747025
1771072976379646700,1.074646728515625,0.12183953076601028,-0.33795487880706787,-0.03701791167259216
1771072976389587700,1.084587646484375,0.045140545815229416,-0.24101589620113373,0.056725289672613144
1771072976399528400,1.094528564453125,-0.014514217153191566,-0.171773761510849,0.13555480539798737
1771072976409469200,1.10446923828125,-0.031558435410261154,-0.15046848356723785,0.17283903062343597
1771072976419410000,1.114409912109375,-0.03262370079755783,-0.13768532872200012,0.1813611388206482
1771072976429350700,1.1243505859375,-0.027297381311655045,-0.10253162682056427,0.16964323818683624
1771072976439291600,1.134291748046875,-0.015579480677843094,-0.004527370445430279,0.15579481422901154
1771072976449232400,1.144232421875,0.001464737462811172,0.1435442715883255,0.14194637537002563
1771072976459173000,1.154173095703125,0.03768370300531387,0.3459443747997284,0.10998847335577011
1771072976469113900,1.16411376953125,0.10905636847019196,0.5771065950393677,0.06524740159511566
1771072976479054600,1.1740546875,0.21132168173789978,0.7933551073074341,0.016245270147919655
1771072976488995300,1.183995361328125,0.32104381918907166,0.9510141015052795,-0.05512739345431328
1771072976498936300,1.193936279296875,0.4030691385269165,0.9872331023216248,-0.15419691801071167
1771072976508877000,1.203876953125,0.4424838721752167,0.8530098795890808,-0.2564622163772583
1771072976518817800,1.21381787109375,0.4265049397945404,0.5834981799125671,-0.3491401672363281
1771072976528758500,1.223758544921875,0.3476754128932953,0.25326642394065857,-0.4301002025604248
1771072976538699300,1.23369921875,0.2336922138929367,-0.06311687082052231,-0.46631917357444763
1771072976548640000,1.243639892578125,0.11438268423080444,-0.2836264371871948,-0.42903491854667664
1771072976558581000,1.2535810546875,0.001464737462811172,-0.36671701073646545,-0.3363569974899292
1771072976568521700,1.263521728515625,-0.07736477255821228,-0.3326285779476166,-0.204264298081398
1771072976578462500,1.27346240234375,-0.09440898895263672,-0.1909485012292862,-0.029561065137386322
1771072976588403200,1.2834033203125,-0.04221107065677643,0.04554001986980438,0.16112112998962402
1771072976598344000,1.293343994140625,0.05792371183633804,0.3129211962223053,0.30599698424339294
1771072976608284700,1.30328466796875,0.1676458716392517,0.5057339072227478,0.36671701073646545
1771072976618225400,1.313225341796875,0.26884591579437256,0.5973466038703918,0.360325425863266
1771072976628166100,1.323166259765625,0.35513225197792053,0.5984118580818176,0.2942790687084198
1771072976638107000,1.33310693359375,0.41159123182296753,0.4780370593070984,0.17390428483486176
1771072976648047600,1.343047607421875,0.43928807973861694,0.2671148478984833,0.03328948840498924
1771072976657988400,1.35298828125,0.4371575713157654,0.04234423115849495,-0.09454214572906494
1771072976667929000,1.36292919921875,0.4169175624847412,-0.13555480539798737,-0.15100112557411194
1771072976677869800,1.372869873046875,0.3849596381187439,-0.22610220313072205,-0.09773793816566467
1771072976687810300,1.382810302734375,0.3455449044704437,-0.22077588737010956,0.0354200154542923
1771072976697751000,1.3927509765625,0.30613014101982117,-0.14620743691921234,0.2047969400882721
1771072976707691800,1.40269189453125,0.28375959396362305,-0.019441060721874237,0.3592601716518402
1771072976717632500,1.412632568359375,0.3008038103580475,0.13715268671512604,0.47430863976478577
1771072976727573200,1.4225732421875,0.3466101586818695,0.27670222520828247,0.5403549671173096
1771072976737514000,1.432513916015625,0.3892207145690918,0.36724963784217834,0.5605949759483337
1771072976747454700,1.442454833984375,0.417982816696167,0.4343612492084503,0.5563339591026306
1771072976757395500,1.4523955078125,0.43289652466773987,0.46631917357444763,0.5265065431594849
1771072976767336200,1.462336181640625,0.44354915618896484,0.4492749273777008,0.45726442337036133
1771072976777277000,1.47227685546875,0.4680502116680145,0.41518649458885193,0.3784348964691162
1771072976787217700,1.4822177734375,0.4925512671470642,0.3651190996170044,0.31132328510284424
1771072976797158400,1.492158447265625,0.5021386742591858,0.30546435713768005,0.2601906359195709
1771072976807099100,1.50209912109375,0.5000081062316895,0.20852535963058472,0.237820103764534
1771072976817040000,1.512039794921875,0.49042075872421265,0.07643266767263412,0.2559295892715454
1771072976826980600,1.521980712890625,0.4701807498931885,-0.03755054250359535,0.2942790687084198
1771072976836921300,1.53192138671875,0.44354915618896484,-0.11957584321498871,0.33795487880706787
1771072976846862000,1.541862060546875,0.41585230827331543,-0.17283903062343597,0.3741738498210907
1771072976856803000,1.551802978515625,0.39561229944229126,-0.20586219429969788,0.3890875577926636
1771072976866743800,1.561743896484375,0.38815543055534363,-0.22077588737010956,0.39121806621551514
1771072976876684500,1.5716845703125,0.38815543055534363,-0.1994706094264984,0.39015281200408936
1771072976886625300,1.581625244140625,0.38176384568214417,-0.13555480539798737,0.3784348964691162
1771072976896566000,1.59156591796875,0.35832804441452026,-0.07163897901773453,0.3464770019054413
1771072976906507000,1.601507080078125,0.31145647168159485,-0.03968106955289841,0.2900180220603943
1771072976916447700,1.61144775390625,0.24008379876613617,-0.032224226742982864,0.1952095627784729
1771072976926388500,1.621388427734375,0.16018901765346527,-0.02263685315847397,0.04607265070080757
1771072976936329200,1.6313291015625,0.09733846783638,-0.011984216049313545,-0.1201084777712822
1771072976946270000,1.64127001953125,0.05685844644904137,0.002929474925622344,-0.24900537729263306
1771072976956210700,1.651210693359375,0.01957421936094761,-0.016245270147919655,-0.31505173444747925
1771072976966151700,1.661151611328125,-0.011318426579236984,-0.040746334940195084,-0.3139864504337311
1771072976976092400,1.671092529296875,-0.02516685426235199,-0.03968106955289841,-0.2745717167854309
1771072976986033200,1.681033203125,-0.03262370079755783,-0.019441060721874237,-0.23196116089820862
1771072976995974000,1.690973876953125,-0.026232117787003517,0.024234747514128685,-0.20106850564479828
1771072977005914600,1.70091455078125,-0.008122635073959827,0.08175898343324661,-0.18508955836296082
1771072977015855400,1.71085546875,0.0025300011038780212,0.13182637095451355,-0.16911059617996216
1771072977025796400,1.72079638671875,0.00892158318310976,0.1669800728559494,-0.13608743250370026
1771072977035737000,1.730737060546875,0.009986846707761288,0.17550218105316162,-0.09880319982767105
1771072977045677800,1.740677734375,0.01957421936094761,0.14567480981349945,-0.06897582113742828
1771072977055618600,1.75061865234375,0.045140545815229416,0.10732531547546387,-0.05193160101771355
1771072977065559300,1.760559326171875,0.07709845900535583,0.07962846010923386,-0.04767054691910744
1771072977075500300,1.770500244140625,0.10586057603359222,0.06258423626422882,-0.05086633935570717
1771072977085441000,1.78044091796875,0.12183953076601028,0.04127896577119827,-0.04980107396841049
1771072977095381800,1.7903818359375,0.11331742256879807,0.04340949282050133,-0.04340949282050133
1771072977105322500,1.800322509765625,0.09094688296318054,0.08175898343324661,-0.029561065137386322
1771072977115263200,1.81026318359375,0.06218476593494415,0.1296958476305008,0.008788425475358963
1771072977125204000,1.820203857421875,0.030226856470108032,0.15206637978553772,0.0727042406797409
1771072977135145000,1.83014501953125,0.016378428786993027,0.1478053331375122,0.1344895362854004
1771072977145085700,1.840085693359375,0.01318263728171587,0.11584742367267609,0.17816534638404846
1771072977155026400,1.8500263671875,0.01957421936094761,0.04660528525710106,0.1994706094264984
1771072977164967200,1.85996728515625,0.030226856470108032,-0.05992107838392258,0.19734008610248566
1771072977174908000,1.869907958984375,0.03981423005461693,-0.18775272369384766,0.16431692242622375
1771072977184848600,1.8798486328125,0.03448791056871414,-0.31132328510284424,0.11318425834178925
1771072977194789600,1.88978955078125,0.020639482885599136,-0.41465386748313904,0.07163897901773453
1771072977204730400,1.89973046875,-0.0017310534603893757,-0.47004759311676025,0.03968106955289841
1771072977214671000,1.909671142578125,-0.035819489508867264,-0.49880969524383545,0.020506324246525764
1771072977224611800,1.91961181640625,-0.07523424178361893,-0.5286371111869812,0.040746334940195084
1771072977234552600,1.929552490234375,-0.11358373612165451,-0.4775044322013855,0.09933583438396454
1771072977244493600,1.93949365234375,-0.1284974217414856,-0.3368896245956421,0.15472954511642456
1771072977254434300,1.949434326171875,-0.11784479022026062,-0.19307903945446014,0.20586219429969788
1771072977264375000,1.959375,-0.11038794368505478,-0.14407691359519958,0.23142851889133453
1771072977274315800,1.969315673828125,-0.11358373612165451,-0.20586219429969788,0.18242639303207397
1771072977284256500,1.979256591796875,-0.14341111481189728,-0.31132328510284424,0.04607265070080757
1771072977294197200,1.989197265625,-0.2265016883611679,-0.39015281200408936,-0.14567480981349945
1771072977304138200,1.99913818359375,-0.3532680571079254,-0.3922833502292633,-0.34807488322257996
1771072977314079000,2.009078857421875,-0.4906870722770691,-0.34434646368026733,-0.5313002467155457
1771072977324019700,2.019019775390625,-0.6068007946014404,-0.2900180220603943,-0.6623276472091675
1771072977333960400,2.02896044921875,-0.6888260841369629,-0.25486433506011963,-0.72304767370224
1771072977343901200,2.038901123046875,-0.7346324324607849,-0.2239716798067093,-0.72304767370224
1771072977353842000,2.048842041015625,-0.7474156022071838,-0.15366427600383759,-0.6431529521942139
1771072977363783000,2.058782958984375,-0.7101313471794128,-0.04394212365150452,-0.4780370593070984
1771072977373723600,2.0687236328125,-0.6142576336860657,0.07962846010923386,-0.23622220754623413
1771072977383664400,2.078664306640625,-0.48323023319244385,0.20106850564479828,0.02583264373242855
1771072977393605000,2.088605224609375,-0.34261542558670044,0.26285380125045776,0.24421168863773346
1771072977403545900,2.0985458984375,-0.21371851861476898,0.22663484513759613,0.3645864725112915
1771072977413486800,2.10848681640625,-0.10506162792444229,0.0913463607430458,0.36778226494789124
1771072977423427600,2.118427490234375,-0.026232117787003517,-0.11105373501777649,0.2900180220603943
1771072977433368300,2.128368408203125,0.004660528618842363,-0.32410645484924316,0.17496955394744873
1771072977443309000,2.13830908203125,-0.018775271251797676,-0.5094623565673828,0.05779055133461952
1771072977453249800,2.148249755859375,-0.09014793485403061,-0.629837155342102,-0.025300011038780212
1771072977463190500,2.1581904296875,-0.19667430222034454,-0.6490118503570557,-0.06578002870082855
1771072977473131500,2.168131591796875,-0.3127880394458771,-0.5520728826522827,-0.07217161357402802
1771072977483072300,2.178072265625,-0.4150533378124237,-0.36245596408843994,-0.05512739345431328
1771072977493013000,2.188012939453125,-0.4864259958267212,-0.13129374384880066,-0.04127896577119827
1771072977502953700,2.19795361328125,-0.5130575895309448,0.10732531547546387,-0.03701791167259216
1771072977512894500,2.20789453125,-0.48749127984046936,0.3139864504337311,-0.04234423115849495
1771072977522835200,2.217835205078125,-0.42144492268562317,0.45992758870124817,-0.07110634446144104
1771072977532776200,2.227776123046875,-0.33835434913635254,0.5185170769691467,-0.13076111674308777
1771072977542717000,2.237717041015625,-0.26272064447402954,0.4918854832649231,-0.20852535963058472
1771072977552657700,2.24765771484375,-0.203065887093544,0.40986019372940063,-0.2756369709968567
1771072977562598400,2.257598388671875,-0.1519332230091095,0.3129211962223053,-0.30972540378570557
1771072977572539100,2.2675390625,-0.08908267319202423,0.22556957602500916,-0.30652961134910583
1771072977582480100,2.277480224609375,-0.03368896245956421,0.14247901737689972,-0.2745717167854309
1771072977592420900,2.2874208984375,-0.005992108024656773,0.07430213689804077,-0.22450430691242218
1771072977602361600,2.297361572265625,-0.0070573715493083,0.03169159218668938,-0.16058848798274994
1771072977612302300,2.30730224609375,-0.030493171885609627,0.008255792781710625,-0.10199899226427078
1771072977622243000,2.3172431640625,-0.04966791719198227,0.0050600022077560425,-0.05193160101771355
1771072977632183800,2.327183837890625,-0.056059498339891434,0.025300011038780212,-0.016777902841567993
1771072977642124800,2.337124755859375,-0.06032055243849754,0.040213704109191895,-0.011451584286987782
1771072977652065500,2.3470654296875,-0.07097318768501282,0.024234747514128685,-0.04127896577119827
1771072977662006300,2.35700634765625,-0.08162582665681839,-0.0034621069207787514,-0.0913463607430458
1771072977671947000,2.366947021484375,-0.0954742506146431,-0.027963170781731606,-0.15632744133472443
1771072977681887700,2.3768876953125,-0.118910051882267,-0.04713791608810425,-0.22024326026439667
1771072977691828700,2.386828857421875,-0.14980269968509674,-0.052464235574007034,-0.2713759243488312
1771072977701769500,2.39676953125,-0.17110797762870789,-0.0354200154542923,-0.2980075180530548
1771072977711710200,2.406710205078125,-0.16684691607952118,-0.0002663159102667123,-0.2980075180530548
1771072977721651000,2.41665087890625,-0.14128059148788452,0.028495801612734795,-0.2905506491661072
1771072977731591700,2.426591796875,-0.11251847445964813,0.025300011038780212,-0.27776750922203064
1771072977741532400,2.436532470703125,-0.08908267319202423,0.00612526573240757,-0.25326642394065857
1771072977751473400,2.446473388671875,-0.06564687192440033,-0.00985368900001049,-0.21491694450378418
1771072977761414100,2.4564140625,-0.034754227846860886,-0.013049479573965073,-0.17869797348976135
1771072977771355000,2.46635498046875,0.0025300011038780212,0.003994738683104515,-0.14460954070091248
1771072977781295600,2.476295654296875,0.05259739235043526,0.04554001986980438,-0.10945583879947662
1771072977791236400,2.486236328125,0.11331742256879807,0.09880319982767105,-0.07430213689804077
1771072977801177000,2.496177001953125,0.17829850316047668,0.13502216339111328,-0.040213704109191895
1771072977811118000,2.5061181640625,0.24114905297756195,0.15632744133472443,-0.0018642114009708166
1771072977821058800,2.516058837890625,0.29228171706199646,0.1573926955461502,0.03861580789089203
1771072977830999600,2.52599951171875,0.3231743574142456,0.1243695318698883,0.07696529477834702
1771072977840940300,2.535940185546875,0.33915331959724426,0.05193160101771355,0.10785794258117676
1771072977850881000,2.545881103515625,0.3434143662452698,-0.024767380207777023,0.1291632205247879
1771072977860822000,2.555822021484375,0.3455449044704437,-0.08548741042613983,0.14407691359519958
1771072977870762800,2.5657626953125,0.35406699776649475,-0.0822916179895401,0.1664474457502365
1771072977880703500,2.575703369140625,0.3753722608089447,0.04767054691910744,0.20373167097568512
1771072977890644200,2.585644287109375,0.407330185174942,0.24048326909542084,0.23995064198970795
1771072977900585000,2.5955849609375,0.44887545704841614,0.3597927987575531,0.24314641952514648
1771072977910525700,2.605525634765625,0.4680502116680145,0.32463908195495605,0.18242639303207397
1771072977920466700,2.615466796875,0.4275701940059662,0.11371689289808273,0.03328948840498924
1771072977930407400,2.625407470703125,0.3135869801044464,-0.20373167097568512,-0.17443692684173584
1771072977940348200,2.63534814453125,0.16658060252666473,-0.49880969524383545,-0.35659700632095337
1771072977950289000,2.645288818359375,0.025965800508856773,-0.651142418384552,-0.45673179626464844
1771072977960229600,2.655229736328125,-0.08908267319202423,-0.6554034352302551,-0.4673844277858734
1771072977970170400,2.66517041015625,-0.17323850095272064,-0.5861613154411316,-0.4066644012928009
1771072977980111400,2.675111328125,-0.20945745706558228,-0.4029359817504883,-0.2522011697292328
1771072977990052000,2.685052001953125,-0.1657816469669342,-0.10040109604597092,-0.025300011038780212
1771072977999992800,2.694992919921875,-0.04647212475538254,0.24474431574344635,0.2186453640460968
1771072978009933600,2.70493359375,0.11118689179420471,0.5227781534194946,0.4221107065677643
1771072978019874300,2.714874267578125,0.23688800632953644,0.6548708081245422,0.5339633822441101
1771072978029815300,2.724815185546875,0.32104381918907166,0.6282392144203186,0.5563339591026306
1771072978039756000,2.734756103515625,0.3753722608089447,0.4865591824054718,0.500940203666687
1771072978049696800,2.74469677734375,0.3689807057380676,0.2671148478984833,0.3741738498210907
1771072978059637500,2.754637451171875,0.3008038103580475,0.03382211923599243,0.21118851006031036
1771072978069578200,2.764578125,0.19001640379428864,-0.16431692242622375,0.04713791608810425
1771072978079519000,2.77451904296875,0.05472791939973831,-0.29534435272216797,-0.08175898343324661
1771072978089460000,2.7844599609375,-0.06777740269899368,-0.3454117476940155,-0.15632744133472443
1771072978099400700,2.794400634765625,-0.14873743057250977,-0.33475908637046814,-0.17550218105316162
1771072978109341400,2.804341552734375,-0.20945745706558228,-0.30173593759536743,-0.16911059617996216
1771072978119282200,2.8142822265625,-0.2605901062488556,-0.2569948434829712,-0.1531316488981247
1771072978129223000,2.824222900390625,-0.279764860868454,-0.19840535521507263,-0.13182637095451355
1771072978139163600,2.83416357421875,-0.2648511826992035,-0.14194637537002563,-0.11478215456008911
1771072978149104600,2.844104736328125,-0.22330589592456818,-0.09081372618675232,-0.09560741484165192
1771072978159045400,2.85404541015625,-0.15299849212169647,-0.03009369783103466,-0.060453712940216064
1771072978168986000,2.863986083984375,-0.05819002538919449,0.05086633935570717,-0.0007989477599039674
1771072978178926800,2.8739267578125,0.05259739235043526,0.15845796465873718,0.08016108721494675
1771072978188867600,2.88386767578125,0.16551533341407776,0.2575274705886841,0.16325165331363678
1771072978198808600,2.89380859375,0.2656501233577728,0.3225085735321045,0.2420811653137207
1771072978208749300,2.903749267578125,0.35406699776649475,0.3502054214477539,0.30493173003196716
1771072978218690000,2.91368994140625,0.42543965578079224,0.3352917432785034,0.3454117476940155
1771072978228630800,2.923630859375,0.47124600410461426,0.27670222520828247,0.3645864725112915
1771072978238571500,2.933571533203125,0.4968123435974121,0.19361166656017303,0.37097805738449097
1771072978248512300,2.94351220703125,0.5042691826820374,0.110521100461483,0.37630438804626465
1771072978258453200,2.953453369140625,0.4925512671470642,0.035952646285295486,0.3826959729194641
1771072978268394000,2.96339404296875,0.4605933725833893,-0.03328948840498924,0.37630438804626465
1771072978278334700,2.973334716796875,0.4169175624847412,-0.10253162682056427,0.3549990952014923
1771072978288275500,2.983275390625,0.35832804441452026,-0.17283903062343597,0.31984540820121765
1771072978298216200,2.99321630859375,0.2986733019351959,-0.2143843024969101,0.2804306447505951
1771072978308157000,3.003156982421875,0.2518016993999481,-0.2143843024969101,0.24847275018692017
1771072978318098000,3.013097900390625,0.2251701056957245,-0.18349166214466095,0.22503694891929626
1771072978328038700,3.02303857421875,0.20279955863952637,-0.15046848356723785,0.1952095627784729
1771072978337979400,3.0329794921875,0.18895113468170166,-0.1249021589756012,0.17070849239826202
1771072978347920100,3.042920166015625,0.1772332340478897,-0.10359688848257065,0.16005586087703705
1771072978357860900,3.05286083984375,0.16551533341407776,-0.08548741042613983,0.16325165331363678
1771072978367801900,3.0628017578125,0.15060164034366608,-0.056725289672613144,0.17390428483486176
1771072978377742600,3.07274267578125,0.13142690062522888,-0.023702116683125496,0.1856221854686737
1771072978387683300,3.082683349609375,0.1069258376955986,-0.007723161485046148,0.19307903945446014
1771072978397624000,3.0926240234375,0.08775109052658081,-0.013049479573965073,0.19307903945446014
1771072978407564800,3.102564697265625,0.07922898232936859,-0.03009369783103466,0.19201377034187317
1771072978417505500,3.112505615234375,0.07603318989276886,-0.05139897018671036,0.18349166214466095
1771072978427446500,3.122446533203125,0.06431528925895691,-0.08655267208814621,0.16431692242622375
1771072978437387300,3.13238720703125,0.03981423005461693,-0.14727269113063812,0.13342426717281342
1771072978447328000,3.142327880859375,0.0025300011038780212,-0.22503694891929626,0.09933583438396454
1771072978457268700,3.152268798828125,-0.04434159770607948,-0.293213814496994,0.0727042406797409
1771072978467209500,3.16220947265625,-0.0954742506146431,-0.34221595525741577,0.05992107838392258
1771072978477150200,3.172150146484375,-0.14980269968509674,-0.3731085956096649,0.05139897018671036
1771072978487091000,3.182091064453125,-0.203065887093544,-0.3784348964691162,0.048203181475400925
1771072978497031700,3.19203173828125,-0.24354590475559235,-0.3464770019054413,0.05352949723601341
1771072978506972400,3.201972412109375,-0.2541985511779785,-0.228232741355896,0.07376950979232788
1771072978516913200,3.2119130859375,-0.2169143110513687,-0.013049479573965073,0.1153147891163826
1771072978526854000,3.22185400390625,-0.1519332230091095,0.2287653684616089,0.15686006844043732
1771072978536794600,3.231794677734375,-0.10293109714984894,0.40027281641960144,0.13981585204601288
1771072978546735400,3.2417353515625,-0.09653951972723007,0.43862229585647583,0.017310533672571182
1771072978556676000,3.251676025390625,-0.14980269968509674,0.337422251701355,-0.20852535963058472
1771072978566616800,3.261616943359375,-0.279764860868454,0.1435442715883255,-0.47484126687049866
1771072978576557600,3.2715576171875,-0.4629902243614197,-0.060986343771219254,-0.7113298177719116
1771072978586498300,3.281498291015625,-0.6536723971366882,-0.19734008610248566,-0.8540751338005066
1771072978596439000,3.29143896484375,-0.804939866065979,-0.228232741355896,-0.8700540661811829
1771072978606379800,3.3013798828125,-0.9082704186439514,-0.16325165331363678,-0.7667235136032104
1771072978616320300,3.3113203125,-0.9604683518409729,-0.010918952524662018,-0.5589970946311951
1771072978626261000,3.321260986328125,-0.918923020362854,0.21704746782779694,-0.27776750922203064
1771072978636201700,3.33120166015625,-0.776177704334259,0.42264336347579956,0.0141147430986166
1771072978646142500,3.341142578125,-0.5801692008972168,0.5206475853919983,0.26338642835617065
1771072978656083200,3.351083251953125,-0.38948702812194824,0.4876244366168976,0.42424124479293823
1771072978666024000,3.36102392578125,-0.24035011231899261,0.32676962018013,0.46152547001838684
1771072978675964700,3.370964599609375,-0.14341111481189728,0.0540621280670166,0.3922833502292633
1771072978685905400,3.380905517578125,-0.08801741153001785,-0.23888537287712097,0.25912538170814514
1771072978695846100,3.39084619140625,-0.06458161026239395,-0.45726442337036133,0.11851058155298233
1771072978705787000,3.400786865234375,-0.07097318768501282,-0.5360939502716064,0.00985368900001049
1771072978715727600,3.4107275390625,-0.1093226820230484,-0.5105276107788086,-0.05832318589091301
1771072978725668400,3.42066845703125,-0.1700427085161209,-0.416784405708313,-0.0870852991938591
1771072978735609000,3.430609130859375,-0.2414153665304184,-0.29640960693359375,-0.08602003753185272
1771072978745549800,3.4405498046875,-0.3127880394458771,-0.15472954511642456,-0.07430213689804077
1771072978755490600,3.450490478515625,-0.37137752771377563,-0.006657897960394621,-0.0636495053768158
1771072978765431300,3.460431396484375,-0.4054659605026245,0.13076111674308777,-0.06578002870082855
1771072978775372000,3.4703720703125,-0.41292282938957214,0.25433170795440674,-0.07217161357402802
1771072978785312800,3.480312744140625,-0.39907440543174744,0.3544664680957794,-0.0732368752360344
1771072978795253800,3.490253662109375,-0.36072489619255066,0.42264336347579956,-0.06258423626422882
1771072978805194500,3.500194580078125,-0.2968090772628784,0.4716454744338989,-0.03169159218668938
1771072978815135200,3.51013525390625,-0.21371851861476898,0.48442864418029785,0.013049479573965073
1771072978825076000,3.520075927734375,-0.13062795996665955,0.44288337230682373,0.06205160543322563
1771072978835016700,3.5300166015625,-0.06138581782579422,0.36618438363075256,0.11424952745437622
1771072978844957400,3.53995751953125,-0.008122635073959827,0.27350643277168274,0.16857796907424927
1771072978854898400,3.5498984375,0.02277000993490219,0.1808284968137741,0.22290641069412231
1771072978864839200,3.559839111328125,0.03235738351941109,0.1009337306022644,0.2708432674407959
1771072978874780000,3.56977978515625,0.030226856470108032,0.03914843872189522,0.31132328510284424
1771072978884720600,3.579720703125,0.029161592945456505,0.0050600022077560425,0.349672794342041
1771072978894661400,3.589661376953125,0.04194475710391998,0.010386320762336254,0.38589176535606384
1771072978904602400,3.599602294921875,0.061119500547647476,0.04660528525710106,0.4114580750465393
1771072978914543000,3.609543212890625,0.08029424399137497,0.07856319099664688,0.4210454523563385
1771072978924483800,3.61948388671875,0.08668582886457443,0.06471476703882217,0.40080544352531433
1771072978934424600,3.629424560546875,0.09414267539978027,-0.0034621069207787514,0.3464770019054413
1771072978944365300,3.639365234375,0.11438268423080444,-0.09400951862335205,0.28256118297576904
1771072978954306000,3.64930615234375,0.12929637730121613,-0.17496955394744873,0.22077588737010956
1771072978964247000,3.6592470703125,0.12503531575202942,-0.22716747224330902,0.16431692242622375
1771072978974187800,3.669187744140625,0.11331742256879807,-0.24314641952514648,0.12170637398958206
1771072978984128500,3.67912841796875,0.10266478359699249,-0.21331904828548431,0.09294424951076508
1771072978994069200,3.6890693359375,0.09520793706178665,-0.15153375267982483,0.07803056389093399
1771072979004010000,3.699010009765625,0.08881635963916779,-0.0918789878487587,0.0727042406797409
1771072979013951000,3.708950927734375,0.07922898232936859,-0.05139897018671036,0.06950845569372177
1771072979023891700,3.7188916015625,0.07603318989276886,-0.023702116683125496,0.07057371735572815
1771072979033832400,3.72883251953125,0.08135951310396194,-0.005592633970081806,0.08016108721494675
1771072979043773200,3.738773193359375,0.09627319872379303,0.0050600022077560425,0.09933583438396454
1771072979053714000,3.7487138671875,0.11864373832941055,0.011451584286987782,0.12703268229961395
1771072979063654700,3.758654541015625,0.14101427793502808,0.014647374860942364,0.14194637537002563
1771072979073595600,3.768595703125,0.16977639496326447,0.03701791167259216,0.13555480539798737
1771072979083536400,3.778536376953125,0.22836589813232422,0.12543480098247528,0.12703268229961395
1771072979093477000,3.78847705078125,0.3103911876678467,0.2522011697292328,0.12383689731359482
1771072979103417900,3.79841796875,0.36791542172431946,0.26391905546188354,0.08548741042613983
1771072979113358600,3.808358642578125,0.350871205329895,0.07004108279943466,-0.03701791167259216
1771072979123299300,3.81829931640625,0.25499749183654785,-0.25379905104637146,-0.22983063757419586
1771072979133240300,3.828240234375,0.1346226930618286,-0.5478118062019348,-0.4024033546447754
1771072979143181000,3.83818115234375,0.028096329420804977,-0.6660560965538025,-0.4876244366168976
1771072979153121800,3.848121826171875,-0.06351634114980698,-0.6021402478218079,-0.4684496819972992
1771072979163062500,3.8580625,-0.12530162930488586,-0.38589176535606384,-0.34274858236312866
1771072979173003300,3.868003173828125,-0.10399636626243591,-0.03435475379228592,-0.11478215456008911
1771072979182944300,3.8779443359375,0.033422645181417465,0.34807488322257996,0.16538217663764954
1771072979192885000,3.887885009765625,0.23262694478034973,0.6335655450820923,0.4082622826099396
1771072979202825700,3.89782568359375,0.3988080620765686,0.7720498442649841,0.5339633822441101
1771072979212766500,3.907766357421875,0.5063996911048889,0.7571361064910889,0.5222455263137817
1771072979222707200,3.917707275390625,0.5777723789215088,0.593085527420044,0.3869570195674896
1771072979232648000,3.92764794921875,0.5756418108940125,0.3363569974899292,0.15899059176445007
1771072979242589000,3.9375888671875,0.5000081062316895,0.06471476703882217,-0.1009337306022644
1771072979252529700,3.94752978515625,0.37324175238609314,-0.171773761510849,-0.33316120505332947
1771072979262470400,3.957470458984375,0.22303956747055054,-0.33369383215904236,-0.5004075765609741
1771072979272411100,3.9674111328125,0.09840372949838638,-0.40506649017333984,-0.5739107728004456
1771072979282351900,3.977351806640625,-0.005992108024656773,-0.39547911286354065,-0.5621928572654724
1771072979292292600,3.987292724609375,-0.09227846562862396,-0.3315632939338684,-0.4812328517436981
1771072979302233600,3.997233642578125,-0.14447638392448425,-0.21651484072208405,-0.34807488322257996
1771072979312174300,4.00717431640625,-0.15725953876972198,-0.0727042406797409,-0.20319904386997223
1771072979322115000,4.017114990234375,-0.12743216753005981,0.06471476703882217,-0.07856319099664688
1771072979332055800,4.027055908203125,-0.05712476372718811,0.1957421898841858,0.013049479573965073
1771072979341996500,4.03699658203125,0.04620581120252609,0.32890015840530396,0.0684431865811348
1771072979351937500,4.0469375,0.1687111258506775,0.46205809712409973,0.09081372618675232
1771072979361878300,4.056878173828125,0.3008038103580475,0.5792371034622192,0.08974846452474594
1771072979371819000,4.066819091796875,0.42863544821739197,0.6463487148284912,0.0822916179895401
1771072979381759700,4.076759765625,0.5340965390205383,0.6356960535049438,0.06950845569372177
1771072979391700500,4.086700439453125,0.598012387752533,0.5462139248847961,0.04713791608810425
1771072979401641200,4.09664111328125,0.6086649894714355,0.38642439246177673,0.005592633970081806
1771072979411582200,4.106582275390625,0.5788376331329346,0.18828535079956055,-0.04554001986980438
1771072979421523000,4.11652294921875,0.5191828608512878,-0.03861580789089203,-0.08282424509525299
1771072979431463700,4.126463623046875,0.4414186179637909,-0.2644517123699188,-0.09028109163045883
1771072979441404400,4.136404296875,0.3561975359916687,-0.435959130525589,-0.0540621280670166
1771072979451345200,4.14634521484375,0.2709764242172241,-0.5286371111869812,0.0141147430986166
1771072979461286000,4.156285888671875,0.1868206113576889,-0.5563339591026306,0.08655267208814621
1771072979471227000,4.166226806640625,0.1303616315126419,-0.5403549671173096,0.1387505829334259
1771072979481167600,4.176167724609375,0.10799109935760498,-0.4870918095111847,0.1621863842010498
1771072979491108400,4.1861083984375,0.10799109935760498,-0.40080544352531433,0.1525990217924118
1771072979501049000,4.196049072265625,0.11118689179420471,-0.29534435272216797,0.10998847335577011
1771072979510989800,4.20598974609375,0.11438268423080444,-0.18349166214466095,0.04287686198949814
1771072979520930800,4.215930908203125,0.10905636847019196,-0.08974846452474594,-0.03701791167259216
1771072979530871600,4.22587158203125,0.09627319872379303,-0.031158961355686188,-0.11371689289808273
1771072979540812300,4.235812255859375,0.0834900364279747,0.008255792781710625,-0.17017586529254913
1771072979550753000,4.2457529296875,0.07816372066736221,0.03914843872189522,-0.19254639744758606
1771072979560693800,4.25569384765625,0.06538055837154388,0.06258423626422882,-0.18295903503894806
1771072979570634500,4.265634521484375,0.04301001876592636,0.07643266767263412,-0.1478053331375122
1771072979580575500,4.275575439453125,0.007856319658458233,0.07110634446144104,-0.10306425392627716
1771072979590516200,4.28551611328125,-0.023036325350403786,0.060453712940216064,-0.060453712940216064
1771072979600457000,4.29545703125,-0.04860265180468559,0.03169159218668938,-0.02636527456343174
1771072979610397700,4.305397705078125,-0.07949529588222504,-0.036485280841588974,-0.015712639316916466
1771072979620338400,4.31533837890625,-0.11677952855825424,-0.13129374384880066,-0.03808317333459854
1771072979630279200,4.325279052734375,-0.1561942845582962,-0.23036326467990875,-0.08815056830644608
1771072979640220200,4.33522021484375,-0.19560903310775757,-0.31878015398979187,-0.14141374826431274
1771072979650161000,4.345160888671875,-0.23395852744579315,-0.34860754013061523,-0.18189376592636108
1771072979660101600,4.3551015625,-0.27230802178382874,-0.31878015398979187,-0.19787272810935974
1771072979670042400,4.36504248046875,-0.30533120036125183,-0.24314641952514648,-0.1861548274755478
1771072979679983000,4.374983154296875,-0.314918577671051,-0.08442214131355286,-0.138217955827713
1771072979689923800,4.384923828125,-0.29041749238967896,0.15952323377132416,-0.0636495053768158
1771072979699864600,4.394864501953125,-0.24354590475559235,0.3608580529689789,0.0023968431632965803
1771072979709805300,4.404805419921875,-0.20626167953014374,0.39494648575782776,0.00985368900001049
1771072979719746000,4.41474609375,-0.20200061798095703,0.23835274577140808,-0.08069372177124023
1771072979729686800,4.424686767578125,-0.25313326716423035,-0.05459476262331009,-0.2713759243488312
1771072979739627500,4.43462744140625,-0.3671164810657501,-0.41465386748313904,-0.4918854832649231
1771072979749568300,4.444568359375,-0.5045354962348938,-0.6426202654838562,-0.6442182064056396
1771072979759509000,4.454509033203125,-0.6217144727706909,-0.6841655969619751,-0.6825676560401917
1771072979769449700,4.46444970703125,-0.737828254699707,-0.6074665784835815,-0.6314350366592407
1771072979779390500,4.474390380859375,-0.8155924677848816,-0.4210454523563385,-0.49401602149009705
1771072979789331200,4.484331298828125,-0.7964177131652832,-0.11318425834178925,-0.25965800881385803
1771072979799272000,4.49427197265625,-0.6536723971366882,0.2564622163772583,0.02583264373242855
1771072979809212700,4.504212646484375,-0.4246407151222229,0.5877591967582703,0.28682222962379456
1771072979819153400,4.5141533203125,-0.1988048255443573,0.8008119463920593,0.4583296775817871
1771072979829094100,4.52409423828125,-0.043276336044073105,0.8711193203926086,0.5190497040748596
1771072979839035000,4.534034912109375,0.0504668653011322,0.8338351249694824,0.4785696864128113
1771072979848975400,4.543975341796875,0.06325002759695053,0.6676539778709412,0.3230412006378174
1771072979858916000,4.553916015625,-0.03795001655817032,0.3842938542366028,0.052464235574007034
1771072979868856800,4.56385693359375,-0.22117535769939423,0.03701791167259216,-0.27670222520828247
1771072979878797600,4.573797607421875,-0.4235754609107971,-0.23675484955310822,-0.5739107728004456
1771072979888738300,4.58373828125,-0.5631250143051147,-0.3081275224685669,-0.7571361064910889
1771072979898679000,4.593678955078125,-0.6494113206863403,-0.2324937880039215,-0.8157256245613098
1771072979908619800,4.603619873046875,-0.7069355845451355,-0.09081372618675232,-0.7731150984764099
1771072979918560500,4.613560546875,-0.6994787454605103,0.10306425392627716,-0.6378266215324402
1771072979928501200,4.623501220703125,-0.6121271252632141,0.318247526884079,-0.45566651225090027
1771072979938442000,4.63344189453125,-0.4704470634460449,0.5185170769691467,-0.2713759243488312
1771072979948382700,4.6433828125,-0.30000486969947815,0.6804371476173401,-0.11371689289808273
1771072979958323500,4.653323486328125,-0.12636689841747284,0.7922898530960083,0.001331579522229731
1771072979968264200,4.66326416015625,0.0270310640335083,0.8412919640541077,0.06524740159511566
1771072979978205000,4.673204833984375,0.15592797100543976,0.8327698707580566,0.0918789878487587
1771072979988145700,4.683145751953125,0.2571280002593994,0.7667235136032104,0.0918789878487587
1771072979998086400,4.69308642578125,0.32956594228744507,0.6591318845748901,0.08974846452474594
1771072980008027100,4.703027099609375,0.3849596381187439,0.5472791790962219,0.10466215014457703
1771072980017967900,4.7129677734375,0.41478702425956726,0.4343612492084503,0.14088112115859985
1771072980027908600,4.72290869140625,0.40626493096351624,0.2937464416027069,0.18242639303207397
1771072980037849300,4.732849365234375,0.3711112141609192,0.138217955827713,0.22503694891929626
1771072980047790300,4.742790283203125,0.3199785649776459,-0.023702116683125496,0.27830013632774353
1771072980057731000,4.75273095703125,0.2390185296535492,-0.1856221854686737,0.3326285779476166
1771072980067671800,4.762671875,0.13142690062522888,-0.31984540820121765,0.36778226494789124
1771072980077612500,4.772612548828125,0.00892158318310976,-0.4263717830181122,0.37736964225769043
1771072980087553300,4.78255322265625,-0.10825742036104202,-0.5137233734130859,0.35819488763809204
1771072980097494000,4.792493896484375,-0.1945437788963318,-0.596813976764679,0.30493173003196716
1771072980107435000,4.80243505859375,-0.23821958899497986,-0.6660560965538025,0.22929799556732178
1771072980117375700,4.812375732421875,-0.25845959782600403,-0.6926876902580261,0.1579253375530243
1771072980127316500,4.82231640625,-0.27230802178382874,-0.6554034352302551,0.09933583438396454
1771072980137257200,4.83225732421875,-0.279764860868454,-0.5627255439758301,0.05566002428531647
1771072980147198000,4.842197998046875,-0.30000486969947815,-0.4625907242298126,0.019441060721874237
1771072980157139000,4.852138916015625,-0.3266364634037018,-0.3518033027648926,-0.02636527456343174
1771072980167079700,4.86207958984375,-0.3436806797981262,-0.22929799556732178,-0.07004108279943466
1771072980177020400,4.8720205078125,-0.33835434913635254,-0.10359688848257065,-0.10626004636287689
1771072980186961200,4.881961181640625,-0.31385329365730286,0.030626330524683,-0.13289164006710052
1771072980196902000,4.89190185546875,-0.27124276757240295,0.16591481864452362,-0.15632744133472443
1771072980206842600,4.901842529296875,-0.21478378772735596,0.28628960251808167,-0.16804534196853638
1771072980216783600,4.91178369140625,-0.14554163813591003,0.3789675533771515,-0.16165375709533691
1771072980226724400,4.921724365234375,-0.06138581782579422,0.4301002025604248,-0.138217955827713
1771072980236665000,4.9316650390625,0.04194475710391998,0.4173170328140259,-0.0966726765036583
1771072980246605800,4.941605712890625,0.1495363861322403,0.3459443747997284,-0.03382211923599243
1771072980256546600,4.951546630859375,0.24647536873817444,0.2607232630252838,0.040746334940195084
1771072980266487300,4.9614873046875,0.331696480512619,0.2234390527009964,0.11424952745437622
1771072980276428300,4.97142822265625,0.4137217700481415,0.25965800881385803,0.18881797790527344
1771072980286369000,4.981369140625,0.48615968227386475,0.2990727722644806,0.23675484955310822
1771072980296309800,4.991309814453125,0.5319660305976868,0.2553969621658325,0.22716747224330902
1771072980306250500,5.00125048828125,0.5404881238937378,0.09773793816566467,0.1579253375530243
1771072980316191200,5.011191162109375,0.4936165511608124,-0.13129374384880066,0.0354200154542923
1771072980326132200,5.02113232421875,0.37856805324554443,-0.3784348964691162,-0.110521100461483
1771072980336073000,5.031072998046875,0.23688800632953644,-0.568051815032959,-0.2372874766588211
1771072980346013700,5.041013671875,0.11544794589281082,-0.6191844940185547,-0.3043990731239319
1771072980355954400,5.050954345703125,0.021704746410250664,-0.5584644675254822,-0.29587697982788086
1771072980365895200,5.060895263671875,-0.03795001655817032,-0.3922833502292633,-0.1957421898841858
1771072980375836000,5.0708359375,-0.028362644836306572,-0.12703268229961395,-0.013582111336290836
1771072980385777000,5.08077685546875,0.06644582003355026,0.15632744133472443,0.1898832470178604
1771072980395717600,5.090717529296875,0.21132168173789978,0.36192330718040466,0.34434646368026733
1771072980405658400,5.100658447265625,0.342349112033844,0.42796966433525085,0.4103928208351135
1771072980415599000,5.11059912109375,0.42970073223114014,0.37151068449020386,0.3880222737789154
1771072980425539800,5.120539794921875,0.49042075872421265,0.23515695333480835,0.30599698424339294
1771072980435480600,5.13048046875,0.5266396999359131,0.028495801612734795,0.1813611388206482
1771072980445421600,5.140421630859375,0.5074649453163147,-0.20266640186309814,0.03435475379228592
1771072980455362300,5.1503623046875,0.43289652466773987,-0.3752391040325165,-0.08495477586984634
1771072980465303000,5.160302978515625,0.3380880355834961,-0.4338286221027374,-0.15206637978553772
1771072980475243800,5.170243896484375,0.25606274604797363,-0.3848264813423157,-0.16165375709533691
1771072980485184500,5.1801845703125,0.19747324287891388,-0.2655169665813446,-0.13182637095451355
1771072980495125500,5.19012548828125,0.16018901765346527,-0.13981585204601288,-0.08388951420783997
1771072980505066200,5.200066162109375,0.15166690945625305,-0.03755054250359535,-0.04234423115849495
1771072980515007000,5.210007080078125,0.16231954097747803,0.01784316636621952,-0.021038956940174103
1771072980524947700,5.21994775390625,0.18362481892108917,0.04127896577119827,-0.027430538088083267
1771072980534888400,5.229888427734375,0.219843789935112,0.0636495053768158,-0.04234423115849495
1771072980544829200,5.2398291015625,0.2709764242172241,0.08602003753185272,-0.04980107396841049
1771072980554770200,5.249770263671875,0.331696480512619,0.08815056830644608,-0.04554001986980438
1771072980564711000,5.2597109375,0.3988080620765686,0.08282424509525299,-0.025300011038780212
1771072980574651600,5.269651611328125,0.46698495745658875,0.08815056830644608,0.011984216049313545
1771072980584592400,5.27959228515625,0.5330312848091125,0.09880319982767105,0.056725289672613144
1771072980594533000,5.289533203125,0.5873597264289856,0.08921582996845245,0.10146636515855789
1771072980604473900,5.299473876953125,0.631035566329956,0.04767054691910744,0.14514216780662537
1771072980614414800,5.309414794921875,0.6672545075416565,-0.00985368900001049,0.19307903945446014
1771072980624355600,5.31935546875,0.6832334399223328,-0.06950845569372177,0.24634221196174622
1771072980634296300,5.32929638671875,0.6725808382034302,-0.13235901296138763,0.293213814496994
1771072980644237000,5.339237060546875,0.643818736076355,-0.18242639303207397,0.3326285779476166
1771072980654177800,5.349177734375,0.6054692268371582,-0.20266640186309814,0.3613906800746918
1771072980664118800,5.359118896484375,0.560728132724762,-0.20799273252487183,0.3731085956096649
1771072980674059500,5.3690595703125,0.5063996911048889,-0.2143843024969101,0.3518033027648926
1771072980684000300,5.379000244140625,0.44781020283699036,-0.22077588737010956,0.3028011918067932
1771072980693941000,5.38894091796875,0.3977428078651428,-0.21758009493350983,0.2420811653137207
1771072980703881700,5.3988818359375,0.35832804441452026,-0.20266640186309814,0.18242639303207397
1771072980713822500,5.408822509765625,0.3178480267524719,-0.19627483189105988,0.1249021589756012
1771072980723763500,5.418763427734375,0.2709764242172241,-0.2186453640460968,0.0684431865811348
1771072980733704200,5.4287041015625,0.21345220506191254,-0.25912538170814514,0.00985368900001049
1771072980743645000,5.43864501953125,0.14207953214645386,-0.2996053993701935,-0.04554001986980438
1771072980753585700,5.448585693359375,0.05898897349834442,-0.32517173886299133,-0.09986846894025803
1771072980763526400,5.4585263671875,-0.03262370079755783,-0.34328120946884155,-0.14674006402492523
1771072980773467100,5.468467041015625,-0.11997532099485397,-0.3656517565250397,-0.18722008168697357
1771072980783407900,5.478407958984375,-0.1849564015865326,-0.37736964225769043,-0.20746009051799774
1771072980793348600,5.4883486328125,-0.22863221168518066,-0.3592601716518402,-0.21704746782779694
1771072980803289300,5.498289306640625,-0.2541985511779785,-0.33902016282081604,-0.22663484513759613
1771072980813230000,5.50822998046875,-0.26698169112205505,-0.32943278551101685,-0.24048326909542084
1771072980823170800,5.5181708984375,-0.2733732759952545,-0.29534435272216797,-0.2671148478984833
1771072980833111300,5.528111328125,-0.279764860868454,-0.25060325860977173,-0.3033338189125061
1771072980843052000,5.538052001953125,-0.2893522381782532,-0.23355905711650848,-0.3416832983493805
1771072980852992800,5.54799267578125,-0.3032006621360779,-0.2143843024969101,-0.38003280758857727
1771072980862933500,5.55793359375,-0.3127880394458771,-0.15686006844043732,-0.40027281641960144
1771072980872874200,5.567874267578125,-0.3106575012207031,-0.07803056389093399,-0.38109806180000305
1771072980882815000,5.57781494140625,-0.28509119153022766,0.04234423115849495,-0.30546435713768005
1771072980892755700,5.587755615234375,-0.23715431988239288,0.21278640627861023,-0.18508955836296082
1771072980902696400,5.597696533203125,-0.1796300858259201,0.3512706756591797,-0.06578002870082855
1771072980912637200,5.60763720703125,-0.14128059148788452,0.36618438363075256,-0.0007989477599039674
1771072980922578000,5.617577880859375,-0.14341111481189728,0.2671148478984833,-0.025300011038780212
1771072980932518700,5.6275185546875,-0.21052272617816925,0.06578002870082855,-0.14460954070091248
1771072980942459400,5.63745947265625,-0.3436806797981262,-0.1621863842010498,-0.3129211962223053
1771072980952400100,5.647400146484375,-0.5056007504463196,-0.2985401451587677,-0.4535360038280487
1771072980962340900,5.6573408203125,-0.6387587189674377,-0.3134538233280182,-0.517451822757721
1771072980972281600,5.667281494140625,-0.7197187542915344,-0.2516685426235199,-0.5025381445884705
1771072980982222300,5.677222412109375,-0.7452850937843323,-0.07483477145433426,-0.39068543910980225
1771072980992163000,5.6871630859375,-0.683499813079834,0.25326642394065857,-0.17550218105316162
1771072981002103800,5.697103759765625,-0.5226449966430664,0.6101297736167908,0.09294424951076508
1771072981012044500,5.70704443359375,-0.3117227852344513,0.860466718673706,0.3315632939338684
1771072981021985300,5.7169853515625,-0.13062795996665955,0.9637972712516785,0.48922231793403625
1771072981031926000,5.726926025390625,0.005725792143493891,0.9499488472938538,0.5637907981872559
1771072981041866800,5.73686669921875,0.11970899999141693,0.8476835489273071,0.5701823830604553
1771072981051807500,5.746807373046875,0.18575534224510193,0.6431529521942139,0.5137233734130859
1771072981061748200,5.756748291015625,0.18362481892108917,0.3736412227153778,0.4157191216945648
1771072981071689000,5.76668896484375,0.12929637730121613,0.0732368752360344,0.293213814496994
1771072981081629700,5.776629638671875,0.03555317223072052,-0.21118851006031036,0.16325165331363678
1771072981091570400,5.7865703125,-0.07416898012161255,-0.4210454523563385,0.0492684431374073
1771072981101511200,5.79651123046875,-0.16471639275550842,-0.4956139028072357,-0.035952646285295486
1771072981111452000,5.806451904296875,-0.2456764280796051,-0.4338286221027374,-0.08921582996845245
1771072981121392600,5.816392578125,-0.3213101327419281,-0.2516685426235199,-0.10732531547546387
1771072981131333400,5.82633349609375,-0.3767038583755493,0.016777902841567993,-0.09347688406705856
1771072981141274000,5.836274169921875,-0.39800912141799927,0.29694223403930664,-0.06578002870082855
1771072981151214800,5.84621484375,-0.36498594284057617,0.5472791790962219,-0.040213704109191895
1771072981161155600,5.856155517578125,-0.27124276757240295,0.7592666745185852,-0.013582111336290836
1771072981171096600,5.8660966796875,-0.13915006816387177,0.9105340838432312,0.006657897960394621
1771072981181037300,5.876037353515625,0.001464737462811172,0.9744499325752258,0.019441060721874237
1771072981190978000,5.88597802734375,0.12503531575202942,0.9616667628288269,0.02157158963382244
1771072981200918800,5.895918701171875,0.22836589813232422,0.873249888420105,0.010918952524662018
1771072981210859500,5.905859619140625,0.3135869801044464,0.7305045127868652,0.0002663159102667123
1771072981220800300,5.91580029296875,0.37324175238609314,0.5494097471237183,0.0002663159102667123
1771072981230741200,5.9257412109375,0.4030691385269165,0.35766226053237915,0.015180006623268127
1771072981240682000,5.935681884765625,0.4030691385269165,0.18828535079956055,0.052464235574007034
1771072981250622700,5.945622802734375,0.37856805324554443,0.05086633935570717,0.11744531989097595
1771072981260563500,5.9555634765625,0.33915331959724426,-0.05352949723601341,0.20373167097568512
1771072981270504200,5.965504150390625,0.29334697127342224,-0.12703268229961395,0.3070622384548187
1771072981280445200,5.975445068359375,0.2475406378507614,-0.16431692242622375,0.4103928208351135
1771072981290386000,5.985385986328125,0.20279955863952637,-0.171773761510849,0.481765478849411
1771072981300326700,5.99532666015625,0.16125428676605225,-0.16857796907424927,0.4956139028072357
1771072981310267400,6.005267333984375,0.12716585397720337,-0.15899059176445007,0.4444812536239624
1771072981320208100,6.0152080078125,0.10586057603359222,-0.13981585204601288,0.34860754013061523
1771072981330148900,6.02514892578125,0.08988162130117416,-0.09827057272195816,0.23355905711650848
1771072981340089900,6.03508984375,0.0739026665687561,-0.05459476262331009,0.12170637398958206
1771072981350030600,6.045030517578125,0.05472791939973831,-0.010918952524662018,0.0354200154542923
1771072981359971300,6.054971435546875,0.03448791056871414,0.04554001986980438,-0.016777902841567993
1771072981369912000,6.064912109375,0.011052110232412815,0.10839057713747025,-0.035952646285295486
1771072981379852800,6.074852783203125,-0.015579480677843094,0.16165375709533691,-0.03382211923599243
1771072981389793500,6.08479345703125,-0.0294279083609581,0.20746009051799774,-0.011451584286987782
1771072981399734500,6.094734619140625,-0.02090579830110073,0.2660495936870575,0.03328948840498924
1771072981409675300,6.10467529296875,0.007856319658458233,0.3225085735321045,0.08548741042613983
1771072981419616000,6.114615966796875,0.05153212696313858,0.337422251701355,0.1387505829334259
1771072981429556700,6.124556640625,0.10053425282239914,0.3022685647010803,0.18455693125724792
1771072981439497500,6.13449755859375,0.163384810090065,0.2330264151096344,0.21971063315868378
1771072981449438500,6.1444384765625,0.23049642145633698,0.09347688406705856,0.23142851889133453
1771072981459379200,6.154379150390625,0.285890132188797,-0.12596742808818817,0.20266640186309814
1771072981469320000,6.16431982421875,0.3274354040622711,-0.33475908637046814,0.14088112115859985
1771072981479260700,6.1742607421875,0.36152383685112,-0.4071970283985138,0.08761793375015259
1771072981489201400,6.184201416015625,0.3796333372592926,-0.3304980397224426,0.06311687082052231
1771072981499142100,6.19414208984375,0.34447962045669556,-0.21118851006031036,0.04394212365150452
1771072981509083100,6.204083251953125,0.23156169056892395,-0.22077588737010956,-0.03808317333459854
1771072981519023900,6.21402392578125,0.05579318478703499,-0.4029359817504883,-0.21278640627861023
1771072981528964600,6.223964599609375,-0.12104058265686035,-0.6245108246803284,-0.42370861768722534
1771072981538905300,6.2339052734375,-0.2648511826992035,-0.7246456146240234,-0.5984118580818176
1771072981548846000,6.24384619140625,-0.392682820558548,-0.672447681427002,-0.6910898089408875
1771072981558786800,6.253786865234375,-0.4800344407558441,-0.4764391779899597,-0.6697844862937927
1771072981568727800,6.263727783203125,-0.47364285588264465,-0.17070849239826202,-0.5217128396034241
1771072981578668500,6.27366845703125,-0.34687647223472595,0.2181127369403839,-0.2788327634334564
1771072981588609300,6.283609375,-0.11145320534706116,0.5877591967582703,-0.019973693415522575
1771072981598550000,6.293550048828125,0.15699322521686554,0.8050730228424072,0.1771000772714615
1771072981608490800,6.30349072265625,0.3604585826396942,0.8338351249694824,0.2708432674407959
1771072981618431700,6.313431640625,0.4914860129356384,0.7198519110679626,0.2697780132293701
1771072981628372500,6.32337255859375,0.5617933869361877,0.47910231351852417,0.18029586970806122
1771072981638313200,6.333313232421875,0.5266396999359131,0.15526217222213745,0.02263685315847397
1771072981648254000,6.34325390625,0.3849596381187439,-0.18775272369384766,-0.15419691801071167
1771072981658194700,6.353194580078125,0.16658060252666473,-0.4785696864128113,-0.30546435713768005
1771072981668135400,6.363135498046875,-0.0624510794878006,-0.6532729268074036,-0.39920756220817566
1771072981678076400,6.373076416015625,-0.2318280041217804,-0.7086666226387024,-0.42903491854667664
1771072981688017200,6.38301708984375,-0.3585943877696991,-0.6617950201034546,-0.4173170328140259
1771072981697958000,6.3929580078125,-0.447011262178421,-0.5307676196098328,-0.3683148920536041
1771072981707898600,6.402898681640625,-0.457663893699646,-0.33369383215904236,-0.2713759243488312
1771072981717839400,6.41283935546875,-0.392682820558548,-0.1249021589756012,-0.14567480981349945
1771072981727780000,6.422780029296875,-0.27550381422042847,0.05725792050361633,-0.021038956940174103
1771072981737721000,6.43272119140625,-0.13701952993869781,0.1957421898841858,0.08442214131355286
1771072981747661800,6.442661865234375,-0.013448953628540039,0.28309381008148193,0.15472954511642456
1771072981757602600,6.4526025390625,0.07603318989276886,0.3257043659687042,0.18349166214466095
1771072981767543300,6.462543212890625,0.14207953214645386,0.32463908195495605,0.17283903062343597
1771072981777484000,6.472484130859375,0.19534271955490112,0.2756369709968567,0.13662005960941315
1771072981787424800,6.4824248046875,0.2432795912027359,0.20639483630657196,0.10466215014457703
1771072981797365500,6.492365478515625,0.2901511788368225,0.148870587348938,0.09933583438396454
1771072981807306000,6.502305908203125,0.32956594228744507,0.12650005519390106,0.12596742808818817
1771072981817246700,6.512246826171875,0.35406699776649475,0.11478215456008911,0.1675127148628235
1771072981827187500,6.5221875,0.35939332842826843,0.09560741484165192,0.20586219429969788
1771072981837128200,6.532128173828125,0.35406699776649475,0.060453712940216064,0.23568958044052124
1771072981847069000,6.54206884765625,0.34447962045669556,0.03488738462328911,0.2612559199333191
1771072981857009700,6.552009765625,0.331696480512619,0.019973693415522575,0.27830013632774353
1771072981866950400,6.561950439453125,0.3039996027946472,-0.011984216049313545,0.27297380566596985
1771072981876891100,6.57189111328125,0.2656501233577728,-0.05779055133461952,0.24847275018692017
1771072981886831900,6.581831787109375,0.23049642145633698,-0.09614004194736481,0.22290641069412231
1771072981896772600,6.591772705078125,0.20386482775211334,-0.10998847335577011,0.21331904828548431
1771072981906713300,6.60171337890625,0.17936377227306366,-0.11957584321498871,0.21118851006031036
1771072981916654000,6.611654052734375,0.1452753245830536,-0.15579481422901154,0.1952095627784729
1771072981926594800,6.6215947265625,0.10373004525899887,-0.20586219429969788,0.15579481422901154
1771072981936535600,6.63153564453125,0.06964161247015,-0.237820103764534,0.10998847335577011
1771072981946476300,6.641476318359375,0.049401599913835526,-0.228232741355896,0.07803056389093399
1771072981956417000,6.6514169921875,0.04194475710391998,-0.20160114765167236,0.06524740159511566
1771072981966357800,6.661357666015625,0.03981423005461693,-0.18881797790527344,0.06737792491912842
1771072981976298500,6.671298583984375,0.04620581120252609,-0.17816534638404846,0.08868319541215897
1771072981986239200,6.6812392578125,0.0600542388856411,-0.16431692242622375,0.11318425834178925
1771072981996180000,6.691179931640625,0.06857634335756302,-0.17390428483486176,0.12277163565158844
1771072982006120700,6.70112060546875,0.07283740490674973,-0.19734008610248566,0.11211899667978287
1771072982016061400,6.7110615234375,0.07496792823076248,-0.22184115648269653,0.09294424951076508
1771072982026002200,6.721002197265625,0.07496792823076248,-0.2559295892715454,0.07057371735572815
1771072982035943000,6.73094287109375,0.05579318478703499,-0.29108327627182007,0.04287686198949814
1771072982045883600,6.740883544921875,0.009986846707761288,-0.3315632939338684,-0.003994738683104515
1771072982055824400,6.750824462890625,-0.05819002538919449,-0.3869570195674896,-0.06578002870082855
1771072982065765000,6.76076513671875,-0.12636689841747284,-0.44128546118736267,-0.12330426275730133
1771072982075705900,6.770705810546875,-0.17643429338932037,-0.4348938763141632,-0.1531316488981247
1771072982085646600,6.780646484375,-0.1934785097837448,-0.29214856028556824,-0.14460954070091248
1771072982095587300,6.79058740234375,-0.16791218519210815,-0.040746334940195084,-0.09347688406705856
1771072982105528000,6.800528076171875,-0.13915006816387177,0.13289164006710052,-0.044474758207798004
1771072982115468800,6.81046875,-0.15299849212169647,0.1573926955461502,-0.06258423626422882
1771072982125409500,6.820409423828125,-0.18282587826251984,0.05512739345431328,-0.15952323377132416
1771072982135350300,6.830350341796875,-0.24035011231899261,-0.14407691359519958,-0.3235738277435303
1771072982145291000,6.840291015625,-0.3585943877696991,-0.36778226494789124,-0.5302349925041199
1771072982155231700,6.850231689453125,-0.4992091655731201,-0.5147886276245117,-0.7241129875183105
1771072982165172500,6.86017236328125,-0.6057355403900146,-0.5350286364555359,-0.8402267098426819
1771072982175113200,6.87011328125,-0.683499813079834,-0.4551338851451874,-0.873249888420105
1771072982185054000,6.880053955078125,-0.7356976866722107,-0.2793653905391693,-0.8189214468002319
1771072982194994700,6.88999462890625,-0.7016092538833618,-0.011984216049313545,-0.6601971387863159
1771072982204935400,6.899935302734375,-0.5759081840515137,0.2841590642929077,-0.42903491854667664
1771072982214876400,6.90987646484375,-0.39481332898139954,0.5153213143348694,-0.19361166656017303
1771072982224817200,6.919817138671875,-0.24035011231899261,0.5898897647857666,-0.018908429890871048
1771072982234758000,6.9297578125,-0.14341111481189728,0.5110602378845215,0.06737792491912842
1771072982244698600,6.93969873046875,-0.07949529588222504,0.3225085735321045,0.07909582555294037
1771072982254639400,6.949639404296875,-0.06138581782579422,0.10199899226427078,0.03328948840498924
1771072982264580000,6.959580078125,-0.09227846562862396,-0.052464235574007034,-0.03808317333459854
1771072982274521000,6.96952099609375,-0.1561942845582962,-0.10146636515855789,-0.11265163123607635
1771072982284461800,6.9794619140625,-0.2265016883611679,-0.08761793375015259,-0.1808284968137741
1771072982294402600,6.989402587890625,-0.29041749238967896,-0.0492684431374073,-0.2426137924194336
1771072982304343300,6.99934326171875,-0.3404848873615265,0.015712639316916466,-0.2852243483066559
1771072982314284000,7.009283935546875,-0.38096490502357483,0.09880319982767105,-0.3033338189125061
1771072982324225000,7.01922509765625,-0.40866175293922424,0.1712411344051361,-0.30013802647590637
1771072982334165800,7.029165771484375,-0.41824913024902344,0.21598219871520996,-0.27244117856025696
1771072982344106500,7.0391064453125,-0.4022701680660248,0.25433170795440674,-0.22663484513759613
1771072982354047200,7.049047119140625,-0.3596596419811249,0.29268118739128113,-0.16804534196853638
1771072982363988000,7.058988037109375,-0.2925480306148529,0.32037803530693054,-0.10626004636287689
1771072982373928700,7.0689287109375,-0.20519641041755676,0.3416832983493805,-0.04127896577119827
1771072982383869700,7.07886962890625,-0.10719215124845505,0.3512706756591797,0.02583264373242855
1771072982393810400,7.088810546875,-0.01664474420249462,0.33955278992652893,0.08974846452474594
1771072982403751200,7.098751220703125,0.05579318478703499,0.3129211962223053,0.1483379602432251
1771072982413692000,7.10869189453125,0.11012163013219833,0.2745717167854309,0.20373167097568512
1771072982423632600,7.118632568359375,0.15486270189285278,0.2330264151096344,0.2527337968349457
1771072982433573400,7.128573486328125,0.17403744161128998,0.17550218105316162,0.2878875136375427
1771072982443514400,7.138514404296875,0.17190691828727722,0.10839057713747025,0.31025803089141846
1771072982453455000,7.148455078125,0.163384810090065,0.04340949282050133,0.33475908637046814
1771072982463395800,7.158395751953125,0.14847111701965332,-0.023702116683125496,0.3645864725112915
1771072982473336600,7.168336669921875,0.12929637730121613,-0.10146636515855789,0.40080544352531433
1771072982483277300,7.17827734375,0.10479531437158585,-0.17390428483486176,0.4444812536239624
1771072982493218300,7.18821826171875,0.07922898232936859,-0.22503694891929626,0.492418110370636
1771072982503159000,7.198158935546875,0.0504668653011322,-0.2793653905391693,0.5243760347366333
1771072982513099800,7.208099853515625,0.020639482885599136,-0.3454117476940155,0.5254412889480591
1771072982523040500,7.21804052734375,-0.008122635073959827,-0.3976096510887146,0.49987494945526123
1771072982532981200,7.227981201171875,-0.04540686309337616,-0.4221107065677643,0.44661179184913635
1771072982542922000,7.237921875,-0.09334372729063034,-0.4306328296661377,0.36778226494789124
1771072982552863000,7.247863037109375,-0.14873743057250977,-0.4157191216945648,0.27830013632774353
1771072982562803700,7.2578037109375,-0.19560903310775757,-0.35393384099006653,0.1898832470178604
1771072982572744400,7.267744384765625,-0.2265016883611679,-0.23888537287712097,0.11638005077838898
1771072982582685200,7.277685302734375,-0.24354590475559235,-0.08761793375015259,0.0684431865811348
1771072982592626000,7.2876259765625,-0.24248063564300537,0.0732368752360344,0.040746334940195084
1771072982602567000,7.29756689453125,-0.2179795652627945,0.2095906287431717,0.026897907257080078
1771072982612507600,7.307507568359375,-0.17749954760074615,0.2884201407432556,0.023702116683125496
1771072982622448400,7.317448486328125,-0.12956269085407257,0.3075948655605316,0.03968106955289841
1771072982632389000,7.32738916015625,-0.07949529588222504,0.2894853949546814,0.08868319541215897
1771072982642329900,7.337329833984375,-0.030493171885609627,0.24474431574344635,0.16431692242622375
1771072982652270600,7.3472705078125,0.01318263728171587,0.16591481864452362,0.2474074810743332
1771072982662211600,7.357211669921875,0.0600542388856411,0.05938844755291939,0.3230412006378174
1771072982672152300,7.36715234375,0.12397005409002304,-0.001331579522229731,0.39974018931388855
1771072982682093000,7.377093017578125,0.20706062018871307,0.10519478470087051,0.48496127128601074
1771072982692033800,7.38703369140625,0.294412225484848,0.3491401672363281,0.5701823830604553
1771072982701974500,7.396974609375,0.3519364893436432,0.517451822757721,0.596813976764679
1771072982711915300,7.406915283203125,0.39135122299194336,0.44714441895484924,0.5158539414405823
1771072982721856000,7.41685595703125,0.3988080620765686,0.1339569091796875,0.3091927766799927
1771072982731796700,7.426796630859375,0.3338269889354706,-0.3091927766799927,-0.002929474925622344
1771072982741737500,7.436737548828125,0.20279955863952637,-0.7107971906661987,-0.3171822428703308
1771072982751678200,7.44667822265625,0.07283740490674973,-0.878043532371521,-0.5334307551383972
1771072982761619000,7.456618896484375,-0.052863709628582,-0.7661908864974976,-0.6069339513778687
1771072982771559700,7.4665595703125,-0.16365112364292145,-0.4444812536239624,-0.5249086618423462
1771072982781500400,7.47650048828125,-0.20093534886837006,0.0050600022077560425,-0.29694223403930664
1771072982791441200,7.486441162109375,-0.13382373750209808,0.42796966433525085,-0.0050600022077560425
1771072982801382000,7.4963818359375,0.0035952648613601923,0.7028076648712158,0.237820103764534
1771072982811322600,7.506322509765625,0.1442100703716278,0.8210519552230835,0.3645864725112915
1771072982821263400,7.516263427734375,0.2773680090904236,0.7933551073074341,0.3741738498210907
1771072982831204000,7.5262041015625,0.40946072340011597,0.6367613673210144,0.29747486114501953
1771072982841144800,7.536144775390625,0.5170523524284363,0.4173170328140259,0.16964323818683624
1771072982851085600,7.54608544921875,0.5415533781051636,0.20319904386997223,0.007723161485046148
1771072982861026300,7.5560263671875,0.4733765423297882,-0.013049479573965073,-0.18402428925037384
1771072982870967000,7.565967041015625,0.34980595111846924,-0.24953800439834595,-0.40346860885620117
1771072982880907800,7.57590771484375,0.23262694478034973,-0.45619916915893555,-0.6143907904624939
1771072982890848500,7.5858486328125,0.1537974327802658,-0.5648560523986816,-0.7496792674064636
1771072982900789200,7.595789306640625,0.08562056720256805,-0.538224458694458,-0.7848330140113831
1771072982910730000,7.60572998046875,0.020639482885599136,-0.4295675754547119,-0.7155908346176147
1771072982920670700,7.615670654296875,-0.043276336044073105,-0.2804306447505951,-0.5675191879272461
1771072982930611500,7.625611572265625,-0.07949529588222504,-0.1249021589756012,-0.38535910844802856
1771072982940552200,7.63555224609375,-0.06671213358640671,0.013582111336290836,-0.2277000993490219
1771072982950493000,7.645492919921875,-0.011318426579236984,0.10945583879947662,-0.1296958476305008
1771072982960433700,7.65543359375,0.08135951310396194,0.15419691801071167,-0.0913463607430458
1771072982970374400,7.66537451171875,0.1964079886674881,0.18295903503894806,-0.08282424509525299
1771072982980315100,7.675315185546875,0.3242396116256714,0.20852535963058472,-0.07217161357402802
1771072982990255600,7.685255615234375,0.4424838721752167,0.22237378358840942,-0.04554001986980438
1771072983000196400,7.6951962890625,0.5426186919212341,0.20532956719398499,0.005592633970081806
1771072983010137000,7.70513720703125,0.6075997352600098,0.16591481864452362,0.07483477145433426
1771072983020077800,7.715077880859375,0.6321008205413818,0.0966726765036583,0.14940322935581207
1771072983030018600,7.7250185546875,0.6278397440910339,0.027430538088083267,0.22290641069412231
1771072983039959300,7.734959228515625,0.6129260659217834,-0.029028434306383133,0.28682222962379456
1771072983049900000,7.744900146484375,0.585229218006134,-0.0822916179895401,0.3315632939338684
1771072983059840800,7.7548408203125,0.5426186919212341,-0.14088112115859985,0.3549990952014923
1771072983069781500,7.764781494140625,0.4893554747104645,-0.1771000772714615,0.3613906800746918
1771072983079722200,7.77472216796875,0.42970073223114014,-0.17923060059547424,0.3549990952014923
1771072983089663000,7.7846630859375,0.35513225197792053,-0.1771000772714615,0.3358243703842163
1771072983099603700,7.794603759765625,0.26884591579437256,-0.18455693125724792,0.29640960693359375
1771072983109544400,7.80454443359375,0.1772332340478897,-0.20266640186309814,0.23888537287712097
1771072983119485200,7.814485107421875,0.09627319872379303,-0.22077588737010956,0.18242639303207397
1771072983129426000,7.824426025390625,0.03555317223072052,-0.21012325584888458,0.13768532872200012
1771072983139366700,7.83436669921875,-0.005992108024656773,-0.17923060059547424,0.11211899667978287
1771072983149307400,7.844307373046875,-0.04008054360747337,-0.1525990217924118,0.10040109604597092
1771072983159248100,7.854248046875,-0.07097318768501282,-0.14514216780662537,0.09507478028535843
1771072983169188900,7.86418896484375,-0.08908267319202423,-0.14088112115859985,0.09720530360937119
1771072983179129600,7.874129638671875,-0.0954742506146431,-0.1387505829334259,0.11105373501777649
1771072983189070600,7.884070556640625,-0.09760478138923645,-0.1387505829334259,0.12703268229961395
1771072983199011300,7.89401123046875,-0.09653951972723007,-0.15046848356723785,0.15046848356723785
1771072983208952000,7.9039521484375,-0.0997353047132492,-0.16325165331363678,0.18029586970806122
1771072983218892800,7.913892822265625,-0.1093226820230484,-0.16005586087703705,0.21331904828548431
1771072983228833500,7.92383349609375,-0.14021532237529755,-0.15366427600383759,0.23355905711650848
1771072983238774300,7.933774169921875,-0.1945437788963318,-0.1579253375530243,0.22716747224330902
1771072983248715300,7.94371533203125,-0.2541985511779785,-0.18242639303207397,0.19840535521507263
1771072983258656000,7.953656005859375,-0.30426591634750366,-0.21012325584888458,0.15366427600383759
1771072983268596700,7.9635966796875,-0.3213101327419281,-0.20160114765167236,0.11424952745437622
1771072983278537500,7.973537353515625,-0.29574382305145264,-0.1813611388206482,0.10253162682056427
1771072983288478200,7.983478271484375,-0.25845959782600403,-0.18881797790527344,0.11318425834178925
1771072983298419200,7.993419189453125,-0.2595248520374298,-0.21758009493350983,0.09507478028535843
1771072983308360000,8.00335986328125,-0.314918577671051,-0.28682222962379456,-0.003994738683104515
1771072983318300700,8.01330078125,-0.4342280924320221,-0.40400123596191406,-0.1904158741235733
1771072983328241400,8.023241455078125,-0.5833650231361389,-0.4860265254974365,-0.4215780794620514
1771072983338182100,8.03318212890625,-0.7175882458686829,-0.45619916915893555,-0.6314350366592407
1771072983348123000,8.043122802734375,-0.8283756375312805,-0.30493173003196716,-0.7667235136032104
1771072983358063900,8.05306396484375,-0.9167925119400024,-0.040746334940195084,-0.7922898530960083
1771072983368004600,8.063004638671876,-0.9317061901092529,0.3033338189125061,-0.6751108169555664
1771072983377945300,8.0729453125,-0.8422240614891052,0.6591318845748901,-0.44714441895484924
1771072983387886000,8.082885986328124,-0.6558029055595398,0.9339699149131775,-0.17337165772914886
1771072983397826800,8.092826904296874,-0.45446810126304626,1.0809762477874756,0.0684431865811348
1771072983407767600,8.102767578125,-0.29041749238967896,1.078845739364624,0.23568958044052124
1771072983417708500,8.11270849609375,-0.14767217636108398,0.9137299060821533,0.31984540820121765
1771072983427649300,8.122649169921875,-0.051798444241285324,0.5845634341239929,0.29534435272216797
1771072983437590000,8.132590087890625,-0.039015281945466995,0.1573926955461502,0.16325165331363678
1771072983447530800,8.14253076171875,-0.10399636626243591,-0.28149592876434326,-0.035952646285295486
1771072983457471500,8.152471435546875,-0.1892174482345581,-0.5989444851875305,-0.23089589178562164
1771072983467412500,8.16241259765625,-0.24461115896701813,-0.7193192839622498,-0.34807488322257996
1771072983477353200,8.172353271484376,-0.2872216999530792,-0.622380256652832,-0.3747064769268036
1771072983487294000,8.1822939453125,-0.32876700162887573,-0.36245596408843994,-0.31505173444747925
1771072983497234700,8.192234619140624,-0.34794172644615173,-0.0141147430986166,-0.19148114323616028
1771072983507175400,8.202175537109374,-0.3308975100517273,0.31611698865890503,-0.044474758207798004
1771072983517116200,8.2121162109375,-0.2840259075164795,0.5153213143348694,0.06524740159511566
1771072983527057200,8.22205712890625,-0.23395852744579315,0.5611276030540466,0.10253162682056427
1771072983536998000,8.231997802734375,-0.18389113247394562,0.5025381445884705,0.08016108721494675
1771072983546938600,8.241938720703125,-0.12636689841747284,0.41838228702545166,0.03755054250359535
1771072983556879400,8.25187939453125,-0.0624510794878006,0.3544664680957794,0.017310533672571182
1771072983566820000,8.261820068359375,-0.0017310534603893757,0.3043990731239319,0.03968106955289841
1771072983576760800,8.2717607421875,0.04194475710391998,0.25326642394065857,0.0918789878487587
1771072983586701800,8.281701904296876,0.0739026665687561,0.21598219871520996,0.16325165331363678
1771072983596642600,8.291642578125,0.10159952193498611,0.19893798232078552,0.24314641952514648
1771072983606583300,8.301583251953126,0.12397005409002304,0.18189376592636108,0.31025803089141846
1771072983616524000,8.31152392578125,0.1346226930618286,0.148870587348938,0.35393384099006653
1771072983626464800,8.32146484375,0.13675321638584137,0.12117373943328857,0.3699128031730652
1771072983636405800,8.33140576171875,0.1303616315126419,0.12756532430648804,0.3507380485534668
1771072983646346500,8.341346435546875,0.11225215345621109,0.1531316488981247,0.30599698424339294
1771072983656287200,8.351287353515625,0.08988162130117416,0.15526217222213745,0.24314641952514648
1771072983666228000,8.36122802734375,0.07177213579416275,0.1339569091796875,0.1760348230600357
1771072983676168700,8.371168701171875,0.05898897349834442,0.10839057713747025,0.11851058155298233
1771072983686109400,8.381109375,0.04194475710391998,0.0732368752360344,0.06418213248252869
1771072983696050200,8.39105029296875,0.009986846707761288,0.018908429890871048,0.013049479573965073
1771072983705991000,8.400990966796876,-0.035819489508867264,-0.05566002428531647,-0.03914843872189522
1771072983715931600,8.410931640625,-0.09121319651603699,-0.13342426717281342,-0.09028109163045883
1771072983725872400,8.420872314453124,-0.146606907248497,-0.19627483189105988,-0.14460954070091248
1771072983735813000,8.430813232421874,-0.19773955643177032,-0.23355905711650848,-0.19254639744758606
1771072983745753900,8.44075390625,-0.2414153665304184,-0.237820103764534,-0.22130851447582245
1771072983755694600,8.450694580078125,-0.28189539909362793,-0.18881797790527344,-0.2330264151096344
1771072983765635300,8.46063525390625,-0.3170490860939026,-0.1153147891163826,-0.24154852330684662
1771072983775576000,8.470576171875,-0.3351585865020752,-0.032224226742982864,-0.2607232630252838
1771072983785516800,8.480516845703125,-0.314918577671051,0.07004108279943466,-0.2671148478984833
1771072983795457500,8.49045751953125,-0.2595248520374298,0.17550218105316162,-0.2522011697292328
1771072983805398300,8.500398193359375,-0.1753690242767334,0.27350643277168274,-0.21065588295459747
1771072983815339000,8.510339111328125,-0.0624510794878006,0.35340121388435364,-0.14460954070091248
1771072983825279700,8.52027978515625,0.05792371183633804,0.391750693321228,-0.06684529036283493
1771072983835220500,8.530220458984376,0.16125428676605225,0.372575968503952,0.005592633970081806
1771072983845161200,8.5401611328125,0.23688800632953644,0.33955278992652893,0.07803056389093399
1771072983855102000,8.55010205078125,0.29334697127342224,0.36618438363075256,0.1621863842010498
1771072983865042700,8.560042724609374,0.3370227813720703,0.4247738718986511,0.23888537287712097
1771072983874983400,8.5699833984375,0.3604585826396942,0.40879490971565247,0.2559295892715454
1771072983884924000,8.579923828125,0.3370227813720703,0.2426137924194336,0.16431692242622375
1771072983894864600,8.58986474609375,0.24434484541416168,-0.05992107838392258,-0.040213704109191895
1771072983904805400,8.599805419921875,0.0930774137377739,-0.4071970283985138,-0.3043990731239319
1771072983914746000,8.60974609375,-0.047537390142679214,-0.6245108246803284,-0.5238434076309204
1771072983924686800,8.619686767578125,-0.1380847990512848,-0.6330329179763794,-0.6239781975746155
1771072983934627600,8.629627685546875,-0.19773955643177032,-0.4647212624549866,-0.5792371034622192
1771072983944568300,8.639568359375,-0.18389113247394562,-0.16538217663764954,-0.3747064769268036
1771072983954509000,8.649509033203126,-0.07310371845960617,0.18722008168697357,-0.0679105594754219
1771072983964449800,8.65944970703125,0.11118689179420471,0.4812328517436981,0.23888537287712097
1771072983974390500,8.669390625,0.2912164330482483,0.6069339513778687,0.44767704606056213
1771072983984331300,8.679331298828124,0.4126565158367157,0.5589970946311951,0.5201149582862854
1771072983994272000,8.68927197265625,0.4882902204990387,0.393881231546402,0.4721781015396118
1771072984004212700,8.699212646484375,0.5191828608512878,0.1478053331375122,0.32091066241264343
1771072984014153500,8.709153564453125,0.4733765423297882,-0.14620743691921234,0.10892320424318314
1771072984024094200,8.71909423828125,0.35300174355506897,-0.4306328296661377,-0.11691268533468246
1771072984034035000,8.729034912109375,0.19747324287891388,-0.6266413331031799,-0.3022685647010803
1771072984043975700,8.7389755859375,0.06538055837154388,-0.6958834528923035,-0.41305598616600037
1771072984053916400,8.74891650390625,-0.026232117787003517,-0.659664511680603,-0.450340211391449
1771072984063857200,8.758857177734376,-0.09760478138923645,-0.5531381368637085,-0.4269044101238251
1771072984073798000,8.7687978515625,-0.13595427572727203,-0.425306499004364,-0.35340121388435364
1771072984083738600,8.778738525390626,-0.13915006816387177,-0.3219759464263916,-0.27350643277168274
1771072984093679400,8.788679443359374,-0.10719215124845505,-0.23568958044052124,-0.22024326026439667
1771072984103620000,8.7986201171875,-0.03795001655817032,-0.1483379602432251,-0.1904158741235733
1771072984113560800,8.808560791015625,0.05898897349834442,-0.06631266325712204,-0.1765674501657486
1771072984123501600,8.81850146484375,0.17190691828727722,0.003994738683104515,-0.16804534196853638
1771072984133442300,8.8284423828125,0.29334697127342224,0.05299686640501022,-0.1478053331375122
1771072984143383000,8.838383056640625,0.4126565158367157,0.04660528525710106,-0.1201084777712822
1771072984153323800,8.84832373046875,0.5149217844009399,-0.017310533672571182,-0.07110634446144104
1771072984163264500,8.858264404296875,0.6001428961753845,-0.09720530360937119,0.013049479573965073
1771072984173205200,8.868205322265625,0.6704503297805786,-0.16005586087703705,0.13555480539798737
1771072984183146000,8.87814599609375,0.7322356104850769,-0.22610220313072205,0.284691721200943
1771072984193087000,8.8880869140625,0.7748461365699768,-0.31558436155319214,0.44128546118736267
1771072984212968400,8.907968505859374,0.7641934752464294,-0.48922231793403625,0.6841655969619751
1771072984222909200,8.9179091796875,0.7343661189079285,-0.5808349847793579,0.7416898012161255
1771072984232850000,8.927849853515625,0.6949513554573059,-0.6458160877227783,0.7640603184700012
1771072984242791000,8.937791015625,0.6395576596260071,-0.6436855792999268,0.7672561407089233
1771072984252731600,8.947731689453125,0.5692502856254578,-0.5531381368637085,0.7608645558357239
1771072984262672400,8.95767236328125,0.4925512671470642,-0.3986749053001404,0.7416898012161255
1771072984272613000,8.967613037109375,0.4137217700481415,-0.21225377917289734,0.696948766708374
1771072984282553900,8.977553955078125,0.3370227813720703,-0.032224226742982864,0.6127929091453552
1771072984292494600,8.98749462890625,0.27417221665382385,0.12223900109529495,0.49774444103240967
1771072984302435600,8.997435546875,0.23156169056892395,0.24154852330684662,0.3699128031730652
1771072984312376300,9.007376220703126,0.21238693594932556,0.30013802647590637,0.2516685426235199
1771072984322317000,9.017317138671874,0.20279955863952637,0.2798980176448822,0.1525990217924118
1771072984332257800,9.0272578125,0.19747324287891388,0.19893798232078552,0.08548741042613983
1771072984342198500,9.037198486328125,0.1772332340478897,0.1009337306022644,0.05459476262331009
1771072984352139300,9.04713916015625,0.1356879621744156,0.029561065137386322,0.05352949723601341
1771072984362080300,9.057080322265625,0.06325002759695053,-0.00985368900001049,0.06418213248252869
1771072984372021000,9.06702099609375,-0.024101590737700462,-0.04500738903880119,0.0684431865811348
1771072984381961700,9.076961669921875,-0.11677952855825424,-0.11424952745437622,0.056725289672613144
1771072984391902500,9.08690234375,-0.20093534886837006,-0.1760348230600357,0.031158961355686188
1771072984401843200,9.09684326171875,-0.2659164369106293,-0.20692746341228485,-0.0018642114009708166
1771072984411784200,9.1067841796875,-0.31385329365730286,-0.22290641069412231,-0.04660528525710106
1771072984421725000,9.116724853515626,-0.3394196331501007,-0.24314641952514648,-0.110521100461483
1771072984431665700,9.126665771484374,-0.34794172644615173,-0.25806012749671936,-0.18722008168697357
1771072984441606400,9.1366064453125,-0.33835434913635254,-0.23995064198970795,-0.25965800881385803
1771072984451547100,9.146547119140624,-0.28509119153022766,-0.14088112115859985,-0.2905506491661072
1771072984461487900,9.15648779296875,-0.19667430222034454,0.008255792781710625,-0.26818013191223145
1771072984471428900,9.166428955078125,-0.1284974217414856,0.11797794699668884,-0.23196116089820862
1771072984481369600,9.17636962890625,-0.14447638392448425,0.12650005519390106,-0.2522011697292328
1771072984491310300,9.186310302734375,-0.21052272617816925,0.013582111336290836,-0.3597927987575531
1771072984501251000,9.1962509765625,-0.30533120036125183,-0.17816534638404846,-0.5302349925041199
1771072984511191800,9.20619189453125,-0.4299670457839966,-0.36245596408843994,-0.7102645039558411
1771072984521132500,9.216132568359376,-0.54181969165802,-0.47004759311676025,-0.8487488031387329
1771072984531073500,9.226073486328126,-0.6387587189674377,-0.5147886276245117,-0.9201214909553528
1771072984541014300,9.23601416015625,-0.7207840085029602,-0.5020055174827576,-0.8966856598854065
1771072984550955000,9.245955078125,-0.7335671782493591,-0.4071970283985138,-0.7539403438568115
1771072984560895700,9.255895751953124,-0.6653903126716614,-0.24421168863773346,-0.5025381445884705
1771072984570836500,9.26583642578125,-0.5279712677001953,0.0007989477599039674,-0.19893798232078552
1771072984580777500,9.275777587890625,-0.3500722646713257,0.21704746782779694,0.09720530360937119
1771072984590718200,9.28571826171875,-0.1700427085161209,0.30652961134910583,0.32091066241264343
1771072984600659000,9.295658935546875,-0.039015281945466995,0.2788327634334564,0.4402202069759369
1771072984610599700,9.305599609375,0.03874896466732025,0.16911059617996216,0.46046021580696106
1771072984620540400,9.31554052734375,0.07283740490674973,0.019973693415522575,0.3976096510887146
1771072984630481200,9.325481201171876,0.06964161247015,-0.105727419257164,0.27830013632774353
1771072984640422000,9.335421875,0.05153212696313858,-0.14088112115859985,0.1483379602432251
1771072984650362600,9.345362548828126,0.03555317223072052,-0.07057371735572815,0.05352949723601341
1771072984660303400,9.355303466796874,0.01318263728171587,0.060453712940216064,0.006657897960394621
1771072984670244000,9.365244140625,-0.030493171885609627,0.18935060501098633,-0.007190529722720385
1771072984680184800,9.375184814453124,-0.09334372729063034,0.28735485672950745,-0.008255792781710625
1771072984690125600,9.38512548828125,-0.16045533120632172,0.372575968503952,-0.00612526573240757
1771072984700066300,9.39506640625,-0.23076273500919342,0.42903491854667664,-0.011451584286987782
1771072984710007000,9.405007080078125,-0.30533120036125183,0.44714441895484924,-0.03488738462328911
1771072984719947800,9.41494775390625,-0.36498594284057617,0.4354265034198761,-0.07536740601062775
1771072984729888500,9.424888427734375,-0.4001396596431732,0.40879490971565247,-0.12650005519390106
1771072984739829200,9.434829345703125,-0.39907440543174744,0.38003280758857727,-0.1723063886165619
1771072984749770000,9.44477001953125,-0.36179015040397644,0.3693801760673523,-0.1957421898841858
1771072984759710700,9.454710693359376,-0.30533120036125183,0.3789675533771515,-0.19467693567276
1771072984769651500,9.4646513671875,-0.24780695140361786,0.38962018489837646,-0.1669800728559494
1771072984779592200,9.47459228515625,-0.2041311413049698,0.3928159773349762,-0.12223900109529495
1771072984789533000,9.484532958984374,-0.17217323184013367,0.3960117697715759,-0.06897582113742828
1771072984799473700,9.4944736328125,-0.14341111481189728,0.391750693321228,-0.01784316636621952
1771072984809414400,9.504414306640625,-0.11997532099485397,0.36192330718040466,0.02157158963382244
1771072984819355100,9.514355224609375,-0.09760478138923645,0.2990727722644806,0.048203181475400925
1771072984829295600,9.524295654296875,-0.08482161909341812,0.21172115206718445,0.05779055133461952
1771072984839236400,9.534236328125,-0.09014793485403061,0.1243695318698883,0.06311687082052231
1771072984849177000,9.544177001953125,-0.11464899778366089,0.05938844755291939,0.06205160543322563
1771072984859117800,9.554117919921875,-0.14341111481189728,0.027430538088083267,0.05352949723601341
1771072984869058600,9.56405859375,-0.17749954760074615,0.011451584286987782,0.026897907257080078
1771072984878999300,9.573999267578126,-0.20945745706558228,-0.0034621069207787514,-0.025300011038780212
1771072984888940000,9.58393994140625,-0.23715431988239288,-0.0002663159102667123,-0.07962846010923386
1771072984898880800,9.593880859375,-0.27230802178382874,0.012516847811639309,-0.12650005519390106
1771072984908821500,9.603821533203124,-0.3127880394458771,0.018908429890871048,-0.1573926955461502
1771072984918762200,9.61376220703125,-0.34261542558670044,0.021038956940174103,-0.1627190262079239
1771072984928703000,9.623702880859375,-0.35113751888275146,0.029561065137386322,-0.138217955827713
1771072984938643700,9.633643798828125,-0.3308975100517273,0.048735812306404114,-0.08282424509525299
1771072984948584400,9.64358447265625,-0.28189539909362793,0.07536740601062775,-0.010386320762336254
1771072984968466000,9.6634658203125,-0.12743216753005981,0.14247901737689972,0.12809795141220093
1771072984978406700,9.67340673828125,-0.04540686309337616,0.16804534196853638,0.1760348230600357
1771072984988347400,9.683347412109375,0.017443692311644554,0.1723063886165619,0.2047969400882721
1771072984998288100,9.6932880859375,0.053662657737731934,0.14993585646152496,0.2047969400882721
1771072985008228900,9.703228759765626,0.07922898232936859,0.0870852991938591,0.18668745458126068
1771072985018169600,9.713169677734374,0.1069258376955986,0.010386320762336254,0.171773761510849
1771072985028110300,9.7231103515625,0.14634059369564056,-0.03861580789089203,0.16005586087703705
1771072985038051000,9.733051025390624,0.2006690353155136,-0.023702116683125496,0.16112112998962402
1771072985047991800,9.74299169921875,0.2677806615829468,0.1009337306022644,0.1952095627784729
1771072985057932500,9.7529326171875,0.3285006880760193,0.24474431574344635,0.2324937880039215
1771072985067873300,9.762873291015625,0.3519364893436432,0.2788327634334564,0.21225377917289734
1771072985077814000,9.77281396484375,0.35406699776649475,0.16804534196853638,0.09933583438396454
1771072985087754800,9.782754638671875,0.32637014985084534,-0.0588558167219162,-0.0966726765036583
1771072985097695500,9.792695556640625,0.2539322078227997,-0.3123885691165924,-0.3416832983493805
1771072985107636200,9.80263623046875,0.16977639496326447,-0.492418110370636,-0.5579318404197693
1771072985117577000,9.812576904296876,0.09627319872379303,-0.4956139028072357,-0.6740455627441406
1771072985127517700,9.822517578125,0.02277000993490219,-0.3411506712436676,-0.6708498001098633
1771072985137458400,9.83245849609375,-0.0294279083609581,-0.11318425834178925,-0.5419528484344482
1771072985147399200,9.842399169921874,-0.030493171885609627,0.14247901737689972,-0.31079065799713135
1771072985157340000,9.85233984375,0.03874896466732025,0.38642439246177673,-0.035952646285295486
1771072985167280600,9.86228076171875,0.14314480125904083,0.5526055097579956,0.19734008610248566
1771072985177221400,9.872221435546875,0.23049642145633698,0.6143907904624939,0.3326285779476166
1771072985187162400,9.882162353515625,0.30186909437179565,0.5643234252929688,0.3613906800746918
1771072985197103000,9.89210302734375,0.3689807057380676,0.44288337230682373,0.29214856028556824
1771072985207043800,9.9020439453125,0.40946072340011597,0.2575274705886841,0.1483379602432251
1771072985216984600,9.911984619140625,0.3892207145690918,0.07430213689804077,-0.03914843872189522
1771072985226925300,9.92192529296875,0.3274354040622711,-0.10253162682056427,-0.2287653684616089
1771072985236866000,9.931865966796876,0.25925853848457336,-0.26338642835617065,-0.38535910844802856
1771072985246807000,9.94180712890625,0.21451745927333832,-0.3795001804828644,-0.48442864418029785
1771072985256747800,9.951747802734374,0.1729721873998642,-0.44235071539878845,-0.5238434076309204
1771072985266688500,9.9616884765625,0.12077426165342331,-0.435959130525589,-0.48975494503974915
1771072985276629200,9.971629150390624,0.07922898232936859,-0.3507380485534668,-0.38109806180000305
1771072985286570000,9.981570068359375,0.05898897349834442,-0.21651484072208405,-0.21172115206718445
1771072985296511000,9.991510986328125,0.05579318478703499,-0.06205160543322563,-0.01784316636621952
1771072985306451700,10.00145166015625,0.07709845900535583,0.0732368752360344,0.15366427600383759
1771072985316392400,10.011392333984375,0.10905636847019196,0.1531316488981247,0.2601906359195709
1771072985326333200,10.021333251953125,0.15805849432945251,0.18508955836296082,0.3091927766799927
1771072985336274000,10.03127392578125,0.22836589813232422,0.18722008168697357,0.31558436155319214
1771072985346214700,10.041214599609376,0.30186909437179565,0.16911059617996216,0.29214856028556824
1771072985356155600,10.05115576171875,0.3657849133014679,0.12117373943328857,0.2516685426235199
1771072985366096400,10.061096435546874,0.4211786091327667,0.06258423626422882,0.21758009493350983
1771072985376037000,10.071037109375,0.474441796541214,0.016777902841567993,0.2047969400882721
1771072985385977900,10.080977783203124,0.5181176066398621,-0.031158961355686188,0.2090579867362976
1771072985395918600,10.090918701171875,0.5415533781051636,-0.08655267208814621,0.22290641069412231
1771072985405859300,10.100859375,0.5447492003440857,-0.14194637537002563,0.24847275018692017
1771072985415800300,10.11080029296875,0.5319660305976868,-0.1771000772714615,0.29214856028556824
1771072985425741000,10.120740966796875,0.5053344368934631,-0.1898832470178604,0.349672794342041
1771072985435681800,10.130681884765625,0.45846283435821533,-0.1909485012292862,0.40080544352531433
1771072985445622500,10.14062255859375,0.38602492213249207,-0.18242639303207397,0.4210454523563385
1771072985455563300,10.150563232421876,0.3008038103580475,-0.17283903062343597,0.39015281200408936
1771072985465504300,10.160504150390626,0.21238693594932556,-0.16112112998962402,0.3177148699760437
1771072985475445000,10.170445068359374,0.13142690062522888,-0.14940322935581207,0.21331904828548431
1771072985485385700,10.1803857421875,0.06218476593494415,-0.1430116444826126,0.0918789878487587
1771072985495326500,10.190326416015624,0.004660528618842363,-0.15472954511642456,-0.029561065137386322
1771072985505267200,10.20026708984375,-0.03688475489616394,-0.1760348230600357,-0.13608743250370026
1771072985515208000,10.2102080078125,-0.06990792602300644,-0.1994706094264984,-0.21598219871520996
1771072985525149000,10.22014892578125,-0.09867004305124283,-0.21118851006031036,-0.26391905546188354
1771072985535089700,10.230089599609375,-0.12530162930488586,-0.1898832470178604,-0.27350643277168274
1771072985545030400,10.240030517578125,-0.14447638392448425,-0.1525990217924118,-0.24474431574344635
1771072985554971100,10.24997119140625,-0.15939007699489594,-0.12170637398958206,-0.18828535079956055
1771072985564911900,10.259911865234375,-0.16258586943149567,-0.09294424951076508,-0.11584742367267609
1771072985574852600,10.2698525390625,-0.14767217636108398,-0.08442214131355286,-0.04554001986980438
1771072985584793300,10.27979345703125,-0.12530162930488586,-0.11318425834178925,-0.0050600022077560425
1771072985594734000,10.289734130859374,-0.11145320534706116,-0.171773761510849,-0.008255792781710625
1771072985604674800,10.2996748046875,-0.11038794368505478,-0.23142851889133453,-0.04980107396841049
1771072985614615600,10.309615478515624,-0.13488900661468506,-0.29108327627182007,-0.1201084777712822
1771072985624556300,10.319556396484375,-0.18389113247394562,-0.3560643792152405,-0.2095906287431717
1771072985634497000,10.3294970703125,-0.24035011231899261,-0.4157191216945648,-0.2948117256164551
1771072985644437800,10.339437744140625,-0.2914827764034271,-0.41891491413116455,-0.35766226053237915
1771072985654378500,10.34937841796875,-0.3213101327419281,-0.32517173886299133,-0.3747064769268036
1771072985664319200,10.3593193359375,-0.3170490860939026,-0.15472954511642456,-0.3278348743915558
1771072985674260000,10.369260009765625,-0.3063964545726776,-0.026897907257080078,-0.2522011697292328
1771072985684200700,10.37920068359375,-0.3394196331501007,-0.031158961355686188,-0.23941799998283386
1771072985694141400,10.389141357421876,-0.40866175293922424,-0.12170637398958206,-0.3587275445461273
1771072985704082200,10.399082275390626,-0.511992335319519,-0.29747486114501953,-0.5792371034622192
1771072985714023000,10.40902294921875,-0.637693464756012,-0.46046021580696106,-0.8370308876037598
1771072985723963600,10.418963623046874,-0.7527419328689575,-0.49454864859580994,-1.03730046749115
1771072985733904400,10.428904296875,-0.8699209094047546,-0.3965443968772888,-1.1374351978302002
1771072985743845000,10.43884521484375,-0.986034631729126,-0.21118851006031036,-1.1321089267730713
1771072985753785900,10.448785888671875,-1.0350368022918701,0.012516847811639309,-0.9882983565330505
1771072985763726600,10.4587265625,-0.9721862077713013,0.32037803530693054,-0.72304767370224
1771072985773667300,10.468667236328125,-0.7836345434188843,0.6591318845748901,-0.38003280758857727
1771072985783608000,10.478608154296875,-0.503470242023468,0.9201214909553528,-0.024234747514128685
1771072985793548800,10.488548828125,-0.2083922028541565,1.0639320611953735,0.2793653905391693
1771072985803489500,10.498489501953125,0.04407528415322304,1.054344654083252,0.5052012801170349
1771072985813430300,10.50843017578125,0.2635195851325989,0.8860330581665039,0.6436855792999268
1771072985823371000,10.51837109375,0.45207124948501587,0.5643234252929688,0.680969774723053
1771072985833311700,10.528311767578124,0.5575323700904846,0.15952323377132416,0.6170539855957031
1771072985843252500,10.53825244140625,0.5266396999359131,-0.24847275018692017,0.4870918095111847
1771072985853193200,10.548193115234374,0.3668501675128937,-0.5787044763565063,0.3411506712436676
1771072985863133700,10.5581337890625,0.1165132075548172,-0.7278413772583008,0.21331904828548431
1771072985873074400,10.568074462890625,-0.13915006816387177,-0.6862961053848267,0.12170637398958206
1771072985883015200,10.57801513671875,-0.3404848873615265,-0.49987494945526123,0.06631266325712204
1771072985892956000,10.587955810546875,-0.4938828647136688,-0.23355905711650848,0.029028434306383133
1771072985902896600,10.597896728515625,-0.5993439555168152,0.0679105594754219,-0.011451584286987782
1771072985912837400,10.60783740234375,-0.6398239731788635,0.3470096290111542,-0.05512739345431328
1771072985922778000,10.617778076171875,-0.6291713118553162,0.5568665862083435,-0.11584742367267609
1771072985932718800,10.62771875,-0.5940176248550415,0.70174241065979,-0.18935060501098633
1771072985942659600,10.63765966796875,-0.5482112765312195,0.7667235136032104,-0.26391905546188354
1771072985952600300,10.647600341796876,-0.4864259958267212,0.7379614114761353,-0.31611698865890503
1771072985962541000,10.657541015625,-0.40866175293922424,0.6527402997016907,-0.3235738277435303
1771072985972481800,10.667481689453124,-0.3159838318824768,0.5419528484344482,-0.2745717167854309
1771072985982422500,10.677422607421875,-0.22437115013599396,0.41944757103919983,-0.1723063886165619
1771072985992363300,10.68736328125,-0.15086796879768372,0.2884201407432556,-0.03488738462328911
1771072986002304000,10.697303955078125,-0.10719215124845505,0.15952323377132416,0.10785794258117676
1771072986012244700,10.70724462890625,-0.08482161909341812,0.08069372177124023,0.237820103764534
1771072986022185500,10.717185546875,-0.06990792602300644,0.0679105594754219,0.3549990952014923
1771072986032126200,10.727126220703125,-0.06351634114980698,0.08175898343324661,0.43808966875076294
1771072986042067000,10.73706689453125,-0.0624510794878006,0.07430213689804077,0.4668518006801605
1771072986052007700,10.747007568359376,-0.06458161026239395,0.03382211923599243,0.44235071539878845
1771072986061948400,10.756948486328126,-0.07097318768501282,-0.031158961355686188,0.37630438804626465
1771072986071889200,10.76688916015625,-0.08162582665681839,-0.10679268091917038,0.293213814496994
1771072986081830000,10.776829833984374,-0.09867004305124283,-0.19307903945446014,0.21651484072208405
1771072986091770600,10.7867705078125,-0.12104058265686035,-0.27190855145454407,0.15899059176445007
1771072986101711400,10.79671142578125,-0.13062795996665955,-0.3123885691165924,0.13981585204601288
1771072986111652000,10.806652099609375,-0.13062795996665955,-0.3273022472858429,0.14940322935581207
1771072986121592800,10.8165927734375,-0.12636689841747284,-0.3368896245956421,0.16857796907424927
1771072986131533600,10.826533447265625,-0.118910051882267,-0.32943278551101685,0.1813611388206482
1771072986141474300,10.836474365234375,-0.09867004305124283,-0.29214856028556824,0.1909485012292862
1771072986151415000,10.8464150390625,-0.06777740269899368,-0.23568958044052124,0.19734008610248566
1771072986171296500,10.866296630859376,0.011052110232412815,-0.12277163565158844,0.20373167097568512
1771072986181237200,10.8762373046875,0.05472791939973831,-0.056725289672613144,0.2005358785390854
1771072986191178000,10.886177978515626,0.09520793706178665,-0.015180006623268127,0.18349166214466095
1771072986201119000,10.896118896484374,0.13249216973781586,-0.016245270147919655,0.15579481422901154
1771072986211059700,10.906059814453124,0.1729721873998642,-0.032224226742982864,0.13129374384880066
1771072986221000400,10.91600048828125,0.20919114351272583,-0.04394212365150452,0.12170637398958206
1771072986230941200,10.925941162109375,0.23262694478034973,-0.05566002428531647,0.12809795141220093
1771072986240882000,10.9358818359375,0.23582273721694946,-0.07163897901773453,0.13981585204601288
1771072986250822700,10.94582275390625,0.23582273721694946,-0.08122635632753372,0.15579481422901154
1771072986260763600,10.955763671875,0.24541011452674866,-0.056725289672613144,0.17923060059547424
1771072986270704400,10.965704345703125,0.2773680090904236,0.05193160101771355,0.2143843024969101
1771072986280645000,10.97564501953125,0.32530489563941956,0.23515695333480835,0.24634221196174622
1771072986290585900,10.9855859375,0.3806985914707184,0.3736412227153778,0.2420811653137207
1771072986300526600,10.995526611328126,0.3934817612171173,0.3139864504337311,0.1483379602432251
1771072986310467600,11.005467529296874,0.27417221665382385,0.002929474925622344,-0.09454214572906494
1771072986320408300,11.015408203125,0.009986846707761288,-0.4018706977367401,-0.42796966433525085
1771072986330349000,11.02534912109375,-0.32344067096710205,-0.6372939944267273,-0.6889592409133911
1771072986340289800,11.035289794921875,-0.6632598042488098,-0.6106624007225037,-0.790159285068512
1771072986350230500,11.04523046875,-0.9743167757987976,-0.4828307330608368,-0.7582014203071594
1771072986360171300,11.055171142578125,-1.1937611103057861,-0.3028011918067932,-0.6303697824478149
1771072986370112300,11.0651123046875,-1.258742094039917,-0.023702116683125496,-0.40346860885620117
1771072986380053000,11.075052978515625,-1.1362367868423462,0.30972540378570557,-0.10199899226427078
1771072986389993700,11.08499365234375,-0.8368977308273315,0.6271739602088928,0.1909485012292862
1771072986399934500,11.0949345703125,-0.45979443192481995,0.8391614556312561,0.42424124479293823
1771072986409875200,11.104875244140626,-0.11571425944566727,0.911599338054657,0.5520728826522827
1771072986419816000,11.11481591796875,0.1261005848646164,0.8402267098426819,0.5797697305679321
1771072986429757000,11.1247568359375,0.28269433975219727,0.6442182064056396,0.5286371111869812
1771072986439697700,11.13469775390625,0.36258912086486816,0.35766226053237915,0.4114580750465393
1771072986449638400,11.144638427734375,0.34874069690704346,0.08602003753185272,0.26764747500419617
1771072986459579100,11.1545791015625,0.26884591579437256,-0.11638005077838898,0.14727269113063812
1771072986469520000,11.164519775390625,0.17829850316047668,-0.22184115648269653,0.06950845569372177
1771072986479460900,11.1744609375,0.14207953214645386,-0.2474074810743332,0.02263685315847397
1771072986489401600,11.184401611328125,0.15699322521686554,-0.26764747500419617,-0.014647374860942364
1771072986499342300,11.19434228515625,0.17616797983646393,-0.2804306447505951,-0.04234423115849495
1771072986509283000,11.204282958984376,0.19747324287891388,-0.2516685426235199,-0.04554001986980438
1771072986519223800,11.214223876953126,0.22197431325912476,-0.21331904828548431,-0.03169159218668938
1771072986529164500,11.22416455078125,0.22090904414653778,-0.20266640186309814,-0.029561065137386322
1771072986539105500,11.23410546875,0.19534271955490112,-0.22929799556732178,-0.05832318589091301
1771072986549046300,11.24404638671875,0.18149429559707642,-0.2601906359195709,-0.08921582996845245
1771072986558987000,11.253987060546875,0.19853851199150085,-0.2697780132293701,-0.09773793816566467
1771072986568927700,11.263927734375,0.2336922138929367,-0.26338642835617065,-0.06684529036283493
1771072986578868500,11.273868408203125,0.26884591579437256,-0.23462431132793427,0.0034621069207787514
1771072986588809200,11.283809326171875,0.3093259334564209,-0.17923060059547424,0.10146636515855789
1771072986598750000,11.29375,0.3561975359916687,-0.15046848356723785,0.2005358785390854
1771072986608690700,11.303690673828125,0.3977428078651428,-0.18775272369384766,0.27190855145454407
1771072986618631400,11.31363134765625,0.42970073223114014,-0.26871275901794434,0.29108327627182007
1771072986628572200,11.323572265625,0.45313653349876404,-0.3518033027648926,0.27297380566596985
1771072986638513000,11.333512939453126,0.47550705075263977,-0.4157191216945648,0.24634221196174622
1771072986648453600,11.34345361328125,0.49894285202026367,-0.4487423002719879,0.24314641952514648
1771072986658394000,11.35339404296875,0.5255744457244873,-0.4295675754547119,0.2751043438911438
1771072986668334800,11.3633349609375,0.5628587007522583,-0.3731085956096649,0.33795487880706787
1771072986678275600,11.373275634765625,0.6107955574989319,-0.29534435272216797,0.4082622826099396
1771072986688216300,11.38321630859375,0.6555365920066833,-0.21758009493350983,0.45619916915893555
1771072986698157000,11.393156982421875,0.6896250247955322,-0.1579253375530243,0.46578651666641235
1771072986708097800,11.403097900390625,0.710930347442627,-0.10679268091917038,0.43808966875076294
1771072986718038500,11.41303857421875,0.6992124319076538,-0.07483477145433426,0.3688475489616394
1771072986727979300,11.422979248046875,0.631035566329956,-0.08442214131355286,0.24847275018692017
1771072986737920000,11.432919921875,0.5266396999359131,-0.12170637398958206,0.09294424951076508
1771072986747860700,11.44286083984375,0.40626493096351624,-0.13662005960941315,-0.04554001986980438
1771072986757801500,11.452801513671876,0.28269433975219727,-0.09507478028535843,-0.12650005519390106
1771072986767742200,11.4627421875,0.16551533341407776,-0.020506324246525764,-0.14674006402492523
1771072986777683000,11.472682861328124,0.06857634335756302,0.035952646285295486,-0.13608743250370026
1771072986787623700,11.482623779296874,-0.003861580742523074,0.048735812306404114,-0.12756532430648804
1771072986797564400,11.492564453125,-0.052863709628582,0.021038956940174103,-0.14674006402492523
1771072986807505200,11.502505126953125,-0.08162582665681839,-0.05139897018671036,-0.19254639744758606
1771072986817446000,11.51244580078125,-0.10186583548784256,-0.1291632205247879,-0.2426137924194336
1771072986827386600,11.52238671875,-0.11038794368505478,-0.15686006844043732,-0.2660495936870575
1771072986837327400,11.532327392578125,-0.12104058265686035,-0.14940322935581207,-0.270310640335083
1771072986847268000,11.54226806640625,-0.14341111481189728,-0.16005586087703705,-0.27350643277168274
1771072986857208800,11.552208740234375,-0.15939007699489594,-0.1898832470178604,-0.27670222520828247
1771072986867149600,11.562149658203126,-0.15299849212169647,-0.2005358785390854,-0.2671148478984833
1771072986877090300,11.57209033203125,-0.13595427572727203,-0.15472954511642456,-0.23196116089820862
1771072986887031000,11.582031005859376,-0.12530162930488586,-0.09614004194736481,-0.17763271927833557
1771072986896971800,11.5919716796875,-0.1423458606004715,-0.08761793375015259,-0.13715268671512604
1771072986906912500,11.60191259765625,-0.18602167069911957,-0.11318425834178925,-0.16165375709533691
1771072986916853200,11.611853271484375,-0.23289325833320618,-0.13768532872200012,-0.26818013191223145
1771072986926794000,11.6217939453125,-0.2978743314743042,-0.1760348230600357,-0.45247071981430054
1771072986936734700,11.631734619140625,-0.390552282333374,-0.2474074810743332,-0.6921550631523132
1771072986946675500,11.641675537109375,-0.4800344407558441,-0.3166496157646179,-0.9265130758285522
1771072986956616200,11.6516162109375,-0.5343628525733948,-0.3368896245956421,-1.086302638053894
1771072986966557000,11.661556884765625,-0.5673860311508179,-0.3081275224685669,-1.133174180984497
1771072986976497700,11.67149755859375,-0.5748428702354431,-0.25806012749671936,-1.0426267385482788
1771072986986438400,11.6814384765625,-0.5205144286155701,-0.1675127148628235,-0.8178561329841614
1771072986996379100,11.691379150390626,-0.3916175365447998,-0.05352949723601341,-0.47590652108192444
1771072987006319900,11.70131982421875,-0.212653249502182,0.08175898343324661,-0.08815056830644608
1771072987016260600,11.711260498046874,-0.02516685426235199,0.15206637978553772,0.27190855145454407
1771072987026201000,11.721201171875,0.1165132075548172,0.12650005519390106,0.5403549671173096
1771072987036141800,11.731141845703124,0.22197431325912476,0.011451584286987782,0.6948181986808777
1771072987046082600,11.74108251953125,0.2997385561466217,-0.17496955394744873,0.7416898012161255
1771072987056023300,11.751023193359375,0.32637014985084534,-0.3848264813423157,0.6873613595962524
1771072987065964000,11.760964111328125,0.2912164330482483,-0.5158539414405823,0.5659213066101074
1771072987075904800,11.77090478515625,0.20386482775211334,-0.5158539414405823,0.4221107065677643
1771072987085845500,11.780845458984375,0.08029424399137497,-0.3869570195674896,0.28682222962379456
1771072987095786200,11.7907861328125,-0.056059498339891434,-0.16964323818683624,0.16538217663764954
1771072987105727000,11.80072705078125,-0.18176060914993286,0.06151897460222244,0.05352949723601341
1771072987115667700,11.810667724609376,-0.28509119153022766,0.2522011697292328,-0.05086633935570717
1771072987125608400,11.8206083984375,-0.3639206886291504,0.4119907021522522,-0.14993585646152496
1771072987135549200,11.830549072265624,-0.4139880836009979,0.5302349925041199,-0.24474431574344635
1771072987145490000,11.840489990234374,-0.43209755420684814,0.5845634341239929,-0.34274858236312866
1771072987155430700,11.8504306640625,-0.41292282938957214,0.5664539337158203,-0.41305598616600037
1771072987165371400,11.860371337890625,-0.3596596419811249,0.525973916053772,-0.41944757103919983
1771072987175312100,11.87031201171875,-0.2872216999530792,0.49934232234954834,-0.34274858236312866
1771072987185252900,11.8802529296875,-0.19773955643177032,0.5057339072227478,-0.1957421898841858
1771072987195193600,11.890193603515625,-0.11251847445964813,0.5153213143348694,-0.00612526573240757
1771072987205134300,11.90013427734375,-0.05712476372718811,0.4865591824054718,0.17923060059547424
1771072987215075000,11.910074951171875,-0.035819489508867264,0.39920756220817566,0.33369383215904236
1771072987225015800,11.920015869140625,-0.03368896245956421,0.28735485672950745,0.44235071539878845
1771072987234956500,11.92995654296875,-0.04647212475538254,0.16911059617996216,0.4902876019477844
1771072987244897300,11.939897216796876,-0.08269108831882477,0.02210422046482563,0.47963494062423706
1771072987254838000,11.949838134765624,-0.11571425944566727,-0.1344895362854004,0.4540686309337616
1771072987264778800,11.95977880859375,-0.12210584431886673,-0.24101589620113373,0.4540686309337616
1771072987274719500,11.969719482421874,-0.10399636626243591,-0.29640960693359375,0.5020055174827576
1771072987284660500,11.979660400390625,-0.08482161909341812,-0.32517173886299133,0.5957486629486084
1771072987294601200,11.989601318359375,-0.08269108831882477,-0.3273022472858429,0.7033402919769287
1771072987304542000,11.9995419921875,-0.10399636626243591,-0.3070622384548187,0.7800393104553223
1771072987314482700,12.009482666015625,-0.13169321417808533,-0.28682222962379456,0.793887734413147
1771072987324423400,12.01942333984375,-0.14554163813591003,-0.27403905987739563,0.7374287843704224
1771072987334364200,12.0293642578125,-0.15086796879768372,-0.2612559199333191,0.6245108246803284
1771072987344305200,12.03930517578125,-0.15299849212169647,-0.23142851889133453,0.47324338555336
1771072987354246000,12.049245849609376,-0.1519332230091095,-0.17283903062343597,0.3028011918067932
1771072987364186600,12.0591865234375,-0.13701952993869781,-0.07057371735572815,0.15046848356723785
1771072987374127400,12.06912744140625,-0.1093226820230484,0.07856319099664688,0.04181159660220146
1771072987384068000,12.079068115234374,-0.07523424178361893,0.25965800881385803,-0.02636527456343174
1771072987394009000,12.089009033203125,-0.04434159770607948,0.4258391261100769,-0.08069372177124023
1771072987403949800,12.09894970703125,-0.012383690103888512,0.5334307551383972,-0.12756532430648804
1771072987413890600,12.108890625,0.024900536984205246,0.5771065950393677,-0.1723063886165619
1771072987423831300,12.118831298828125,0.07070687413215637,0.5238434076309204,-0.19254639744758606
1771072987433772000,12.12877197265625,0.11864373832941055,0.41412124037742615,-0.17337165772914886
1771072987443712800,12.138712646484375,0.15805849432945251,0.3086601495742798,-0.11478215456008911
1771072987453653800,12.14865380859375,0.18788588047027588,0.21704746782779694,-0.03169159218668938
1771072987463594500,12.158594482421876,0.21771325170993805,0.14567480981349945,0.05779055133461952
1771072987473535200,12.16853515625,0.26458486914634705,0.1435442715883255,0.14194637537002563
1771072987503357400,12.198357421875,0.342349112033844,0.14993585646152496,0.16112112998962402
1771072987513298400,12.20829833984375,0.31145647168159485,0.003994738683104515,0.027963170781731606
1771072987523239200,12.2182392578125,0.25499749183654785,-0.15686006844043732,-0.14567480981349945
1771072987533180000,12.228179931640625,0.17936377227306366,-0.28682222962379456,-0.3310306668281555
1771072987543120600,12.23812060546875,0.09201214462518692,-0.34860754013061523,-0.4908202290534973
1771072987553061400,12.248061279296875,-0.002796316985040903,-0.33902016282081604,-0.6026729345321655
1771072987563002400,12.25800244140625,-0.0954742506146431,-0.25060325860977173,-0.6538055539131165
1771072987572943000,12.267943115234376,-0.1561942845582962,-0.11744531989097595,-0.6367613673210144
1771072987582883800,12.2778837890625,-0.19028271734714508,-0.0023968431632965803,-0.5696497559547424
1771072987592824600,12.287824462890624,-0.1945437788963318,0.1009337306022644,-0.47590652108192444
1771072987602765300,12.297765380859374,-0.15725953876972198,0.19893798232078552,-0.3683148920536041
1771072987612706000,12.3077060546875,-0.08908267319202423,0.27350643277168274,-0.27350643277168274
1771072987622646800,12.317646728515625,-0.02090579830110073,0.3033338189125061,-0.21172115206718445
1771072987632587500,12.32758740234375,0.03235738351941109,0.2788327634334564,-0.20106850564479828
1771072987642528300,12.3375283203125,0.08668582886457443,0.19254639744758606,-0.2287653684616089
1771072987652469000,12.347468994140625,0.1442100703716278,0.07536740601062775,-0.2713759243488312
1771072987662409700,12.35740966796875,0.19534271955490112,-0.04500738903880119,-0.3075948655605316
1771072987672350500,12.3673505859375,0.23688800632953644,-0.14727269113063812,-0.30652961134910583
