time,seconds_elapsed,z,y,x
1771072806636929000,0.092928955078125,0,0,0
1771072806656812000,0.11281201171875,-0.0696420669555664,-0.001122593879699707,0.1436193585395813
1771072806666753500,0.12275341796875,-0.14590072631835938,0.004155397415161133,0.20059898495674133
1771072806676694800,0.13269482421875,-0.3159046173095703,0.014025092124938965,0.17292112112045288
1771072806686636000,0.142635986328125,-0.4653434753417969,0.10708320140838623,0.12682700157165527
1771072806696577500,0.15257763671875,-0.5980281829833984,0.1114501953125,-0.08232167363166809
1771072806706518800,0.162518798828125,-0.7351245880126953,0.07244324684143066,-0.2886069416999817
1771072806716460300,0.172460205078125,-0.7328634262084961,0.12389802932739258,-0.29754698276519775
1771072806726401500,0.182401611328125,-0.5419082641601562,0.12219011783599854,-0.266869455575943
1771072806736342800,0.1923427734375,-0.18615150451660156,0.011577486991882324,-0.1528845578432083
1771072806746284300,0.2022841796875,0.28234004974365234,-0.04982113838195801,-0.035940587520599365
1771072806756225500,0.2122255859375,0.6657505035400391,-0.02680337429046631,0.12049323320388794
1771072806766167000,0.2221669921875,0.9218006134033203,-0.028982877731323242,0.09923037886619568
1771072806776108300,0.2321083984375,1.0753278732299805,-0.02976512908935547,-0.03010419011116028
1771072806786049800,0.2420498046875,1.1047229766845703,0.010996460914611816,-0.11708226799964905
1771072806795991000,0.251990966796875,0.7319793701171875,-0.03043663501739502,-0.1526527851819992
1771072806805932300,0.261932373046875,0.2937431335449219,-0.10557699203491211,-0.0988529771566391
1771072806815873800,0.271873779296875,0.180633544921875,-0.1829681396484375,-0.22148963809013367
1771072806825815000,0.28181494140625,0.10027408599853516,-0.03690218925476074,-0.18048100173473358
1771072806835756500,0.291756591796875,-0.0772695541381836,0.16636717319488525,-0.000177040696144104
1771072806845697800,0.30169775390625,-0.3529796600341797,0.20373773574829102,-0.01217082142829895
1771072806855639000,0.31163916015625,-0.5518331527709961,0.1853879690170288,-0.10400830954313278
1771072806865580500,0.32158056640625,-0.5858144760131836,0.1842491626739502,-0.19733843207359314
1771072806875521800,0.331521728515625,-0.4244060516357422,0.24582195281982422,-0.19443273544311523
1771072806885463300,0.34146337890625,-0.16379356384277344,0.383192777633667,-0.0903380960226059
1771072806895404500,0.351404541015625,-0.00000858306884765625,0.4363884925842285,0.012226805090904236
1771072806905345800,0.361345703125,-0.0098419189453125,0.3107872009277344,-0.008976861834526062
1771072806915287300,0.371287353515625,-0.09738445281982422,0.16360795497894287,-0.0981103777885437
1771072806925228500,0.381228515625,-0.12160205841064453,0.1353147029876709,-0.12605848908424377
1771072806935170000,0.391170166015625,-0.10795021057128906,0.2138911485671997,-0.07227621227502823
1771072806945111300,0.401111328125,-0.011244773864746094,0.2804720401763916,-0.029116680845618248
1771072806955052800,0.411052734375,0.0779266357421875,0.31715846061706543,0.047579340636730194
1771072806964994000,0.420994140625,0.1251697540283203,0.32449090480804443,0.11364766955375671
1771072806974935300,0.430935302734375,0.06908130645751953,0.30736732482910156,0.18097248673439026
1771072806984876800,0.440876708984375,0.0800180435180664,0.2781500816345215,0.2716926336288452
1771072806994818300,0.450818359375,0.17003250122070312,0.28426897525787354,0.3708683252334595
1771072807004759600,0.460759521484375,0.18544483184814453,0.32576215267181396,0.3878176212310791
1771072807014701000,0.470701171875,0.20976543426513672,0.34150850772857666,0.3046788275241852
1771072807024642300,0.480642333984375,0.2544527053833008,0.33479928970336914,0.22856654226779938
1771072807034583800,0.490583740234375,0.3985319137573242,0.24058818817138672,0.12956880033016205
1771072807044525300,0.500525390625,0.5253543853759766,0.22845256328582764,0.13658514618873596
1771072807054466600,0.510466552734375,0.5325956344604492,0.27706050872802734,0.24907153844833374
1771072807074349600,0.530349609375,0.3750162124633789,0.29195642471313477,0.20988819003105164
1771072807104173600,0.560173583984375,0.28123950958251953,0.33292829990386963,-0.049501463770866394
1771072807114115000,0.570114990234375,0.17786884307861328,0.38627028465270996,-0.01955874264240265
1771072807124056600,0.580056640625,-0.019330978393554688,0.44210922718048096,0.0425795316696167
1771072807133997800,0.589997802734375,-0.2269153594970703,0.44158923625946045,0.02515651285648346
1771072807143939300,0.599939208984375,-0.2665119171142578,0.4383552074432373,-0.006691932678222656
1771072807153880800,0.609880859375,-0.2773876190185547,0.40112102031707764,0.026310235261917114
1771072807163822000,0.619822021484375,-0.33038902282714844,0.3976273536682129,0.07028274238109589
1771072807173763600,0.629763671875,-0.21763038635253906,0.5078184604644775,0.16369391977787018
1771072807183704800,0.639704833984375,-0.10152721405029297,0.5771336555480957,0.1639738231897354
1771072807193646300,0.649646240234375,-0.07126045227050781,0.49479758739471436,-0.05551090091466904
1771072807203587800,0.659587890625,-0.21715831756591797,0.47555840015411377,-0.11624687165021896
1771072807213529000,0.669529052734375,-0.21908187866210938,0.5092544555664062,-0.09937426447868347
1771072807223470600,0.679470703125,-0.22597408294677734,0.4589979648590088,-0.025285154581069946
1771072807233411800,0.689411865234375,-0.36771106719970703,0.38276398181915283,0.10386072099208832
1771072807243353300,0.699353271484375,-0.5177860260009766,0.3637040853500366,-0.022565186023712158
1771072807253294800,0.709294921875,-0.6220283508300781,0.4607490301132202,-0.2736457288265228
1771072807263236000,0.719236083984375,-0.6176061630249023,0.5001276731491089,-0.36469709873199463
1771072807273177600,0.729177490234375,-0.3554496765136719,0.460338830947876,-0.3176034092903137
1771072807283119000,0.739119140625,-0.10781192779541016,0.43887948989868164,0.013844817876815796
1771072807293060400,0.749060302734375,0.19140338897705078,0.42988312244415283,0.32757002115249634
1771072807303001900,0.759001953125,-0.3129692077636719,0.5073364973068237,0.2470850944519043
1771072807312943000,0.768943115234375,-0.3521766662597656,0.3858274221420288,-0.3207346796989441
1771072807322884600,0.778884521484375,-0.4586648941040039,0.31267404556274414,-0.3282037377357483
1771072807332826000,0.788826171875,-0.4994974136352539,0.2544252872467041,-0.21318677067756653
1771072807342767400,0.798767333984375,-0.2879152297973633,0.30720460414886475,-0.08872534334659576
1771072807352708900,0.808708984375,0.3037834167480469,0.565232515335083,-0.13403907418251038
1771072807362650400,0.818650390625,0.5800857543945312,0.6054672002792358,-0.1887119710445404
1771072807372591600,0.828591552734375,0.39759254455566406,0.30838334560394287,-0.13505202531814575
1771072807382533000,0.838533203125,0.3902254104614258,0.09345889091491699,0.13814318180084229
1771072807402415900,0.858415771484375,0.5410404205322266,0.2784332036972046,0.799444317817688
1771072807422298600,0.878298583984375,0.244232177734375,0.012863755226135254,0.5161998867988586
1771072807432240000,0.888240234375,-0.014133453369140625,0.09509825706481934,0.35436177253723145
1771072807442181400,0.898181396484375,-0.18506240844726562,0.09867632389068604,0.29750239849090576
1771072807452123000,0.908122802734375,-0.1074676513671875,0.24374687671661377,0.37462908029556274
1771072807462064400,0.918064453125,0.3820981979370117,0.38181066513061523,0.5329104661941528
1771072807472005600,0.928005615234375,0.6249179840087891,0.35548532009124756,0.6632086634635925
1771072807481947100,0.937947021484375,0.4863405227661133,0.2587977647781372,0.7002167701721191
1771072807491888600,0.947888671875,-0.29172229766845703,0.4956735372543335,0.9065374135971069
1771072807501830000,0.957829833984375,-0.8152179718017578,0.8873647451400757,0.2911115288734436
1771072807511771400,0.967771484375,-0.8377008438110352,1.3132318258285522,-0.6724254488945007
1771072807521712600,0.977712646484375,-0.5488367080688477,1.320461630821228,-1.1379417181015015
1771072807531654100,0.987654052734375,-0.4642667770385742,0.9573190212249756,-0.8450329899787903
1771072807541595600,0.997595703125,-0.41228199005126953,0.536537766456604,-0.2866576313972473
1771072807551537000,1.007536865234375,-0.13180065155029297,0.2658175230026245,0.08762474358081818
1771072807561478400,1.017478515625,0.2965230941772461,0.1581895351409912,0.15230251848697662
1771072807571419600,1.027419677734375,0.8498306274414062,0.01351463794708252,-0.12949149310588837
1771072807581361200,1.037361083984375,1.9874801635742188,0.027293086051940918,-0.14752668142318726
1771072807591302700,1.047302734375,2.737767219543457,-0.021946310997009277,0.04137806594371796
1771072807601244000,1.057243896484375,2.5710697174072266,-0.392217755317688,0.022323772311210632
1771072807611185400,1.067185302734375,2.321475028991699,-0.730512261390686,-0.04185721278190613
1771072807631068200,1.087068115234375,1.4045534133911133,-0.6506627798080444,-0.1397145688533783
1771072807641009400,1.097009521484375,0.7533779144287109,-0.7351150512695312,-0.25833678245544434
1771072807650951000,1.106950927734375,0.2976188659667969,-0.782293438911438,-0.2967618405818939
1771072807660892200,1.11689208984375,-0.09747123718261719,-0.8016320466995239,-0.3853498697280884
1771072807670833700,1.126833740234375,-0.3734598159790039,-0.9033043384552002,-0.5839412212371826
1771072807680775000,1.13677490234375,-0.1377878189086914,-1.0342649221420288,-0.6680064797401428
1771072807690716200,1.146716064453125,0.49609947204589844,-1.0942192077636719,-0.5762737393379211
1771072807700657700,1.15665771484375,1.3950529098510742,-1.1385424137115479,-0.46439939737319946
1771072807710599000,1.166598876953125,2.190288543701172,-1.0699353218078613,-0.26919618248939514
1771072807720540400,1.17654052734375,2.3903846740722656,-1.0445101261138916,-0.18281927704811096
1771072807730481700,1.186481689453125,1.8990039825439453,-1.179837703704834,-0.4155119061470032
1771072807740423200,1.196423095703125,1.0801191329956055,-1.1357841491699219,-0.5380520820617676
1771072807760305700,1.2163056640625,0.1415996551513672,-0.8553930521011353,-0.787232518196106
1771072807780188400,1.2361884765625,-0.32089710235595703,-0.8967023491859436,-0.6221051216125488
1771072807800071200,1.2560712890625,-1.2398481369018555,-0.556557297706604,-1.1401808261871338
1771072807819954000,1.275953857421875,-1.4490442276000977,-0.48414146900177,-1.733420491218567
1771072807829895200,1.285895263671875,-1.5145416259765625,-0.47602808475494385,-1.5734999179840088
1771072807839836700,1.295836669921875,-1.1459283828735352,-0.7278546094894409,-1.6361942291259766
1771072807849778000,1.30577783203125,-1.0922861099243164,-0.9815301895141602,-1.6835525035858154
1771072807859719400,1.315719482421875,-0.8382291793823242,-1.1249371767044067,-1.2900500297546387
1771072807869660700,1.32566064453125,-0.5326681137084961,-1.5690973997116089,-0.9146473407745361
1771072807879602000,1.335601806640625,-0.8039560317993164,-1.218322992324829,-0.8893386125564575
1771072807889543400,1.34554345703125,-0.6795749664306641,-0.6321500539779663,-0.7745504379272461
1771072807899484700,1.355484619140625,-0.31661510467529297,-0.14840126037597656,-0.37090763449668884
1771072807909426200,1.36542626953125,0.421783447265625,0.2170565128326416,0.16174021363258362
1771072807919367400,1.375367431640625,0.9475126266479492,0.07204747200012207,0.3565848469734192
1771072807929308700,1.38530859375,1.0307064056396484,-0.3980058431625366,0.24951112270355225
1771072807949191400,1.40519140625,0.38702392578125,-0.9155993461608887,-0.4166465997695923
1771072807959133000,1.4151328125,-0.028024673461914062,-0.9508142471313477,-0.7008239030838013
1771072807969074200,1.42507421875,-0.43277645111083984,-0.9482612609863281,-0.8600689172744751
1771072807979015700,1.435015625,-0.6543436050415039,-0.9205751419067383,-0.9881998896598816
1771072807988957000,1.44495703125,-0.6728439331054688,-0.8910057544708252,-1.0185149908065796
1771072807998898200,1.454898193359375,-0.6725854873657227,-0.8292640447616577,-0.9472553730010986
1771072808008839700,1.464839599609375,-0.850987434387207,-0.7925039529800415,-0.9064828157424927
1771072808018781000,1.474781005859375,-1.1403884887695312,-0.6967298984527588,-0.8662570714950562
1771072808028722400,1.484722412109375,-1.2240419387817383,-0.5059746503829956,-0.7685758471488953
1771072808038663700,1.49466357421875,-1.1342153549194336,-0.23315167427062988,-0.5072966814041138
1771072808048605000,1.50460498046875,-1.1407222747802734,-0.04528403282165527,-0.23703789710998535
1771072808068487700,1.52448779296875,-1.1241416931152344,0.031245946884155273,-0.15194252133369446
1771072808078429200,1.53442919921875,-1.0199508666992188,0.021840572357177734,-0.26016658544540405
1771072808098311700,1.554311767578125,-0.8777170181274414,0.035645246505737305,-0.3421357572078705
1771072808118194700,1.574194580078125,-0.7283792495727539,0.11839818954467773,-0.35120531916618347
1771072808128136000,1.584135986328125,-0.48055362701416016,0.0982964038848877,-0.4010193645954132
1771072808138077400,1.594077392578125,-0.04201030731201172,0.09184801578521729,-0.421705037355423
1771072808148018700,1.604018798828125,0.3179817199707031,0.13342833518981934,-0.3789791464805603
1771072808157960200,1.613960205078125,0.2864818572998047,0.1939476728439331,-0.2875114679336548
1771072808167901700,1.623901611328125,0.061072349548339844,0.32559335231781006,-0.1742720901966095
1771072808177843000,1.633843017578125,-0.059790611267089844,0.4405893087387085,-0.19252780079841614
1771072808187784400,1.643784423828125,-0.16971111297607422,0.44221580028533936,-0.3250771760940552
1771072808197725700,1.6537255859375,-0.32125282287597656,0.36996912956237793,-0.4688946306705475
1771072808207667200,1.663667236328125,-0.5310993194580078,0.3756091594696045,-0.5344586968421936
1771072808217608700,1.673608642578125,-0.6349706649780273,0.509915828704834,-0.4890572130680084
1771072808227550000,1.683550048828125,-0.5668563842773438,0.6243751049041748,-0.4077700078487396
1771072808237491500,1.693491455078125,-0.3918724060058594,0.6872738599777222,-0.2467549443244934
1771072808247433000,1.703432861328125,-0.32010650634765625,0.7419410943984985,-0.0854833722114563
1771072808257374200,1.713374267578125,-0.32019805908203125,0.746577262878418,-0.001504272222518921
1771072808267315700,1.723315673828125,-0.3705902099609375,0.7123919725418091,0.04433560371398926
1771072808277257000,1.733257080078125,-0.42865562438964844,0.6181113719940186,0.011171221733093262
1771072808287198500,1.743198486328125,-0.35909271240234375,0.5443427562713623,-0.015706464648246765
1771072808297140000,1.753139892578125,-0.08397865295410156,0.44743597507476807,-0.021812275052070618
1771072808307081200,1.763081298828125,0.1317462921142578,0.3325737714767456,-0.04312087595462799
1771072808317022700,1.773022705078125,0.29850196838378906,0.2523062229156494,-0.09903217852115631
1771072808326964000,1.7829638671875,0.3739757537841797,0.16239523887634277,-0.18439003825187683
1771072808336905500,1.792905517578125,0.3131418228149414,0.047865986824035645,-0.2935439348220825
1771072808346847000,1.802846923828125,0.39980316162109375,-0.037454843521118164,-0.29093635082244873
1771072808356788200,1.812788330078125,0.6189327239990234,-0.04395163059234619,-0.15992650389671326
1771072808366729700,1.822729736328125,0.8773622512817383,-0.06208539009094238,-0.11486087739467621
1771072808376671200,1.832671142578125,1.0682363510131836,-0.17525434494018555,-0.2057514637708664
1771072808386612500,1.842612548828125,1.1875009536743164,-0.29186928272247314,-0.40096673369407654
1771072808396554000,1.852553955078125,1.3381052017211914,-0.2561619281768799,-0.5828320384025574
1771072808406495200,1.8624951171875,1.570058822631836,-0.13486981391906738,-0.5711469054222107
1771072808416436700,1.872436767578125,1.6376819610595703,-0.0739206075668335,-0.2483319342136383
1771072808426378200,1.882378173828125,1.2295770645141602,-0.13469374179840088,0.09324370324611664
1771072808436319500,1.892319580078125,0.7618274688720703,-0.11628353595733643,0.441426157951355
1771072808446261000,1.902260986328125,0.4553642272949219,0.08321118354797363,0.7455030679702759
1771072808456202500,1.912202392578125,0.3872509002685547,0.30915606021881104,0.9594157934188843
1771072808466143700,1.922143798828125,0.5490083694458008,0.349756121635437,1.0368884801864624
1771072808476085200,1.932085205078125,0.9088983535766602,0.22282147407531738,0.950136661529541
1771072808486026500,1.942026611328125,1.554783821105957,-0.0060460567474365234,0.8063263297080994
1771072808495968000,1.951968017578125,2.1383256912231445,-0.298877477645874,0.6208076477050781
1771072808505909200,1.9619091796875,2.2341909408569336,-0.566665530204773,0.42373448610305786
1771072808515850800,1.971850830078125,1.9380216598510742,-0.6321306228637695,0.3256378471851349
1771072808525792000,1.9817919921875,1.4777908325195312,-0.5751934051513672,0.23768270015716553
1771072808535733500,1.9917333984375,1.0968608856201172,-0.5747514963150024,0.12593567371368408
1771072808545674800,2.0016748046875,0.7348299026489258,-0.5944066047668457,0.05063050985336304
1771072808555616000,2.011615966796875,0.6221446990966797,-0.6191921234130859,0.008032768964767456
1771072808565557500,2.0215576171875,0.8145923614501953,-0.7464274168014526,-0.033499762415885925
1771072808575498800,2.031498779296875,1.0775947570800781,-0.9499364495277405,-0.07434031367301941
1771072808585440300,2.041440185546875,1.1635208129882812,-1.113358974456787,-0.0888918787240982
1771072808595381500,2.051381591796875,1.0617294311523438,-1.1700409650802612,-0.07829958200454712
1771072808605323000,2.061322998046875,0.9307327270507812,-1.0815455913543701,-0.05206076800823212
1771072808615264300,2.07126416015625,0.592219352722168,-0.9802365899085999,-0.02420688420534134
1771072808625205500,2.08120556640625,0.10193443298339844,-0.8841126561164856,0.010802902281284332
1771072808635147000,2.09114697265625,-0.3896827697753906,-0.8476663827896118,0.044182755053043365
1771072808645088300,2.101088134765625,-0.7832603454589844,-0.7809594869613647,0.13796597719192505
1771072808655029800,2.11102978515625,-0.9345111846923828,-0.6980764865875244,0.2498946189880371
1771072808664971000,2.120970947265625,-1.0356779098510742,-0.7303903102874756,0.2870698571205139
1771072808674912300,2.130912353515625,-1.1491832733154297,-0.7835233211517334,0.30521953105926514
1771072808684853800,2.140853759765625,-0.9676151275634766,-0.767060399055481,0.3217178285121918
1771072808694795000,2.150794921875,-0.5824193954467773,-0.7555830478668213,0.3609858751296997
1771072808704736500,2.160736572265625,-0.4633817672729492,-0.7544081211090088,0.3747880458831787
1771072808714677800,2.170677734375,-0.4233665466308594,-0.7372788190841675,0.4539757966995239
1771072808724619300,2.180619384765625,-0.2738475799560547,-0.6823196411132812,0.5384898781776428
1771072808734560500,2.190560546875,-0.10320758819580078,-0.7102757692337036,0.5460264086723328
1771072808744501800,2.200501708984375,0.08645915985107422,-0.8130463361740112,0.4357774555683136
1771072808754443300,2.210443359375,0.3479881286621094,-0.8399827480316162,0.26399853825569153
1771072808764384500,2.220384521484375,0.3933420181274414,-0.8275139331817627,0.20285823941230774
1771072808774326000,2.230325927734375,0.15233516693115234,-0.8076890707015991,0.19898350536823273
1771072808784267300,2.240267333984375,-0.06879901885986328,-0.7101850509643555,0.19267672300338745
1771072808794208500,2.25020849609375,-0.3107585906982422,-0.5915051698684692,0.16363224387168884
1771072808804150000,2.26014990234375,-0.7168731689453125,-0.5661666393280029,0.1239587813615799
1771072808814091300,2.27009130859375,-1.142075538635254,-0.5766528844833374,0.0736474096775055
1771072808824032800,2.28003271484375,-1.3513917922973633,-0.49236178398132324,-0.007780823856592178
1771072808833974000,2.28997412109375,-1.320115089416504,-0.40975356101989746,-0.056805599480867386
1771072808843915500,2.29991552734375,-1.3403568267822266,-0.3450329303741455,-0.026098836213350296
1771072808853856800,2.309856689453125,-1.3619632720947266,-0.298053503036499,-0.056512489914894104
1771072808863798000,2.319798095703125,-1.131972312927246,-0.28922104835510254,-0.16127318143844604
1771072808873739500,2.329739501953125,-0.8531122207641602,-0.319669246673584,-0.2145613580942154
1771072808883680800,2.3396806640625,-0.7726993560791016,-0.3228754997253418,-0.0984293669462204
1771072808893622300,2.349622314453125,-0.6465387344360352,-0.14212465286254883,0.10379200428724289
1771072808903563500,2.3595634765625,-0.5773286819458008,0.02403736114501953,0.29641851782798767
1771072808913504800,2.3695048828125,-0.8155431747436523,0.08419179916381836,0.4168115258216858
1771072808923446300,2.3794462890625,-1.1414785385131836,0.10858941078186035,0.4911322593688965
1771072808933387500,2.389387451171875,-1.3078904151916504,0.12921929359436035,0.4330650269985199
1771072808943329000,2.3993291015625,-1.3209147453308105,0.07642841339111328,0.3152883052825928
1771072808953270300,2.409270263671875,-1.13140869140625,0.03445625305175781,0.2513693571090698
1771072808963211500,2.41921142578125,-0.7732105255126953,0.051850318908691406,0.34156569838523865
1771072808993035800,2.449035888671875,-0.07546234130859375,0.08220052719116211,0.5870976448059082
1771072809002977000,2.45897705078125,-0.10793304443359375,0.1819474697113037,0.5082740187644958
1771072809022859800,2.47885986328125,-0.3789634704589844,0.2650749683380127,0.32249516248703003
1771072809032801000,2.488801025390625,-0.6725492477416992,0.29964113235473633,0.2820718288421631
1771072809042742500,2.498742431640625,-0.6950912475585938,0.42362093925476074,0.3559027910232544
1771072809052683800,2.508683837890625,-0.5498886108398438,0.5855972766876221,0.45108896493911743
1771072809062625300,2.518625244140625,-0.4204378128051758,0.606637716293335,0.4200700521469116
1771072809072566500,2.52856640625,-0.2870216369628906,0.604799747467041,0.4186320900917053
1771072809082507800,2.5385078125,-0.10395050048828125,0.6313900947570801,0.36074891686439514
1771072809092449300,2.54844921875,0.11235618591308594,0.6371650695800781,0.27038872241973877
1771072809102390500,2.558390625,0.3429698944091797,0.6356627941131592,0.15583236515522003
1771072809112332000,2.56833203125,0.40160083770751953,0.6180744171142578,0.0671316459774971
1771072809122273300,2.578273193359375,0.4791707992553711,0.5765950679779053,0.10694345086812973
1771072809132214800,2.58821484375,0.5418176651000977,0.5173697471618652,0.15107902884483337
1771072809142156000,2.598156005859375,0.789942741394043,0.483410120010376,0.1535658985376358
1771072809152097300,2.60809716796875,1.12542724609375,0.4328277111053467,0.017182141542434692
1771072809162038800,2.618038818359375,1.9084663391113281,0.5262210369110107,-0.2185179442167282
1771072809171980000,2.62797998046875,2.3395862579345703,0.7012369632720947,-0.29626840353012085
1771072809181921500,2.637921630859375,1.965017318725586,0.8179032802581787,-0.2443837821483612
1771072809191862800,2.64786279296875,1.1160125732421875,0.9781591892242432,0.09996146708726883
1771072809201804000,2.657803955078125,0.28406429290771484,1.1258480548858643,0.3727554380893707
1771072809211745500,2.66774560546875,-0.23207759857177734,1.2662911415100098,0.4578424394130707
1771072809221686800,2.677686767578125,-0.43988513946533203,1.3130245208740234,0.41788867115974426
1771072809231628300,2.687628173828125,-0.08811473846435547,1.0931875705718994,0.3103359639644623
1771072809241569500,2.697569580078125,0.7245311737060547,0.6328442096710205,0.09026283025741577
1771072809251511000,2.707510986328125,1.7362480163574219,0.03118157386779785,-0.18427063524723053
1771072809261452300,2.717452392578125,2.648334503173828,-0.5091567039489746,-0.48079246282577515
1771072809271393500,2.7273935546875,3.32993221282959,-0.9100325107574463,-0.8238039612770081
1771072809281335000,2.7373349609375,3.5689754486083984,-1.2208123207092285,-1.0183714628219604
1771072809291276300,2.7472763671875,3.377117156982422,-1.319557785987854,-0.9418412446975708
1771072809301217800,2.7572177734375,2.893526077270508,-1.2452490329742432,-0.7520201802253723
1771072809311159000,2.767158935546875,2.184600830078125,-1.034358263015747,-0.6668075323104858
1771072809321100300,2.777100341796875,1.320744514465332,-0.8001360893249512,-0.7587743401527405
1771072809331041800,2.787041748046875,0.28359508514404297,-0.6380410194396973,-0.8170921802520752
1771072809340983000,2.796983154296875,-0.592188835144043,-0.6192653179168701,-0.838371217250824
1771072809350924500,2.806924560546875,-0.9436655044555664,-0.6102771759033203,-0.7816237807273865
1771072809360865800,2.81686572265625,-0.8680000305175781,-0.5808594226837158,-0.6717966794967651
1771072809370807300,2.826807373046875,-0.8166847229003906,-0.6151704788208008,-0.5739195942878723
1771072809380748500,2.83674853515625,-0.8508396148681641,-0.6771855354309082,-0.4219309389591217
1771072809390689800,2.846689697265625,-0.8171186447143555,-0.7105362415313721,-0.23270708322525024
1771072809400631300,2.85663134765625,-0.7181997299194336,-0.7271487712860107,-0.08099667727947235
1771072809410572500,2.866572509765625,-0.5998086929321289,-0.7338709831237793,0.0487404465675354
1771072809420514000,2.87651416015625,-0.43122386932373047,-0.7971000671386719,0.0821337103843689
1771072809430455300,2.886455322265625,-0.2269906997680664,-0.9644582271575928,-0.012401491403579712
1771072809440396500,2.896396484375,-0.06569385528564453,-1.2103862762451172,-0.11200843751430511
1771072809450338000,2.906338134765625,-0.059004783630371094,-1.3686569929122925,-0.1768610030412674
1771072809460279300,2.916279296875,0.09449291229248047,-1.413923740386963,-0.1779235452413559
1771072809470220800,2.926220703125,0.2949714660644531,-1.4397764205932617,-0.23477567732334137
1771072809480162000,2.936162109375,0.22824573516845703,-1.4490160942077637,-0.2912707030773163
1771072809490103300,2.946103271484375,-0.03303337097167969,-1.477810263633728,-0.30069974064826965
1771072809500044800,2.956044921875,-0.38118839263916016,-1.4675639867782593,-0.36062607169151306
1771072809509986000,2.965986083984375,-0.5535440444946289,-1.394040822982788,-0.3838144540786743
1771072809519927600,2.975927490234375,-0.6483774185180664,-1.324650526046753,-0.3241138458251953
1771072809529868800,2.985868896484375,-0.7374410629272461,-1.2717128992080688,-0.29015886783599854
1771072809539810300,2.995810302734375,-0.909083366394043,-1.2231568098068237,-0.254246324300766
1771072809549751600,3.00575146484375,-1.1274347305297852,-1.1663509607315063,-0.23953141272068024
1771072809559692800,3.01569287109375,-1.1538362503051758,-1.0532050132751465,-0.2730790078639984
1771072809569634300,3.02563427734375,-1.0769882202148438,-0.9562695026397705,-0.30023837089538574
1771072809579575600,3.035575439453125,-1.1474285125732422,-0.8838202953338623,-0.24539564549922943
1771072809589517000,3.04551708984375,-1.307474136352539,-0.8236477375030518,-0.09854152053594589
1771072809599458300,3.055458251953125,-1.5357418060302734,-0.750664472579956,-0.04686416685581207
1771072809609399600,3.065399658203125,-1.7823920249938965,-0.6825222969055176,-0.058205053210258484
1771072809619341000,3.075341064453125,-1.9931745529174805,-0.5813496112823486,-0.07134782522916794
1771072809629282300,3.0852822265625,-2.169063091278076,-0.5091369152069092,-0.028704097494482994
1771072809639223800,3.095223876953125,-2.060056686401367,-0.3880579471588135,0.09790216386318207
1771072809649165000,3.1051650390625,-1.7887969017028809,-0.1823742389678955,0.3564351201057434
1771072809659106600,3.1151064453125,-1.3481030464172363,-0.07050848007202148,0.46372607350349426
1771072809669047800,3.1250478515625,-1.0147485733032227,-0.04198050498962402,0.4079987704753876
1771072809678989000,3.134989013671875,-0.8764419555664062,-0.025608301162719727,0.2169877141714096
1771072809688930600,3.1449306640625,-0.8607206344604492,-0.0960073471069336,-0.06633833050727844
1771072809698871800,3.154871826171875,-0.8763647079467773,-0.1936197280883789,-0.36751773953437805
1771072809708813300,3.164813232421875,-0.8968906402587891,-0.2686336040496826,-0.563299834728241
1771072809718754600,3.174754638671875,-0.8626718521118164,-0.32093000411987305,-0.654217004776001
1771072809728695800,3.18469580078125,-0.6474685668945312,-0.3288114070892334,-0.6465139389038086
1771072809738637300,3.19463720703125,-0.19672870635986328,-0.2716224193572998,-0.48615342378616333
1771072809748578600,3.20457861328125,0.2532072067260742,-0.12079238891601562,-0.22805529832839966
1771072809758520000,3.21452001953125,0.5215387344360352,0.040170907974243164,-0.03647330403327942
1771072809768461300,3.22446142578125,0.5325994491577148,0.2416527271270752,0.15445129573345184
1771072809778402800,3.23440283203125,0.5254697799682617,0.4465935230255127,0.2917342782020569
1771072809788344000,3.244343994140625,0.5238361358642578,0.627110481262207,0.4226616621017456
1771072809798285300,3.254285400390625,0.4486074447631836,0.724677324295044,0.49687907099723816
1771072809808226800,3.264226806640625,0.3928661346435547,0.6926898956298828,0.4818008542060852
1771072809818168000,3.27416796875,0.5306291580200195,0.6062221527099609,0.4612433910369873
1771072809828109600,3.284109619140625,0.7158603668212891,0.4720034599304199,0.422460675239563
1771072809838050800,3.29405078125,0.7695016860961914,0.2849123477935791,0.3537984788417816
1771072809847992000,3.303991943359375,0.7659149169921875,0.0070323944091796875,0.21476514637470245
1771072809857933600,3.31393359375,0.7505207061767578,-0.2512369155883789,0.0654783546924591
1771072809867874800,3.323874755859375,0.847437858581543,-0.36809253692626953,-0.1277768909931183
1771072809877816300,3.33381640625,1.3381996154785156,-0.32363080978393555,-0.39739254117012024
1771072809887757600,3.343757568359375,1.5086517333984375,-0.2289588451385498,-0.5282374620437622
1771072809897698800,3.35369873046875,1.135838508605957,-0.17155027389526367,-0.34507107734680176
1771072809907640300,3.363640380859375,0.4953908920288086,-0.16547632217407227,-0.09751994162797928
1771072809917581600,3.37358154296875,-0.17686176300048828,-0.12671208381652832,0.08644217252731323
1771072809927523000,3.383523193359375,-0.6053743362426758,0.11256766319274902,0.34557536244392395
1771072809937464300,3.39346435546875,-0.6989717483520508,0.41811513900756836,0.7256582975387573
1771072809947405800,3.40340576171875,-0.5167036056518555,0.5591950416564941,0.9690588712692261
1771072809957347000,3.41334716796875,0.09811878204345703,0.4081442356109619,0.9794312715530396
1771072809967288300,3.423288330078125,1.0400667190551758,0.10861778259277344,0.8429780006408691
1771072809977229800,3.433229736328125,2.1166934967041016,-0.17920827865600586,0.8229696750640869
1771072809987171000,3.443171142578125,2.9306211471557617,-0.3937646150588989,0.7857882976531982
1771072809997112600,3.453112548828125,3.4481639862060547,-0.5420213937759399,0.6616450548171997
1771072810007053800,3.4630537109375,3.7119131088256836,-0.7089024782180786,0.41626545786857605
1771072810016995000,3.4729951171875,3.5870180130004883,-0.8785027265548706,0.05449458956718445
1771072810026936600,3.4829365234375,3.1150217056274414,-0.9526621103286743,-0.30737417936325073
1771072810036877800,3.4928779296875,2.4301929473876953,-0.8837581872940063,-0.5589847564697266
1771072810046819300,3.5028193359375,1.6996374130249023,-0.6707063913345337,-0.5916938781738281
1771072810056760600,3.512760498046875,1.1185340881347656,-0.46992671489715576,-0.5243464708328247
1771072810066702000,3.5227021484375,0.7264518737792969,-0.3882279396057129,-0.4688071012496948
1771072810076643300,3.532643310546875,0.4294614791870117,-0.39990973472595215,-0.37623724341392517
1771072810086584600,3.54258447265625,0.2676982879638672,-0.3987884521484375,-0.18722853064537048
1771072810096526000,3.552526123046875,0.09947395324707031,-0.3736008405685425,0.026446133852005005
1771072810106467300,3.56246728515625,-0.021028518676757812,-0.3765522241592407,0.19942212104797363
1771072810116408800,3.572408935546875,-0.06833553314208984,-0.3766251802444458,0.3347783088684082
1771072810126350000,3.58235009765625,-0.031182289123535156,-0.45838499069213867,0.39712727069854736
1771072810136291300,3.592291259765625,0.05899333953857422,-0.49036383628845215,0.4452332556247711
1771072810146232800,3.60223291015625,0.054409027099609375,-0.5248422622680664,0.3850767910480499
1771072810156174000,3.612174072265625,-0.020030975341796875,-0.6053918600082397,0.27987632155418396
1771072810166115600,3.622115478515625,-0.06530189514160156,-0.7519752979278564,0.1499384641647339
1771072810176056800,3.632056884765625,-0.08306884765625,-0.8886977434158325,-0.004445970058441162
1771072810185998300,3.641998291015625,-0.3306760787963867,-0.9679214954376221,-0.07774335145950317
1771072810195939600,3.651939697265625,-0.8793601989746094,-0.9789369106292725,-0.10670812427997589
1771072810205880800,3.661880859375,-1.3088092803955078,-0.913720965385437,-0.1626848578453064
1771072810215822300,3.671822265625,-1.5722846984863281,-0.7816078662872314,-0.2498781681060791
1771072810225763600,3.681763671875,-1.8426051139831543,-0.7124024629592896,-0.3093326687812805
1771072810235705000,3.691705078125,-2.0246810913085938,-0.6874207258224487,-0.3944483697414398
1771072810245646300,3.701646240234375,-1.9852375984191895,-0.6843531131744385,-0.5172584652900696
1771072810255587600,3.711587646484375,-1.8560481071472168,-0.5629738569259644,-0.5052871704101562
1771072810265529000,3.721529052734375,-1.7541565895080566,-0.4199364185333252,-0.4851844310760498
1771072810275470300,3.73147021484375,-1.5241398811340332,-0.24149680137634277,-0.441817045211792
1771072810285411800,3.741411865234375,-1.2231388092041016,-0.10856366157531738,-0.4605686664581299
1771072810295353000,3.75135302734375,-1.0132408142089844,-0.08977317810058594,-0.5564444065093994
1771072810305294300,3.76129443359375,-0.925074577331543,-0.12344026565551758,-0.6022127270698547
1771072810325177000,3.781177001953125,-1.2607917785644531,-0.050664424896240234,-0.37747642397880554
1771072810335118600,3.79111865234375,-1.4199066162109375,0.0790567398071289,-0.1896025687456131
1771072810345059800,3.801059814453125,-1.455549716949463,0.25102853775024414,0.014054665341973305
1771072810355001300,3.81100146484375,-1.4115476608276367,0.3835594654083252,0.2682231366634369
1771072810374883800,3.8308837890625,-1.031412124633789,0.3320505619049072,0.5603417158126831
1771072810384825300,3.840825439453125,-0.5499057769775391,0.3694171905517578,0.6797785758972168
1771072810394766600,3.8507666015625,0.04654216766357422,0.38392138481140137,0.7137734293937683
1771072810404708000,3.8607080078125,0.6726579666137695,0.3095524311065674,0.6216544508934021
1771072810414649300,3.8706494140625,1.1503076553344727,0.2018587589263916,0.37732505798339844
1771072810424590600,3.880590576171875,1.475794792175293,0.04589390754699707,0.1284683644771576
1771072810434532000,3.890531982421875,1.573415756225586,-0.1477832794189453,-0.1006837785243988
1771072810444473300,3.900473388671875,1.2549238204956055,-0.23730945587158203,-0.24717357754707336
1771072810454414800,3.910414794921875,0.7689523696899414,-0.15243983268737793,-0.28744199872016907
1771072810464356000,3.920356201171875,0.2895050048828125,-0.000024318695068359375,-0.3821820318698883
1771072810474297600,3.930297607421875,-0.09793376922607422,0.0307772159576416,-0.49905717372894287
1771072810484238800,3.94023876953125,-0.4680948257446289,0.056661128997802734,-0.4061064124107361
1771072810494180000,3.95018017578125,-0.6470146179199219,0.10231804847717285,-0.22429972887039185
1771072810504121600,3.96012158203125,-0.5107812881469727,0.1423649787902832,-0.0003434717655181885
1771072810514062800,3.970062744140625,-0.1743335723876953,0.20803213119506836,0.32105666399002075
1771072810524004400,3.98000439453125,0.3599882125854492,0.1872870922088623,0.5751503109931946
1771072810533945600,3.989945556640625,0.896571159362793,0.07550597190856934,0.7319446802139282
1771072810543886800,3.999886962890625,1.2256231307983398,0.11561274528503418,0.7031460404396057
1771072810553828400,4.009828369140625,0.8532505035400391,0.31745171546936035,0.45432642102241516
1771072810563769600,4.01976953125,0.004523277282714844,0.4344165325164795,0.1328302025794983
1771072810573711000,4.029711181640625,-0.9032135009765625,0.37528300285339355,-0.1752839833498001
1771072810583652400,4.03965234375,-1.4847497940063477,0.3785562515258789,-0.29922395944595337
1771072810593593900,4.04959375,-1.510484218597412,0.39130711555480957,-0.33740636706352234
1771072810603535000,4.05953515625,-0.9869680404663086,0.16019821166992188,-0.31630975008010864
1771072810613476400,4.069476318359375,-0.08935546875,-0.1666569709777832,-0.1119757816195488
1771072810623417900,4.07941796875,0.9488353729248047,-0.409173846244812,0.1945153772830963
1771072810633359000,4.089359130859375,1.9788036346435547,-0.6318696737289429,0.31721851229667664
1771072810643300600,4.099300537109375,2.9834632873535156,-0.8550682067871094,0.22016391158103943
1771072810653241900,4.109241943359375,3.855062484741211,-1.1365773677825928,-0.009497255086898804
1771072810663183000,4.11918310546875,4.356507301330566,-1.4850044250488281,-0.23703701794147491
1771072810673124600,4.12912451171875,4.257510185241699,-1.8695951700210571,-0.499445378780365
1771072810693007400,4.14900732421875,1.7888832092285156,-1.7278859615325928,-0.8701961040496826
1771072810702948600,4.158948486328125,0.16707611083984375,-1.1984888315200806,-0.9270789623260498
1771072810712889900,4.168889892578125,-0.9858808517456055,-0.7271465063095093,-0.9355851411819458
1771072810722831400,4.178831298828125,-1.6776089668273926,-0.37521791458129883,-0.7442247867584229
1771072810732772600,4.188772705078125,-1.8432512283325195,-0.19123053550720215,-0.4043119549751282
1771072810742714000,4.198714111328125,-1.4338912963867188,-0.17995929718017578,-0.017424538731575012
1771072810752655400,4.2086552734375,-0.5790557861328125,-0.29486846923828125,0.3174702525138855
1771072810762596900,4.218596923828125,0.21027278900146484,-0.40765655040740967,0.5664390325546265
1771072810772538000,4.2285380859375,0.7513303756713867,-0.46817445755004883,0.6713309288024902
1771072810782479400,4.238479248046875,1.0502986907958984,-0.5736666917800903,0.6452515125274658
1771072810792420900,4.2484208984375,1.0867481231689453,-0.5828619003295898,0.5456357002258301
1771072810802362000,4.258362060546875,1.0692663192749023,-0.6326406002044678,0.3404026925563812
1771072810812303600,4.2683037109375,1.174708366394043,-0.8590530157089233,-0.05233296751976013
1771072810822244900,4.278244873046875,1.2859344482421875,-1.0241281986236572,-0.39967408776283264
1771072810832186000,4.28818603515625,1.3578977584838867,-1.139725685119629,-0.6650675535202026
1771072810842127600,4.298127685546875,1.283599853515625,-1.2251609563827515,-0.7726064920425415
1771072810852068900,4.30806884765625,0.8008222579956055,-1.1787264347076416,-0.702189028263092
1771072810862010400,4.31801025390625,0.08694839477539062,-1.0007435083389282,-0.4582596719264984
1771072810871951600,4.32795166015625,-0.5691232681274414,-0.7830749750137329,-0.2246825397014618
1771072810881893000,4.33789306640625,-0.9985809326171875,-0.6010012626647949,-0.06305697560310364
1771072810891834400,4.34783447265625,-1.152277946472168,-0.3851339817047119,0.19794687628746033
1771072810901775600,4.357775634765625,-1.105116844177246,-0.07502305507659912,0.6204878091812134
1771072810911717000,4.367717041015625,-1.0702505111694336,0.22158610820770264,0.9322071671485901
1771072810931600000,4.387599853515625,-1.1071720123291016,0.235504150390625,0.6565139293670654
1771072810941541000,4.397541015625,-0.9713039398193359,0.14290642738342285,0.3809199631214142
1771072810951482400,4.407482421875,-0.8502950668334961,0.04884219169616699,0.19147571921348572
1771072810961424000,4.417423828125,-0.8702173233032227,0.025365114212036133,0.10380256175994873
1771072810971365000,4.427365234375,-0.9922752380371094,0.047898054122924805,0.07461529970169067
1771072810981306600,4.437306640625,-1.106276512145996,0.1355152130126953,0.159288227558136
1771072810991248000,4.447247802734375,-1.2029228210449219,0.3132798671722412,0.32543256878852844
1771072811001189400,4.457189453125,-1.1822423934936523,0.5131347179412842,0.5057598948478699
1771072811011130600,4.467130615234375,-1.1165943145751953,0.5929183959960938,0.6364660263061523
1771072811021072000,4.47707177734375,-1.1332998275756836,0.5046374797821045,0.5588827133178711
1771072811031013400,4.487013427734375,-1.0388717651367188,0.3326590061187744,0.31974583864212036
1771072811040954600,4.49695458984375,-1.0029191970825195,0.1954808235168457,0.06275099515914917
1771072811050896100,4.506896240234375,-1.027557373046875,0.054582834243774414,-0.15879052877426147
1771072811060837400,4.51683740234375,-0.8927650451660156,-0.018402576446533203,-0.2951679825782776
1771072811070778600,4.526778564453125,-0.5914154052734375,-0.04648089408874512,-0.24934446811676025
1771072811090661400,4.546661376953125,-0.07664203643798828,0.012284517288208008,0.13859272003173828
1771072811100603000,4.556602783203125,-0.03413105010986328,-0.021457195281982422,0.07017862796783447
1771072811110544100,4.566544189453125,-0.10083293914794922,-0.07991361618041992,-0.1525454819202423
1771072811120485400,4.5764853515625,-0.2766542434692383,-0.09496307373046875,-0.2680141031742096
1771072811130427000,4.586427001953125,-0.42322540283203125,-0.03325295448303223,-0.21437832713127136
1771072811140368100,4.5963681640625,-0.27582359313964844,0.04449963569641113,-0.16752609610557556
1771072811150309400,4.606309326171875,0.033489227294921875,0.1425004005432129,-0.1877666413784027
1771072811160250600,4.616250732421875,0.30147266387939453,0.11838436126708984,-0.21728649735450745
1771072811170192100,4.626192138671875,0.42316246032714844,-0.008984088897705078,-0.2783201038837433
1771072811180133400,4.63613330078125,-0.38706398010253906,-0.14296936988830566,-0.21490591764450073
1771072811190074600,4.64607470703125,-5.200747489929199,0.7048702239990234,1.5396802425384521
1771072811200016000,4.656015869140625,0.7084560394287109,-0.022487163543701172,-0.8081249594688416
1771072811209957000,4.66595703125,1.9568367004394531,-0.09357404708862305,-0.5261626243591309
1771072811219898600,4.675898681640625,2.7153310775756836,-0.24557733535766602,-0.09835535287857056
1771072811229840000,4.68583984375,2.509648323059082,-0.10206413269042969,0.23650336265563965
1771072811239781000,4.695781005859375,1.5964832305908203,0.15959882736206055,-0.15721595287322998
1771072811249722400,4.705722412109375,0.2056865692138672,0.2774038314819336,-0.5073115825653076
1771072811259663600,4.71566357421875,-1.0089759826660156,0.399064302444458,-0.4014330804347992
1771072811269605000,4.725605224609375,-1.6105656623840332,0.5489888191223145,-0.04562252759933472
1771072811279546400,4.73554638671875,-1.3588190078735352,0.642181396484375,0.3669671416282654
1771072811289487600,4.745487548828125,-0.6604394912719727,0.6058626174926758,0.7498420476913452
1771072811299428900,4.755428955078125,0.1873931884765625,0.42098283767700195,1.055324673652649
1771072811319311600,4.7753115234375,1.6993865966796875,-0.2030932903289795,1.2426389455795288
1771072811329252900,4.7852529296875,1.9938602447509766,-0.5320748090744019,0.9740670919418335
1771072811349135400,4.80513525390625,2.4517822265625,-0.9363402128219604,0.10781878232955933
1771072811359076900,4.815076904296875,2.3625478744506836,-0.8881067037582397,-0.19563007354736328
1771072811369018000,4.82501806640625,1.7709388732910156,-0.7306057214736938,-0.32870304584503174
1771072811378959400,4.83495947265625,1.0049724578857422,-0.5469508171081543,-0.3878882825374603
1771072811388900600,4.844900634765625,0.18580913543701172,-0.36934030055999756,-0.46876806020736694
1771072811398841900,4.854841796875,-0.5468530654907227,-0.2854316234588623,-0.641928493976593
1771072811408783400,4.864783447265625,-1.0060234069824219,-0.32544922828674316,-0.790520966053009
1771072811418724600,4.874724609375,-0.9190797805786133,-0.462056040763855,-0.8582977056503296
1771072811428665900,4.884665771484375,-0.3021516799926758,-0.6038007736206055,-0.6477597951889038
1771072811438607000,4.894607177734375,0.4402742385864258,-0.6401869058609009,-0.282753050327301
1771072811448548400,4.90454833984375,1.093733787536621,-0.6075654029846191,-0.0298805832862854
1771072811458489900,4.91448974609375,1.6164369583129883,-0.626420259475708,-0.03944963216781616
1771072811468431000,4.92443115234375,1.9308395385742188,-0.6944661140441895,-0.18852603435516357
1771072811478372400,4.934372314453125,1.9212093353271484,-0.7891864776611328,-0.29574161767959595
1771072811488313600,4.944313720703125,1.4956130981445312,-0.8263859748840332,-0.24728703498840332
1771072811508196400,4.9641962890625,-0.17329025268554688,-0.6639035940170288,-0.08256077766418457
1771072811518137600,4.9741376953125,-0.7723684310913086,-0.4421713352203369,0.03641355037689209
1771072811528079000,4.9840791015625,-1.093505859375,-0.2320089340209961,0.20227617025375366
1771072811547961600,5.003961669921875,-1.362898826599121,-0.08606147766113281,0.442834734916687
1771072811557903000,5.013903076171875,-1.4365062713623047,-0.16472947597503662,0.34036320447921753
1771072811567844400,5.02384423828125,-1.2345638275146484,-0.3289412260055542,0.11394667625427246
1771072811577785900,5.033785888671875,-0.8076066970825195,-0.40831708908081055,-0.20130795240402222
1771072811587727000,5.04372705078125,-0.4013557434082031,-0.45029330253601074,-0.49180328845977783
1771072811597668400,5.05366845703125,-0.16769886016845703,-0.5044733285903931,-0.6625482439994812
1771072811607609900,5.06360986328125,-0.13422012329101562,-0.46627604961395264,-0.673831582069397
1771072811617551000,5.073551025390625,-0.30739307403564453,-0.35831010341644287,-0.5690348744392395
1771072811627492600,5.08349267578125,-0.6413936614990234,-0.16800475120544434,-0.3756425380706787
1771072811647375400,5.103375244140625,-1.2883472442626953,0.168753981590271,-0.150377094745636
1771072811657316600,5.113316650390625,-1.4373960494995117,0.2541414499282837,-0.18690800666809082
1771072811667257900,5.1232578125,-1.3618555068969727,0.3716930150985718,-0.19688235223293304
1771072811677199400,5.133199462890625,-1.0693168640136719,0.4629688262939453,-0.16603435575962067
1771072811687140600,5.143140625,-0.7271175384521484,0.49922895431518555,-0.1144193559885025
1771072811697082000,5.15308203125,-0.4282064437866211,0.4616527557373047,-0.032520413398742676
1771072811707023400,5.1630234375,-0.2798299789428711,0.42592382431030273,0.07142439484596252
1771072811716964600,5.172964599609375,-0.22212886810302734,0.4431929588317871,0.07620382308959961
1771072811726906000,5.182906005859375,-0.19295787811279297,0.4664878845214844,0.0032578706741333008
1771072811736847400,5.192847412109375,-0.19263458251953125,0.4308652877807617,0.020202577114105225
1771072811746788900,5.202788818359375,-0.05894947052001953,0.3782898187637329,0.11562302708625793
1771072811756730000,5.212730224609375,0.2578125,0.3233236074447632,0.17964650690555573
1771072811766671600,5.222671630859375,0.5640468597412109,0.2999643087387085,0.20077627897262573
1771072811776612900,5.23261279296875,0.7312717437744141,0.2939547300338745,0.14129678905010223
1771072811786554000,5.24255419921875,0.7817268371582031,0.28689122200012207,0.025512248277664185
1771072811796495600,5.25249560546875,0.7517604827880859,0.2851228713989258,-0.09201933443546295
1771072811806436900,5.262436767578125,0.6917896270751953,0.2813549041748047,-0.13454318046569824
1771072811816378400,5.27237841796875,0.6734533309936523,0.1996774673461914,-0.17558789253234863
1771072811826319600,5.282319580078125,0.6990184783935547,0.10009777545928955,-0.2116509974002838
1771072811836260900,5.2922607421875,0.6799736022949219,-0.00040912628173828125,-0.2562198042869568
1771072811846202400,5.302202392578125,0.7430343627929688,-0.14013206958770752,-0.2802048921585083
1771072811856143600,5.3121435546875,0.9502649307250977,-0.2815394401550293,-0.25485697388648987
1771072811866085000,5.322085205078125,1.2443351745605469,-0.4356635808944702,-0.16134290397167206
1771072811876026400,5.3320263671875,1.6589231491088867,-0.446841835975647,-0.04240522161126137
1771072811885967600,5.341967529296875,1.5899782180786133,-0.255365252494812,-0.03888794779777527
1771072811895909000,5.3519091796875,0.7756719589233398,-0.09597587585449219,-0.1980237513780594
1771072811905850400,5.361850341796875,-0.2940196990966797,0.04343843460083008,-0.1872183382511139
1771072811915792000,5.3717919921875,-1.2861928939819336,0.15755558013916016,-0.13862618803977966
1771072811925733000,5.381733154296875,-2.002474784851074,0.24470043182373047,-0.050839126110076904
1771072811935674600,5.391674560546875,-2.400190830230713,0.29808855056762695,0.07277384400367737
1771072811945616000,5.401615966796875,-1.9130806922912598,0.1606760025024414,0.18122261762619019
1771072811955557000,5.41155712890625,-0.5810127258300781,-0.19741415977478027,0.42262423038482666
1771072811965498600,5.42149853515625,0.7530546188354492,-0.5951272249221802,0.580873429775238
1771072811975440000,5.43143994140625,2.0777101516723633,-0.9820507764816284,0.3029842674732208
1771072811985381400,5.44138134765625,3.3123998641967773,-1.2997593879699707,-0.29884710907936096
1771072811995322600,5.451322509765625,4.288251876831055,-1.560265302658081,-0.9373714327812195
1771072812005264000,5.461263916015625,4.312597274780273,-1.6445850133895874,-1.2530113458633423
1771072812015205400,5.471205322265625,3.1249561309814453,-1.507840871810913,-1.322562336921692
1771072812025146600,5.481146728515625,1.4213314056396484,-1.1877745389938354,-1.2571702003479004
1771072812035088100,5.491088134765625,-0.4081449508666992,-0.832495927810669,-1.3184125423431396
1771072812045029400,5.501029296875,-1.7498011589050293,-0.44998812675476074,-1.212887167930603
1771072812054970600,5.510970703125,-2.165231227874756,-0.1714928150177002,-0.8279019594192505
1771072812064912100,5.520912109375,-1.521489143371582,-0.1961214542388916,-0.17953462898731232
1771072812074853400,5.530853271484375,-0.34586143493652344,-0.41474342346191406,0.49873363971710205
1771072812084794600,5.540794677734375,0.7290668487548828,-0.6294515132904053,0.7369961738586426
1771072812094736000,5.55073583984375,1.5261039733886719,-0.9088010787963867,0.5346812009811401
1771072812104677000,5.560677001953125,1.6649351119995117,-1.0794552564620972,0.20069396495819092
1771072812114618600,5.57061865234375,1.3528985977172852,-1.1261255741119385,-0.24231286346912384
1771072812124560000,5.580559814453125,0.8561725616455078,-1.2175064086914062,-0.681747555732727
1771072812134501000,5.590501220703125,0.4306831359863281,-1.314117193222046,-0.9588221311569214
1771072812144442400,5.6004423828125,0.13117504119873047,-1.3559463024139404,-1.0893802642822266
1771072812154383600,5.610383544921875,-0.021070480346679688,-1.3126091957092285,-1.0812740325927734
1771072812164325000,5.6203251953125,-0.07179641723632812,-1.1464364528656006,-0.9632026553153992
1771072812174266400,5.630266357421875,-0.01912689208984375,-0.8880026936531067,-0.7969200611114502
1771072812184207600,5.64020751953125,-0.04717540740966797,-0.7362960577011108,-0.663491427898407
1771072812194148900,5.65014892578125,-0.34430599212646484,-0.7320834398269653,-0.5189834237098694
1771072812204090400,5.66009033203125,-0.792912483215332,-0.6616584062576294,-0.2590373456478119
1771072812214031600,5.670031494140625,-1.701268196105957,-0.44293487071990967,0.058971911668777466
1771072812223972900,5.679972900390625,-2.615507125854492,-0.187400221824646,0.20751503109931946
1771072812233914000,5.6899140625,-2.786329746246338,0.10535669326782227,0.23632320761680603
1771072812243855400,5.69985546875,-2.432586193084717,0.2967355251312256,0.22768667340278625
1771072812253796900,5.709796875,-1.7290096282958984,0.2193441390991211,0.13656491041183472
1771072812263738000,5.719738037109375,-1.172053337097168,-0.013148069381713867,0.005137540400028229
1771072812273679400,5.729679443359375,-1.0831689834594727,-0.2506835460662842,-0.04359377548098564
1771072812283620600,5.73962060546875,-1.0336294174194336,-0.3907812833786011,-0.12856024503707886
1771072812293561900,5.749561767578125,-0.8442287445068359,-0.2635209560394287,-0.11490748822689056
1771072812303503400,5.75950341796875,-1.0864582061767578,-0.14635944366455078,0.0029739737510681152
1771072812313444600,5.769444580078125,-1.170206069946289,-0.017408370971679688,0.16732226312160492
1771072812323385900,5.7793857421875,-0.9630165100097656,0.09436440467834473,0.26251286268234253
1771072812333327000,5.7893271484375,-0.5086650848388672,0.1908348798751831,0.24205343425273895
1771072812343268400,5.799268310546875,-0.5737590789794922,0.3468806743621826,0.44842252135276794
1771072812353209900,5.8092099609375,-0.9830722808837891,-0.017070889472961426,0.2500905692577362
1771072812363151000,5.819151123046875,-0.622859001159668,-0.3141409158706665,-0.22923687100410461
1771072812373092400,5.82909228515625,-0.33103370666503906,-0.39274394512176514,-0.3491632342338562
1771072812383033600,5.83903369140625,-0.08823776245117188,-0.5120596885681152,-0.40211719274520874
1771072812392975000,5.84897509765625,0.4503641128540039,-0.54676353931427,-0.48695507645606995
1771072812402916400,5.858916259765625,0.9507293701171875,-0.6465014219284058,-0.6975419521331787
1771072812412857600,5.868857666015625,0.9906778335571289,-0.9004775285720825,-0.8780139684677124
1771072812422798800,5.878798828125,0.6952056884765625,-0.9676104187965393,-0.9786211252212524
1771072812432740000,5.888739990234375,0.22907733917236328,-0.7284637093544006,-0.9352991580963135
1771072812442681600,5.898681640625,0.05303955078125,-0.40821683406829834,-0.7629814147949219
1771072812452622800,5.908622802734375,0.6342782974243164,0.016824007034301758,-0.4749157428741455
1771072812462564000,5.918564208984375,1.428945541381836,0.2394951581954956,-0.14202624559402466
1771072812472505300,5.92850537109375,2.217421531677246,0.04542112350463867,0.042239218950271606
1771072812482446600,5.938446533203125,2.486638069152832,-0.22136926651000977,0.15736615657806396
1771072812492388000,5.94838818359375,2.5626678466796875,-0.44624805450439453,0.05276387929916382
1771072812502329300,5.958329345703125,2.520379066467285,-0.6351665258407593,-0.09138572216033936
1771072812512270600,5.9682705078125,2.3913774490356445,-0.6957107782363892,-0.03460857272148132
1771072812522211800,5.9782119140625,2.2377777099609375,-0.484286904335022,0.12730830907821655
1771072812532153000,5.988153076171875,1.5315513610839844,-0.08593285083770752,0.25736257433891296
1771072812542094600,5.998094482421875,0.24738597869873047,0.1813509464263916,0.3981189727783203
1771072812552035800,6.008035888671875,-0.916966438293457,0.2679288387298584,0.34020161628723145
1771072812561977000,6.01797705078125,-1.4618377685546875,0.35594654083251953,0.13418039679527283
1771072812571918600,6.027918701171875,-1.201329231262207,0.5096044540405273,0.04484516382217407
1771072812581859800,6.03785986328125,-0.2618522644042969,0.2819857597351074,0.07776767015457153
1771072812591801000,6.047801025390625,0.9161891937255859,-0.18278861045837402,0.19509100914001465
1771072812601742600,6.05774267578125,1.7813987731933594,-0.4817800521850586,0.13210439682006836
1771072812611683800,6.067683837890625,2.1010665893554688,-0.6646502017974854,0.11963319778442383
1771072812621625300,6.077625244140625,1.979741096496582,-0.7840698957443237,0.21141156554222107
1771072812631566600,6.087566650390625,1.7151765823364258,-0.7317327260971069,0.3595459759235382
1771072812641507800,6.0975078125,1.79290771484375,-0.5237046480178833,0.5408555865287781
1771072812651449300,6.107449462890625,1.8784370422363281,-0.3862149715423584,0.693660318851471
1771072812661390600,6.117390625,1.3963251113891602,-0.33420705795288086,0.7200559973716736
1771072812671332000,6.12733203125,1.141291618347168,-0.43014800548553467,0.2597540616989136
1771072812681273300,6.1372734375,0.6782293319702148,-0.3391430377960205,0.07481297850608826
1771072812701156000,6.157156005859375,-0.14534378051757812,-0.5776523351669312,-0.26600781083106995
1771072812721038800,6.177038818359375,-0.32830810546875,-0.8549023866653442,-0.011122018098831177
1771072812730980000,6.18697998046875,-0.8069124221801758,-0.8776664733886719,0.1902516782283783
1771072812740921600,6.196921630859375,-1.6229591369628906,-0.7461239099502563,0.45356544852256775
1771072812750862800,6.20686279296875,-2.579568386077881,-0.49963581562042236,0.7791807651519775
1771072812760804000,6.21680419921875,-3.378006935119629,-0.3000915050506592,0.8771960139274597
1771072812770745600,6.22674560546875,-3.311119556427002,-0.23056292533874512,0.9499668478965759
1771072812780686800,6.236686767578125,-2.2773871421813965,-0.2248854637145996,1.1441781520843506
1771072812790628400,6.24662841796875,-0.32584381103515625,-0.37879836559295654,1.1381111145019531
1771072812800569600,6.256569580078125,1.5736942291259766,-0.7034648656845093,0.8289507031440735
1771072812810510800,6.2665107421875,2.47872257232666,-0.9726251363754272,0.7470123767852783
1771072812820452400,6.276452392578125,2.2743282318115234,-1.352510929107666,0.5695916414260864
1771072812830393600,6.2863935546875,1.4652881622314453,-1.48075532913208,0.3131071925163269
1771072812840335000,6.296335205078125,0.03609180450439453,-1.333509922027588,-0.009949781000614166
1771072812850276400,6.3062763671875,-1.3536252975463867,-0.905373215675354,-0.10734420269727707
1771072812860217900,6.3162177734375,-2.2661452293395996,-0.41191601753234863,-0.0044073015451431274
1771072812870159000,6.3261591796875,-2.5322823524475098,-0.16414999961853027,-0.20726510882377625
1771072812880100400,6.336100341796875,-2.5462164878845215,-0.317531943321228,-0.5861915349960327
1771072812890041900,6.346041748046875,-2.749026298522949,-0.6254276037216187,-0.8574687838554382
1771072812899983000,6.355983154296875,-2.876361846923828,-0.6694749593734741,-0.8712562322616577
1771072812909924600,6.365924560546875,-2.9440970420837402,-0.483559250831604,-0.7395254373550415
1771072812919865900,6.375865966796875,-2.6806912422180176,-0.1430211067199707,-0.5264943838119507
1771072812929807000,6.38580712890625,-2.3351731300354004,0.1213388442993164,-0.2774808406829834
1771072812939748600,6.39574853515625,-1.9237513542175293,0.3233907222747803,-0.07707098871469498
1771072812949689900,6.40568994140625,-1.529195785522461,0.31847500801086426,-0.0944337323307991
1771072812959631400,6.41563134765625,-1.2580547332763672,0.24452638626098633,-0.1652524173259735
1771072812969572600,6.425572509765625,-1.1429224014282227,0.26202988624572754,-0.12594662606716156
1771072812979513900,6.435513916015625,-0.9826459884643555,0.37255024909973145,0.008831143379211426
1771072812989455400,6.445455322265625,-0.9158201217651367,0.5375442504882812,0.2240108698606491
1771072812999396600,6.455396728515625,-0.8541030883789062,0.6695907115936279,0.43166041374206543
1771072813009337900,6.465337890625,-0.7190828323364258,0.7012917995452881,0.5501358509063721
1771072813019279000,6.475279052734375,-0.2937498092651367,0.6431481838226318,0.49825793504714966
1771072813029220400,6.485220458984375,0.5650453567504883,0.5287508964538574,0.3239924907684326
1771072813039161900,6.495161865234375,1.2601146697998047,0.44445323944091797,0.389911413192749
1771072813049103000,6.50510302734375,1.5079345703125,0.4432971477508545,0.5532412528991699
1771072813059044400,6.51504443359375,1.4694795608520508,0.4824259281158447,0.5390844941139221
1771072813068985600,6.524985595703125,1.1355228424072266,0.5087969303131104,0.2571881413459778
1771072813078926800,6.5349267578125,0.888615608215332,0.5028629302978516,-0.06018240004777908
1771072813088868400,6.544868408203125,0.6233243942260742,0.3797287940979004,-0.27798643708229065
1771072813098809600,6.5548095703125,0.5043697357177734,0.2789745330810547,-0.3654361367225647
1771072813108750800,6.564750732421875,0.5646839141845703,0.27275562286376953,-0.29280686378479004
1771072813118692000,6.574692138671875,0.7394428253173828,0.3530552387237549,-0.17245139181613922
1771072813128633300,6.58463330078125,1.0479097366333008,0.4124870300292969,-0.054396264255046844
1771072813138574800,6.594574951171875,1.3087730407714844,0.3603658676147461,0.10318272560834885
1771072813148516000,6.60451611328125,1.4460458755493164,0.31978344917297363,0.3946930468082428
1771072813158457300,6.614457275390625,1.5819931030273438,0.340282678604126,0.7180656790733337
1771072813168398600,6.624398681640625,1.958146095275879,0.4229099750518799,0.8636770844459534
1771072813178340000,6.634340087890625,2.450286865234375,0.5461955070495605,0.7992578744888306
1771072813188281300,6.64428125,2.397061347961426,0.6080894470214844,0.5597063302993774
1771072813198222600,6.65422265625,1.3981895446777344,0.4967648983001709,0.37999242544174194
1771072813208163800,6.664163818359375,-0.06570148468017578,0.4163806438446045,0.33968859910964966
1771072813218105000,6.67410498046875,-1.1840276718139648,0.5244643688201904,0.44057777523994446
1771072813228046600,6.684046630859375,-1.7284722328186035,0.8142638206481934,0.57340407371521
1771072813237987800,6.69398779296875,-1.5922174453735352,0.9868688583374023,0.7720916271209717
1771072813247929000,6.70392919921875,-0.7099876403808594,0.6598818302154541,0.9041898250579834
1771072813257870300,6.713870361328125,0.7033329010009766,-0.05215764045715332,0.8345850706100464
1771072813267811600,6.7238115234375,1.932755470275879,-0.7111978530883789,0.6799139976501465
1771072813277753000,6.733753173828125,2.73740291595459,-1.2997092008590698,0.15334318578243256
1771072813287694300,6.7436943359375,3.210932731628418,-1.7898659706115723,-0.6324547529220581
1771072813307576800,6.763576904296875,3.237335205078125,-2.0354983806610107,-1.5565965175628662
1771072813317518300,6.773518310546875,2.4291677474975586,-1.898730754852295,-1.5265191793441772
1771072813337400800,6.79340087890625,0.04771232604980469,-1.3545464277267456,-1.3328266143798828
1771072813347342000,6.803342041015625,-1.0389509201049805,-0.9753460884094238,-1.187056303024292
1771072813357283300,6.813283447265625,-1.8887677192687988,-0.5907537937164307,-0.9386963248252869
1771072813367224800,6.823224853515625,-2.3128409385681152,-0.28205299377441406,-0.5614261031150818
1771072813377166000,6.833166015625,-2.1816744804382324,-0.0896153450012207,-0.053144872188568115
1771072813387107300,6.843107421875,-1.2954044342041016,-0.16743183135986328,0.37607842683792114
1771072813397048600,6.853048583984375,-0.19872093200683594,-0.3904991149902344,0.5996909141540527
1771072813406989800,6.86298974609375,0.5861959457397461,-0.6266018152236938,0.6471293568611145
1771072813416931300,6.872931396484375,1.0131921768188477,-0.8766919374465942,0.613501787185669
1771072813426872600,6.88287255859375,1.2339935302734375,-1.106946349143982,0.39125436544418335
1771072813436813800,6.892813720703125,1.43084716796875,-1.2976106405258179,0.035955071449279785
1771072813446755000,6.902755126953125,1.5635452270507812,-1.4174880981445312,-0.3544769883155823
1771072813456696300,6.9126962890625,1.4633684158325195,-1.5488110780715942,-0.5457748174667358
1771072813466637800,6.922637939453125,0.925837516784668,-1.6022112369537354,-0.6096649765968323
1771072813476579000,6.9325791015625,0.21936702728271484,-1.4883617162704468,-0.6504946351051331
1771072813486520300,6.942520263671875,-0.31197261810302734,-1.2777453660964966,-0.6907230615615845
1771072813496461600,6.952461669921875,-0.797795295715332,-1.0528813600540161,-0.6091159582138062
1771072813506403000,6.962403076171875,-1.0857429504394531,-0.8431562185287476,-0.31531333923339844
1771072813516344300,6.97234423828125,-1.1837215423583984,-0.6428728103637695,0.02719186246395111
1771072813526285600,6.98228564453125,-1.264364242553711,-0.43700671195983887,0.2753339409828186
1771072813536226800,6.992226806640625,-1.311171531677246,-0.24879741668701172,0.3394189178943634
1771072813546168000,7.00216796875,-1.3337793350219727,-0.20719337463378906,0.23264813423156738
1771072813556109600,7.012109619140625,-1.4302387237548828,-0.30442094802856445,0.008659496903419495
1771072813566050800,7.02205078125,-1.514359474182129,-0.3443281650543213,-0.1443353295326233
1771072813575992000,7.031991943359375,-1.6819276809692383,-0.273573637008667,-0.16740314662456512
1771072813585933300,7.041933349609375,-1.8018617630004883,-0.06907510757446289,-0.016068220138549805
1771072813595874600,7.05187451171875,-1.75543212890625,0.18239951133728027,0.1982024610042572
1771072813605816000,7.061816162109375,-1.5768232345581055,0.35976696014404297,0.37533441185951233
1771072813615757300,7.07175732421875,-1.4861936569213867,0.4584634304046631,0.448410302400589
1771072813625698600,7.081698486328125,-1.4283604621887207,0.4355587959289551,0.35511505603790283
1771072813635639800,7.091639892578125,-1.3121795654296875,0.4148399829864502,0.16667070984840393
1771072813645581000,7.1015810546875,-1.0583524703979492,0.38738012313842773,-0.017637550830841064
1771072813655522600,7.1115224609375,-0.7524881362915039,0.3029942512512207,-0.10062682628631592
1771072813665463800,7.1214638671875,-0.45637989044189453,0.22920012474060059,-0.030273497104644775
1771072813675405000,7.131405029296875,-0.31319713592529297,0.18206262588500977,-0.03938969969749451
1771072813685346600,7.1413466796875,-0.21782684326171875,0.1840059757232666,-0.11890846490859985
1771072813695287800,7.151287841796875,-0.07006549835205078,0.22826623916625977,-0.15022999048233032
1771072813705229000,7.16122900390625,0.12271785736083984,0.21683359146118164,-0.21843934059143066
1771072813715170600,7.171170654296875,0.24124908447265625,0.18936991691589355,-0.28013843297958374
1771072813725111800,7.18111181640625,0.37666797637939453,0.16675853729248047,-0.36719393730163574
1771072813735053300,7.19105322265625,0.43362903594970703,0.15776324272155762,-0.43941599130630493
1771072813744994600,7.20099462890625,0.36203575134277344,0.13193321228027344,-0.542770266532898
1771072813754935800,7.210935791015625,0.15459823608398438,0.17243528366088867,-0.6089980602264404
1771072813764877300,7.220877197265625,-0.040734291076660156,0.2383110523223877,-0.5950546264648438
1771072813774818600,7.230818603515625,-0.07610321044921875,0.29735255241394043,-0.47307288646698
1771072813784760000,7.240760009765625,0.13428974151611328,0.3299386501312256,-0.2064160406589508
1771072813794701300,7.250701416015625,0.44216442108154297,0.36061930656433105,0.10103851556777954
1771072813804642800,7.260642822265625,0.6183414459228516,0.3828873634338379,0.35849106311798096
1771072813814584000,7.270583984375,0.603276252746582,0.3374347686767578,0.45269906520843506
1771072813824525300,7.280525390625,0.5953788757324219,0.2518916130065918,0.5198222398757935
1771072813834466800,7.290466796875,0.6588773727416992,0.10115242004394531,0.48283684253692627
1771072813844408000,7.300407958984375,1.0154409408569336,0.021905899047851562,0.30383068323135376
1771072813854349600,7.310349609375,1.4591941833496094,0.018667936325073242,-0.04215341806411743
1771072813864290800,7.320290771484375,1.4962005615234375,-0.11286520957946777,-0.37906840443611145
1771072813874232000,7.330232177734375,1.0037117004394531,-0.35867738723754883,-0.5315638780593872
1771072813884173600,7.340173583984375,0.16388988494873047,-0.3583810329437256,-0.37286868691444397
1771072813894114800,7.35011474609375,-0.4936399459838867,-0.09175372123718262,-0.027573764324188232
1771072813904056300,7.360056396484375,-0.8944110870361328,0.27706336975097656,0.38054072856903076
1771072813913997600,7.36999755859375,-0.8989295959472656,0.5198719501495361,0.7202610373497009
1771072813923938800,7.379938720703125,-0.45311927795410156,0.46057844161987305,0.9409710168838501
1771072813933880300,7.38988037109375,0.5004558563232422,0.10057926177978516,0.9890553951263428
1771072813943821600,7.399821533203125,1.4796199798583984,-0.33426761627197266,0.9556294083595276
1771072813953763000,7.40976318359375,2.2253808975219727,-0.6645511388778687,0.9129294157028198
1771072813963704300,7.419704345703125,2.7321720123291016,-0.8983132839202881,0.7316541075706482
1771072813973645800,7.429645751953125,2.958139419555664,-1.0417827367782593,0.4946456551551819
1771072813983587000,7.439587158203125,3.1047163009643555,-1.1376543045043945,0.184115469455719
1771072813993528300,7.4495283203125,3.0859498977661133,-1.1701653003692627,-0.13767725229263306
1771072814003469800,7.4594697265625,2.7276296615600586,-1.2089051008224487,-0.4510720670223236
1771072814013411000,7.4694111328125,1.934737205505371,-1.2588396072387695,-0.5998508930206299
1771072814023352600,7.4793525390625,0.9754924774169922,-1.253683090209961,-0.6261707544326782
1771072814033293800,7.4892939453125,0.2679872512817383,-1.173231601715088,-0.6320884227752686
1771072814043235000,7.499235107421875,-0.33174705505371094,-1.0351604223251343,-0.49536722898483276
1771072814053176300,7.50917626953125,-0.9269294738769531,-0.823151707649231,-0.13397371768951416
1771072814063117800,7.519117919921875,-1.3174562454223633,-0.5607439279556274,0.3626399040222168
1771072814073059000,7.52905908203125,-1.3659934997558594,-0.276466965675354,0.8086038827896118
1771072814083000300,7.539000244140625,-1.1243095397949219,-0.018545150756835938,1.1919009685516357
1771072814092941600,7.548941650390625,-0.7321128845214844,0.05542182922363281,1.266284704208374
1771072814102883000,7.558883056640625,-0.3020915985107422,-0.09660696983337402,1.0678021907806396
1771072814112824300,7.56882421875,0.03946113586425781,-0.3290971517562866,0.7803569436073303
1771072814122765600,7.578765625,0.13100337982177734,-0.5515693426132202,0.5213789343833923
1771072814132706800,7.588706787109375,0.08582687377929688,-0.6987100839614868,0.22335284948349
1771072814142648000,7.59864794921875,-0.22206878662109375,-0.7423874139785767,0.04989725351333618
1771072814152589600,7.608589599609375,-0.7084407806396484,-0.7456568479537964,-0.05135530233383179
1771072814162530800,7.61853076171875,-1.005040168762207,-0.7212129831314087,-0.2270377278327942
1771072814172472000,7.62847216796875,-0.9712591171264648,-0.6689237356185913,-0.2754162847995758
1771072814182413300,7.638413330078125,-0.7318506240844727,-0.5930027961730957,-0.21696555614471436
1771072814192354600,7.6483544921875,-0.4828758239746094,-0.5244181156158447,-0.14432132244110107
1771072814202296000,7.658296142578125,-0.4174489974975586,-0.46539342403411865,-0.10541483759880066
1771072814212237300,7.6682373046875,-0.5277519226074219,-0.3833080530166626,-0.10983848571777344
1771072814222178600,7.678178466796875,-0.8181867599487305,-0.2824065685272217,-0.15360848605632782
1771072814232119800,7.688119873046875,-1.0879278182983398,-0.18521559238433838,-0.2353914976119995
1771072814242061000,7.69806103515625,-1.3539953231811523,-0.10464811325073242,-0.31808188557624817
1771072814252002600,7.70800244140625,-1.578324794769287,-0.04205584526062012,-0.3660588264465332
1771072814261943800,7.71794384765625,-1.6537079811096191,0.12755274772644043,-0.2565664052963257
1771072814271885000,7.727885009765625,-1.5998082160949707,0.3377811908721924,-0.08863130211830139
1771072814281826300,7.737826416015625,-1.4408445358276367,0.5119662284851074,0.13082659244537354
1771072814291767800,7.747767822265625,-1.3323898315429688,0.635932207107544,0.31963682174682617
1771072814301709000,7.757708984375,-1.2839374542236328,0.6957440376281738,0.40835851430892944
1771072814311650300,7.767650390625,-1.2334508895874023,0.694941520690918,0.41775617003440857
1771072814321591600,7.777591552734375,-1.1932296752929688,0.6160809993743896,0.4175643026828766
1771072814331532800,7.78753271484375,-1.0922126770019531,0.504871129989624,0.3285236954689026
1771072814341474300,7.797474365234375,-0.8878192901611328,0.3790454864501953,0.19824697077274323
1771072814351415600,7.80741552734375,-0.6756381988525391,0.2664365768432617,0.1561310589313507
1771072814361356800,7.817356689453125,-0.1304473876953125,0.2774529457092285,0.22743871808052063
1771072814371298000,7.827298095703125,0.6761188507080078,0.30714941024780273,0.2708170711994171
1771072814381239300,7.8372392578125,1.099325180053711,0.20818448066711426,0.24794995784759521
1771072814391180800,7.847180908203125,1.2264833450317383,0.005265474319458008,0.09998637437820435
1771072814401122000,7.8571220703125,1.113204002380371,-0.10527181625366211,-0.08101393282413483
1771072814411063300,7.867063232421875,0.8315200805664062,-0.09844613075256348,-0.25265711545944214
1771072814421004500,7.877004638671875,0.48679161071777344,0.02196955680847168,-0.37022900581359863
1771072814430945800,7.88694580078125,0.09824657440185547,0.11316800117492676,-0.4739788770675659
1771072814440887300,7.89688720703125,-0.24829673767089844,0.20306825637817383,-0.4450311064720154
1771072814450828500,7.90682861328125,-0.4243354797363281,0.2932553291320801,-0.35755473375320435
1771072814460769800,7.916769775390625,-0.31107234954833984,0.35088586807250977,-0.3214675784111023
1771072814470711000,7.9267109375,-0.02600574493408203,0.44638967514038086,-0.17743267118930817
1771072814480652500,7.936652587890625,0.3352489471435547,0.4729955196380615,-0.06313096731901169
1771072814490593800,7.94659375,0.7464666366577148,0.45138001441955566,0.05808057636022568
1771072814500535000,7.95653515625,1.1981744766235352,0.45719170570373535,0.05998072773218155
1771072814510476300,7.966476318359375,1.6161308288574219,0.5525486469268799,-0.1417675018310547
1771072814520417500,7.97641748046875,1.374100685119629,0.6056773662567139,-0.47751450538635254
1771072814530359000,7.986359130859375,0.5538835525512695,0.5904231071472168,-0.7087854146957397
1771072814540300300,7.99630029296875,-0.27854061126708984,0.5900537967681885,-0.7479249238967896
1771072814550241500,8.006241455078126,-0.7566347122192383,0.7508213520050049,-0.5463629961013794
1771072814560182800,8.016182861328126,-0.7075395584106445,0.9337432384490967,-0.2499057650566101
1771072814570124000,8.0261240234375,-0.2060680389404297,0.9504475593566895,0.12096405774354935
1771072814580065500,8.0360654296875,0.7600793838500977,0.657196044921875,0.433868944644928
1771072814590006800,8.0460068359375,1.7520389556884766,0.19137215614318848,0.5171207785606384
1771072814599948000,8.055947998046875,2.6208114624023438,-0.19749152660369873,0.4588959217071533
1771072814609889300,8.06588916015625,3.298704147338867,-0.5157692432403564,0.14839030802249908
1771072814619830800,8.075830810546876,3.638885498046875,-0.8326857089996338,-0.3856034278869629
1771072814629772000,8.08577197265625,3.809849739074707,-1.151767373085022,-1.0133905410766602
1771072814639713300,8.09571337890625,3.4753541946411133,-1.438666582107544,-1.5396462678909302
1771072814649654500,8.105654541015625,2.5024852752685547,-1.4715361595153809,-1.706255555152893
1771072814659595800,8.115595703125,1.2882118225097656,-1.1252186298370361,-1.4879429340362549
1771072814669537300,8.125537353515625,0.2760143280029297,-0.7469154596328735,-1.3623015880584717
1771072814679478500,8.135478515625,-0.6959705352783203,-0.4352433681488037,-1.1992213726043701
1771072814689419800,8.145419677734376,-1.4500160217285156,-0.19642186164855957,-0.8595730662345886
1771072814699361000,8.155361083984374,-1.8466506004333496,-0.04352307319641113,-0.4358677268028259
1771072814709302300,8.16530224609375,-1.7556300163269043,0.024422883987426758,-0.05583496019244194
1771072814719243800,8.175243896484375,-1.0843925476074219,-0.056856393814086914,0.09779471158981323
1771072814729185000,8.18518505859375,-0.09344291687011719,-0.3779926300048828,-0.04371010512113571
1771072814739126300,8.195126220703125,0.5870637893676758,-0.6902496814727783,-0.12044566869735718
1771072814749067500,8.205067626953126,1.1258487701416016,-0.918877124786377,-0.1784602254629135
1771072814759008800,8.2150087890625,1.3829412460327148,-1.1059353351593018,-0.36097845435142517
1771072814768950300,8.2249501953125,1.4071035385131836,-1.2109394073486328,-0.5496708154678345
1771072814778891500,8.2348916015625,0.8812170028686523,-1.3012382984161377,-0.6694105863571167
1771072814788832800,8.244832763671875,-0.05538177490234375,-1.304384708404541,-0.6923285126686096
1771072814798774300,8.254774169921875,-0.8174333572387695,-1.2177634239196777,-0.7964613437652588
1771072814808715500,8.264715576171875,-1.1623754501342773,-1.1051141023635864,-0.8833297491073608
1771072814818656800,8.27465673828125,-1.2013673782348633,-0.9917290210723877,-0.7877715826034546
1771072814828598300,8.284598388671874,-1.0999259948730469,-0.8590997457504272,-0.5622957944869995
1771072814838539500,8.29453955078125,-1.0515861511230469,-0.7255702018737793,-0.2834599018096924
1771072814848481000,8.30448095703125,-1.0845365524291992,-0.5545274019241333,-0.060649752616882324
1771072814858422300,8.31442236328125,-1.193791389465332,-0.38424503803253174,0.04135388135910034
1771072814868363500,8.324363525390625,-1.326859474182129,-0.2350316047668457,0.09358876943588257
1771072814878305000,8.334304931640625,-1.3118267059326172,-0.12784814834594727,0.1673244833946228
1771072814888246300,8.344246337890626,-1.2611236572265625,-0.08501553535461426,0.2059185802936554
1771072814898187800,8.354187744140624,-1.2964372634887695,-0.07613730430603027,0.23065659403800964
1771072814908129000,8.36412890625,-1.2884712219238281,-0.05605745315551758,0.2333087921142578
1771072814918070300,8.3740703125,-1.2490739822387695,0.0055179595947265625,0.17752867937088013
1771072814928011800,8.38401171875,-1.1639347076416016,0.015230417251586914,0.10353857278823853
1771072814937953000,8.393953125,-1.0690622329711914,0.0019049644470214844,0.029697507619857788
1771072814947894500,8.40389453125,-1.096055030822754,-0.057752370834350586,-0.0991964340209961
1771072814957835800,8.413835693359376,-1.158761978149414,-0.1390848159790039,-0.24065349996089935
1771072814967777300,8.42377734375,-1.2022266387939453,-0.15074634552001953,-0.37705346941947937
1771072814977718500,8.433718505859375,-1.2743988037109375,-0.17584753036499023,-0.47544270753860474
1771072814987659800,8.44365966796875,-1.3706579208374023,-0.04840850830078125,-0.30565688014030457
1771072814997601300,8.453601318359375,-1.3098268508911133,0.15195846557617188,-0.013698786497116089
1771072815007542500,8.46354248046875,-0.8941431045532227,0.30108094215393066,0.1951269507408142
1771072815017484000,8.473484130859376,-0.3557777404785156,0.2919442653656006,0.22844702005386353
1771072815027425300,8.48342529296875,0.10733318328857422,0.2055509090423584,0.17066454887390137
1771072815037366500,8.493366455078124,0.32869625091552734,0.14022231101989746,0.10636788606643677
1771072815047308000,8.50330810546875,0.4762849807739258,0.11681056022644043,0.008438348770141602
1771072815057249300,8.513249267578125,0.5524759292602539,0.028479576110839844,-0.20403173565864563
1771072815067190800,8.523190673828125,0.4903287887573242,-0.09740757942199707,-0.3465394377708435
1771072815077132000,8.533132080078126,0.3879861831665039,-0.1474595069885254,-0.24504488706588745
1771072815087073500,8.543073486328124,0.2858142852783203,-0.14621973037719727,-0.07946223020553589
1771072815097014800,8.553014892578124,0.37447547912597656,-0.1251816749572754,0.076083242893219
1771072815106956000,8.5629560546875,0.8969621658325195,-0.16994333267211914,0.164706289768219
1771072815116897500,8.5728974609375,1.5708942413330078,-0.3144803047180176,0.17935919761657715
1771072815126838800,8.5828388671875,2.1337146759033203,-0.46683812141418457,0.13931822776794434
1771072815136780300,8.5927802734375,2.2972288131713867,-0.5135684013366699,-0.0943189263343811
1771072815146721500,8.602721435546876,1.7071914672851562,-0.4927394390106201,-0.5380439162254333
1771072815156662800,8.612662841796874,0.5372505187988281,-0.4728543758392334,-0.815854012966156
1771072815166604300,8.622604248046875,-0.75665283203125,-0.28052520751953125,-0.5252133011817932
1771072815176545500,8.632545654296875,-1.6990399360656738,0.13712096214294434,0.10537296533584595
1771072815186486800,8.64248681640625,-1.96337890625,0.6775689125061035,0.8393511176109314
1771072815196428000,8.652427978515625,-1.6791596412658691,0.9819834232330322,1.5417009592056274
1771072815206369500,8.66236962890625,-0.7618160247802734,0.7534184455871582,1.887322187423706
1771072815216310800,8.672310791015626,0.594914436340332,0.10393381118774414,1.7436127662658691
1771072815226252000,8.682251953125,2.072098731994629,-0.48905909061431885,1.6713507175445557
1771072815236193300,8.692193359375,3.3948802947998047,-1.012608289718628,1.3518847227096558
1771072815246134800,8.702134765625,4.360815048217773,-1.4712589979171753,0.7507242560386658
1771072815256076000,8.712075927734375,5.079951286315918,-1.9605602025985718,0.02169591188430786
1771072815266017300,8.722017333984375,5.3122758865356445,-2.4462597370147705,-0.6617246866226196
1771072815275958500,8.73195849609375,4.9896087646484375,-2.806941032409668,-1.1812059879302979
1771072815285899800,8.741899658203126,3.9431819915771484,-2.8619823455810547,-1.4452240467071533
1771072815295841300,8.75184130859375,2.3389892578125,-2.4866902828216553,-1.2175476551055908
1771072815305782500,8.761782470703125,0.8559370040893555,-1.8889318704605103,-0.861650824546814
1771072815315723800,8.771723876953125,-0.3017454147338867,-1.386788249015808,-0.5910378694534302
1771072815325665000,8.7816650390625,-0.9924449920654297,-0.9340232610702515,-0.15188148617744446
1771072815335606300,8.791606201171875,-1.2990522384643555,-0.6453378200531006,0.37041306495666504
1771072815345547800,8.8015478515625,-1.3568592071533203,-0.49017322063446045,0.8887647986412048
1771072815355489000,8.811489013671874,-1.1669301986694336,-0.3891456127166748,1.2858970165252686
1771072815365430300,8.82143017578125,-0.9474315643310547,-0.29538023471832275,1.572007179260254
1771072815375371500,8.83137158203125,-0.7582492828369141,-0.16937541961669922,1.8385486602783203
1771072815385313000,8.84131298828125,-0.6663818359375,-0.0358119010925293,2.049903392791748
1771072815395254300,8.851254150390625,-0.8055257797241211,0.01705145835876465,2.0936341285705566
1771072815405195500,8.861195556640626,-0.9910449981689453,-0.0939633846282959,1.869078516960144
1771072815415136800,8.87113671875,-1.0815057754516602,-0.36651015281677246,1.3820300102233887
1771072815425078000,8.881078125,-1.0456247329711914,-0.7081444263458252,0.8353254795074463
1771072815435019500,8.89101953125,-0.9095649719238281,-0.9506714344024658,0.45247066020965576
1771072815444960800,8.900960693359375,-0.7185039520263672,-1.0271703004837036,0.17846542596817017
1771072815454902000,8.910902099609375,-0.7015962600708008,-1.073545217514038,-0.05614176392555237
1771072815464843300,8.92084326171875,-0.8725452423095703,-1.0094245672225952,-0.12500157952308655
1771072815474784500,8.930784423828126,-1.0924577713012695,-0.8271846771240234,0.01119658350944519
1771072815484726000,8.94072607421875,-1.2753524780273438,-0.6002352237701416,0.13799241185188293
1771072815494667300,8.950667236328124,-1.4908151626586914,-0.41352057456970215,0.1381300389766693
1771072815504608500,8.9606083984375,-1.6505565643310547,-0.24687063694000244,0.11567646265029907
1771072815514549800,8.9705498046875,-1.7357311248779297,-0.1281132698059082,0.08339783549308777
1771072815524491000,8.980490966796875,-1.7777395248413086,-0.059023141860961914,0.039835572242736816
1771072815534432500,8.9904326171875,-1.9178829193115234,0.0022323131561279297,0.05968552827835083
1771072815544373800,9.000373779296876,-2.065673828125,0.0795586109161377,0.1124647855758667
1771072815554315000,9.01031494140625,-2.0065321922302246,0.20803546905517578,0.2041914165019989
1771072815564256300,9.02025634765625,-1.7410669326782227,0.3376600742340088,0.2922431528568268
1771072815574197800,9.03019775390625,-1.420170783996582,0.42949366569519043,0.35817161202430725
1771072815584139000,9.040138916015625,-1.0437498092651367,0.44680285453796387,0.34784042835235596
1771072815594080300,9.050080322265625,-0.48714542388916016,0.42072248458862305,0.2815878391265869
1771072815604021500,9.060021484375,-0.041489601135253906,0.36479997634887695,0.2407277375459671
1771072815613962800,9.069962646484376,0.12191009521484375,0.30817294120788574,0.23528386652469635
1771072815623904300,9.079904296875,0.006103515625,0.3514375686645508,0.297924280166626
1771072815633845500,9.089845458984374,-0.09001636505126953,0.46987295150756836,0.2705855965614319
1771072815643786800,9.099786865234375,-0.07349967956542969,0.5851869583129883,0.2960573434829712
1771072815653728000,9.10972802734375,-0.09037971496582031,0.7143974304199219,0.3820013999938965
1771072815663669200,9.119669189453125,-0.10259056091308594,0.765411376953125,0.4138363003730774
1771072815673610800,9.12961083984375,0.038023948669433594,0.8072843551635742,0.39121055603027344
1771072815683552000,9.139552001953126,0.18808841705322266,0.8481855392456055,0.3195154666900635
1771072815693493200,9.1494931640625,0.26427459716796875,0.8342647552490234,0.17888334393501282
1771072815703434500,9.1594345703125,0.29318714141845703,0.7864392995834351,0.1179889589548111
1771072815713375700,9.169375732421875,0.37041187286376953,0.8100624084472656,0.061790335923433304
1771072815723317200,9.179317138671875,0.4481334686279297,0.8496088981628418,0.01077461987733841
1771072815733258500,9.189258544921875,0.41175174713134766,0.8857177495956421,0.039061520248651505
1771072815743199700,9.19919970703125,0.3856010437011719,0.8760054111480713,0.09079664945602417
1771072815753141000,9.20914111328125,0.4079008102416992,0.8585963249206543,0.20356884598731995
1771072815763082500,9.21908251953125,0.39254188537597656,0.855010986328125,0.3261496126651764
1771072815773023700,9.229023681640625,0.5019626617431641,0.8654346466064453,0.4185055196285248
1771072815782965000,9.238965087890625,0.8004493713378906,0.7747068405151367,0.3873555362224579
1771072815792906200,9.24890625,1.1039676666259766,0.6510307788848877,0.36882156133651733
1771072815802847700,9.25884765625,1.2692861557006836,0.5421619415283203,0.4838077425956726
1771072815812789000,9.2687890625,1.4519033432006836,0.4821128845214844,0.5528292059898376
1771072815822730500,9.27873046875,1.7854061126708984,0.45952415466308594,0.4379342794418335
1771072815832671700,9.288671630859374,2.0354127883911133,0.5674319267272949,0.17143690586090088
1771072815842613000,9.298613037109375,1.600358009338379,0.6791126728057861,-0.1388472020626068
1771072815852554500,9.308554443359375,0.6749143600463867,0.7016141414642334,-0.42148441076278687
1771072815862495700,9.318495849609375,-0.2510967254638672,0.6130690574645996,-0.5804245471954346
1771072815872437200,9.328437255859376,-1.2387733459472656,0.6192452907562256,-0.46573495864868164
1771072815882378500,9.33837841796875,-1.7833213806152344,0.7370903491973877,-0.1200232058763504
1771072815892320000,9.348320068359374,-1.810473918914795,0.8333063125610352,0.39963868260383606
1771072815902261200,9.35826123046875,-1.3121957778930664,0.7153079509735107,0.7916527986526489
1771072815912202500,9.368202392578125,-0.21994590759277344,0.23197054862976074,0.9257072806358337
1771072815922144000,9.37814404296875,1.084676742553711,-0.2233128547668457,1.0146464109420776
1771072815932085200,9.388085205078125,2.2883481979370117,-0.6382380723953247,0.8945775032043457
1771072815942026800,9.39802685546875,3.118917465209961,-1.051336646080017,0.4777478575706482
1771072815951968000,9.407968017578124,3.3927221298217773,-1.4251453876495361,-0.09678856283426285
1771072815961909200,9.4179091796875,2.925551414489746,-1.6458513736724854,-0.6136409044265747
1771072815971850800,9.427850830078125,1.725834846496582,-1.4908862113952637,-0.9077463746070862
1771072815981792000,9.4377919921875,0.36443042755126953,-1.2729976177215576,-1.172575831413269
1771072815991733500,9.4477333984375,-0.9239883422851562,-1.050432562828064,-1.4811816215515137
1771072816001674800,9.4576748046875,-1.7285447120666504,-0.7684710025787354,-1.5916814804077148
1771072816011616000,9.467615966796876,-2.0684924125671387,-0.5768731832504272,-1.4525548219680786
1771072816021557500,9.4775576171875,-2.0027689933776855,-0.4940969944000244,-1.1824747323989868
1771072816031498800,9.487498779296875,-1.505568504333496,-0.4962003231048584,-0.7562990188598633
1771072816041440300,9.497440185546875,-0.5983095169067383,-0.6344705820083618,-0.2983108460903168
1771072816051381500,9.507381591796875,0.3444490432739258,-0.7523339986801147,0.09608279168605804
1771072816061323000,9.517322998046875,1.1829681396484375,-0.7577022314071655,0.44787436723709106
1771072816071264300,9.52726416015625,1.8350105285644531,-0.7999731302261353,0.6501447558403015
1771072816081205500,9.53720556640625,1.9695186614990234,-0.9384779930114746,0.6048319339752197
1771072816091147000,9.54714697265625,1.4967927932739258,-1.1631312370300293,0.25975504517555237
1771072816101088300,9.557088134765625,0.4148740768432617,-1.278499722480774,-0.040291354060173035
1771072816111029800,9.56702978515625,-0.6387729644775391,-1.1487572193145752,-0.16158267855644226
1771072816120971000,9.576970947265625,-1.1137094497680664,-1.0036259889602661,-0.3030593991279602
1771072816130912300,9.586912353515626,-1.2575187683105469,-0.9786795377731323,-0.4297458529472351
1771072816140853800,9.596853759765626,-1.123204231262207,-1.015520453453064,-0.4483664631843567
1771072816150795000,9.606794921875,-0.6771469116210938,-1.091646432876587,-0.4509938061237335
1771072816160736500,9.616736572265625,-0.064544677734375,-1.0694057941436768,-0.31454744935035706
1771072816170677800,9.626677734375,0.2400989532470703,-0.9689086675643921,-0.17285208404064178
1771072816180619300,9.636619384765625,0.24284648895263672,-0.8742644786834717,-0.10328617691993713
1771072816190560500,9.646560546875,0.18815135955810547,-0.807640790939331,-0.14954856038093567
1771072816200501800,9.656501708984376,0.2099285125732422,-0.7712380886077881,-0.19091065227985382
1771072816210443300,9.666443359375,0.11441516876220703,-0.6899100542068481,-0.05568952113389969
1771072816220384500,9.676384521484374,-0.2608318328857422,-0.5761563777923584,0.15254834294319153
1771072816230325800,9.68632568359375,-0.7940282821655273,-0.3835296630859375,0.3171055316925049
1771072816240267300,9.696267333984375,-1.2468376159667969,-0.13197994232177734,0.448204904794693
1771072816250208500,9.70620849609375,-1.5340509414672852,0.06621503829956055,0.5231690406799316
1771072816260149800,9.716149658203125,-1.7064785957336426,0.2002396583557129,0.537686824798584
1771072816270091000,9.726091064453126,-1.852994441986084,0.3260655403137207,0.6357942819595337
1771072816280032300,9.7360322265625,-2.012387752532959,0.40519046783447266,0.6950322985649109
1771072816289973800,9.745973876953125,-1.9533491134643555,0.47501134872436523,0.6938616633415222
1771072816299915000,9.7559150390625,-1.588254451751709,0.46207451820373535,0.6111934185028076
1771072816309856300,9.765856201171875,-0.9625463485717773,0.3514366149902344,0.5048739314079285
1771072816319797500,9.775797607421875,-0.5605278015136719,0.18839812278747559,0.49671247601509094
1771072816329739000,9.785739013671876,-0.5219516754150391,0.05884242057800293,0.5013094544410706
1771072816339680300,9.79568017578125,-0.681025505065918,0.04596590995788574,0.4667065441608429
1771072816349621500,9.80562158203125,-0.98504638671875,0.13197112083435059,0.3810308575630188
1771072816359562800,9.815562744140625,-1.2766551971435547,0.2071540355682373,0.3111268877983093
1771072816369504000,9.82550390625,-1.363088607788086,0.29591846466064453,0.28078505396842957
1771072816379445500,9.835445556640625,-1.173208236694336,0.26219654083251953,0.1551726907491684
1771072816389386800,9.84538671875,-0.9078464508056641,0.2047264575958252,0.0996435284614563
1771072816399328000,9.855327880859376,-0.6670436859130859,0.2149050235748291,0.1836523413658142
1771072816409269200,9.865269287109374,-0.46732330322265625,0.28955674171447754,0.3104007840156555
1771072816419210500,9.87521044921875,-0.33738040924072266,0.42649078369140625,0.38875269889831543
1771072816429152000,9.885152099609375,-0.31078052520751953,0.5025231838226318,0.45054009556770325
1771072816439093200,9.89509326171875,-0.3065013885498047,0.5220539569854736,0.4572056233882904
1771072816449034500,9.905034423828125,-0.23668193817138672,0.4804258346557617,0.4446369707584381
1771072816458975700,9.914975830078125,-0.0779571533203125,0.3839857578277588,0.4472839832305908
1771072816468917000,9.9249169921875,0.1286172866821289,0.29590320587158203,0.4375855624675751
1771072816478858500,9.9348583984375,0.43808555603027344,0.16994905471801758,0.3230493366718292
1771072816488799700,9.9447998046875,0.9464788436889648,0.0916750431060791,0.21565163135528564
1771072816498741000,9.954740966796875,1.5447092056274414,-0.014009475708007812,0.11878880858421326
1771072816508682200,9.96468212890625,2.1502246856689453,-0.16789984703063965,-0.07233908772468567
1771072816518623700,9.974623779296875,2.465277671813965,-0.2390676736831665,-0.38838648796081543
1771072816528565000,9.98456494140625,2.00128173828125,-0.23643386363983154,-0.7265348434448242
1771072816538506200,9.99450634765625,1.1327838897705078,-0.26536476612091064,-0.8920103907585144
1771072816548447500,10.004447509765624,0.03437995910644531,-0.16477084159851074,-0.5132789611816406
1771072816558388700,10.014388671875,-0.8245773315429688,0.1486496925354004,0.018089383840560913
1771072816568330200,10.024330322265625,-1.0403385162353516,0.5349042415618896,0.4405273199081421
1771072816578271500,10.034271484375,-0.567657470703125,0.7352676391601562,0.7657637596130371
1771072816588212700,10.044212646484375,0.39837646484375,0.56524658203125,1.0187212228775024
1771072816598154000,10.054154052734376,1.3933801651000977,0.0463869571685791,1.120622158050537
1771072816608095200,10.06409521484375,2.262406349182129,-0.5359543561935425,0.9300124645233154
1771072816618036700,10.07403662109375,2.927671432495117,-0.9418684244155884,0.6516590714454651
1771072816627978000,10.08397802734375,3.144195556640625,-1.2555702924728394,0.20829921960830688
1771072816637919200,10.093919189453125,3.0235185623168945,-1.4340605735778809,-0.2145988941192627
1771072816647860500,10.103860595703125,2.884977340698242,-1.412514090538025,-0.5099260807037354
1771072816657801700,10.1138017578125,2.817628860473633,-1.3344192504882812,-0.6748269200325012
1771072816667743200,10.1237431640625,2.5998306274414062,-1.236115574836731,-0.6808854341506958
1771072816677684500,10.1336845703125,2.146143913269043,-1.10337495803833,-0.5905718803405762
1771072816687625700,10.143625732421874,1.6361579895019531,-0.9606819748878479,-0.4357439875602722
1771072816697567000,10.15356689453125,1.069575309753418,-0.8001478910446167,-0.27310436964035034
1771072816707508500,10.163508544921875,0.520146369934082,-0.5848469734191895,-0.05080366134643555
1771072816717449700,10.17344970703125,0.10918521881103516,-0.33748483657836914,0.16270536184310913
1771072816727391200,10.18339111328125,-0.04228496551513672,-0.15575098991394043,0.28733837604522705
1771072816737332500,10.19333251953125,-0.014376640319824219,-0.08270823955535889,0.4320533871650696
1771072816747273700,10.203273681640624,0.10833549499511719,-0.12220251560211182,0.6050437688827515
1771072816757215200,10.21321533203125,0.16502666473388672,-0.25922131538391113,0.7339522838592529
1771072816767156500,10.223156494140625,0.16262054443359375,-0.2975645065307617,0.8447458148002625
1771072816777098000,10.233097900390625,0.1011810302734375,-0.25215423107147217,0.9150345921516418
1771072816787039200,10.243039306640625,-0.03808116912841797,-0.24123907089233398,0.8497675657272339
1771072816796980500,10.25298046875,-0.2641925811767578,-0.28954172134399414,0.7193816304206848
1771072816806922000,10.262921875,-0.4115610122680664,-0.39344775676727295,0.5249814391136169
1771072816816863200,10.27286328125,-0.4032564163208008,-0.5265340805053711,0.2353675365447998
1771072816826804700,10.2828046875,-0.41080474853515625,-0.6565135717391968,-0.04033315181732178
1771072816836746000,10.29274609375,-0.5313701629638672,-0.7410579919815063,-0.15299922227859497
1771072816846687500,10.3026875,-0.795536994934082,-0.7403041124343872,-0.1369381546974182
1771072816856628700,10.312628662109375,-1.0933961868286133,-0.636002779006958,-0.11938899755477905
1771072816866570000,10.322570068359376,-1.3465280532836914,-0.5093986988067627,-0.14632296562194824
1771072816876511500,10.332511474609374,-1.529231071472168,-0.4707452058792114,-0.2383154332637787
1771072816886452700,10.34245263671875,-1.713803768157959,-0.46302735805511475,-0.33380377292633057
1771072816896394200,10.352394287109375,-1.8528380393981934,-0.4464312791824341,-0.44402045011520386
1771072816906335500,10.36233544921875,-1.8319435119628906,-0.4178586006164551,-0.5338330864906311
1771072816916276700,10.37227685546875,-1.7874627113342285,-0.34707701206207275,-0.6252603530883789
1771072816926218200,10.38221826171875,-1.8674678802490234,-0.2987891435623169,-0.6787192821502686
1771072816936159500,10.392159423828126,-1.9785399436950684,-0.1817336082458496,-0.5918661952018738
1771072816946101000,10.40210107421875,-2.020620346069336,0.029241323471069336,-0.4741109013557434
1771072816956042200,10.412042236328125,-1.9655694961547852,0.28041577339172363,-0.30071282386779785
1771072816965983700,10.421983642578125,-1.6561107635498047,0.521787166595459,-0.09115694463253021
1771072816975925000,10.431925048828125,-1.312352180480957,0.7138116359710693,0.15137335658073425
1771072816985866200,10.4418662109375,-0.9793796539306641,0.7901668548583984,0.2814263701438904
1771072816995807700,10.451807861328126,-0.714111328125,0.7326140403747559,0.36563923954963684
1771072817005749000,10.4617490234375,-0.5162248611450195,0.6720600128173828,0.46019265055656433
1771072817015690500,10.4716904296875,-0.39047718048095703,0.6756932735443115,0.5272915959358215
1771072817025631700,10.4816318359375,-0.47328758239746094,0.6925339698791504,0.4670926332473755
1771072817035573000,10.491572998046875,-0.6453838348388672,0.7111539840698242,0.3510438799858093
1771072817045514500,10.501514404296875,-0.7517719268798828,0.7195513248443604,0.18191948533058167
1771072817055455700,10.511455810546876,-0.5970525741577148,0.7287261486053467,0.07608197629451752
1771072817065397200,10.521397216796874,-0.26751232147216797,0.7135138511657715,0.0039442479610443115
1771072817075338500,10.53133837890625,-0.020995140075683594,0.6386430263519287,-0.10741760581731796
1771072817085280000,10.541280029296875,0.052435874938964844,0.5193817615509033,-0.2755585014820099
1771072817095221200,10.55122119140625,0.1590728759765625,0.41870832443237305,-0.44996902346611023
1771072817105162500,10.56116259765625,0.3996009826660156,0.43483567237854004,-0.46534764766693115
1771072817115104000,10.57110400390625,0.6333475112915039,0.4522709846496582,-0.42444494366645813
1771072817125045200,10.581045166015626,0.8416843414306641,0.3775143623352051,-0.4406563639640808
1771072817134986800,10.59098681640625,1.1491775512695312,0.244390606880188,-0.45984646677970886
1771072817144928000,10.600927978515625,1.4842567443847656,0.10844659805297852,-0.49293071031570435
1771072817154869200,10.610869140625,1.801778793334961,-0.0030570030212402344,-0.5579304695129395
1771072817164810800,10.620810791015625,2.0709104537963867,0.12198448181152344,-0.5431540608406067
1771072817174752000,10.630751953125,1.8070716857910156,0.32537364959716797,-0.5530189871788025
1771072817184693500,10.640693603515626,0.9512853622436523,0.47162938117980957,-0.5601998567581177
1771072817194634800,10.650634765625,0.08145999908447266,0.6636009216308594,-0.41167929768562317
1771072817204576000,10.660575927734374,-0.6586122512817383,1.0075833797454834,-0.04394444823265076
1771072817214517500,10.670517578125,-1.360032081604004,1.2936649322509766,0.45275670289993286
1771072817224458800,10.680458740234375,-1.506824016571045,1.2636477947235107,0.8574143052101135
1771072817234400300,10.690400146484375,-0.6712799072265625,1.0131783485412598,1.1510074138641357
1771072817244341500,10.700341552734375,0.7301769256591797,0.6808969974517822,1.2704027891159058
1771072817254283000,10.710282958984376,2.1806488037109375,0.3517153263092041,1.1659060716629028
1771072817264224300,10.720224365234374,3.565892219543457,-0.05422389507293701,0.6756396293640137
1771072817274165500,10.73016552734375,4.652274131774902,-0.5507383346557617,0.027670055627822876
1771072817284106800,10.740106689453125,5.105561256408691,-1.0798851251602173,-0.561289370059967
1771072817294048000,10.750048095703125,4.89208984375,-1.4989347457885742,-1.084512710571289
1771072817303989500,10.759989501953125,4.228306770324707,-1.648119330406189,-1.4383567571640015
1771072817313930800,10.7699306640625,2.890077590942383,-1.3818359375,-1.4306823015213013
1771072817323872000,10.7798720703125,1.5011463165283203,-0.938178300857544,-1.2287839651107788
1771072817333813200,10.789813232421874,0.21762752532958984,-0.6183211803436279,-1.0124152898788452
1771072817343754500,10.79975439453125,-0.9053382873535156,-0.3048980236053467,-0.6841784715652466
1771072817353696000,10.809696044921875,-1.5260372161865234,-0.0641636848449707,-0.32865819334983826
1771072817363637200,10.81963720703125,-1.6610822677612305,0.03869366645812988,-0.003906920552253723
1771072817373578500,10.82957861328125,-1.3240537643432617,-0.05895280838012695,0.1335701048374176
1771072817383519700,10.839519775390626,-0.5681180953979492,-0.2994571924209595,0.09936018288135529
1771072817393461200,10.849461181640624,0.14597129821777344,-0.5878615379333496,0.08341369032859802
1771072817403402500,10.859402587890624,0.5900278091430664,-0.9289253950119019,-0.07576242089271545
1771072817413343700,10.86934375,0.8728761672973633,-1.2236584424972534,-0.33754587173461914
1771072817423285000,10.879284912109375,0.9044675827026367,-1.512679100036621,-0.6687308549880981
1771072817433226200,10.889226318359375,0.6519966125488281,-1.7655057907104492,-0.9646582007408142
1771072817443167700,10.899167724609375,0.1781015396118164,-1.8282458782196045,-1.142507791519165
1771072817453109000,10.90910888671875,-0.14638328552246094,-1.7487716674804688,-1.199108362197876
1771072817463050200,10.91905029296875,-0.3404512405395508,-1.703752040863037,-1.1773006916046143
1771072817472991500,10.928991455078124,-0.6118392944335938,-1.6947612762451172,-1.081118106842041
1771072817482932700,10.9389326171875,-0.9052209854125977,-1.6053556203842163,-0.8428655862808228
1771072817492874200,10.948874267578125,-1.2682018280029297,-1.5004794597625732,-0.6226885318756104
1771072817502815500,10.9588154296875,-1.7628388404846191,-1.3505334854125977,-0.4718431532382965
1771072817512756700,10.9687568359375,-2.3223934173583984,-1.184259295463562,-0.4062856435775757
1771072817522698000,10.978697998046876,-2.773076057434082,-1.0295833349227905,-0.4039760231971741
1771072817532639200,10.98863916015625,-3.0130186080932617,-0.8319618701934814,-0.47106823325157166
1771072817542580700,10.998580810546875,-2.9379210472106934,-0.6457529067993164,-0.4651646912097931
1771072817552522000,11.00852197265625,-2.6320180892944336,-0.4978281259536743,-0.3484897017478943
1771072817562463200,11.018463134765625,-2.234066963195801,-0.456113338470459,-0.13644753396511078
1771072817572404500,11.028404541015625,-1.8945865631103516,-0.4897867441177368,0.05109672248363495
1771072817582346000,11.038345947265626,-1.6921939849853516,-0.52006995677948,0.16076089441776276
1771072817592287200,11.048287353515626,-1.602999210357666,-0.46917104721069336,0.15841737389564514
1771072817602228500,11.058228515625,-1.5362277030944824,-0.34576380252838135,0.04306970536708832
1771072817612169700,11.068169677734375,-1.2982683181762695,-0.2555273771286011,-0.07969605922698975
1771072817622111000,11.078111083984375,-1.030106544494629,-0.283483624458313,-0.17657741904258728
1771072817632052500,11.088052490234375,-0.7530269622802734,-0.34944355487823486,-0.22057943046092987
1771072817641993700,11.09799365234375,-0.5982933044433594,-0.39182257652282715,-0.3158058822154999
1771072817651935000,11.10793505859375,-0.524989128112793,-0.41553449630737305,-0.4144812524318695
1771072817661876200,11.117876220703126,-0.5067214965820312,-0.39163947105407715,-0.3662096858024597
1771072817671817700,11.127817626953124,-0.5076618194580078,-0.26481616497039795,-0.1852540820837021
1771072817681759000,11.137759033203125,-0.5660610198974609,-0.12092471122741699,-0.022557437419891357
1771072817691700500,11.147700439453125,-0.6244869232177734,0.05456948280334473,0.1400110423564911
1771072817701641700,11.157641845703125,-0.6449289321899414,0.19088506698608398,0.24956846237182617
1771072817711583200,11.167583251953126,-0.5820951461791992,0.25240468978881836,0.24095436930656433
1771072817721524500,11.1775244140625,-0.5411224365234375,0.32468581199645996,0.23365220427513123
1771072817731465700,11.1874658203125,-0.5577974319458008,0.4198036193847656,0.2919149696826935
1771072817741407200,11.1974072265625,-0.5246753692626953,0.4862070083618164,0.3525001108646393
1771072817751348500,11.207348388671875,-0.41084861755371094,0.5147933959960938,0.3357037603855133
1771072817761290000,11.2172900390625,-0.1374797821044922,0.5146074295043945,0.2931593060493469
1771072817771231200,11.227231201171875,0.24767303466796875,0.47468137741088867,0.32705748081207275
1771072817781172500,11.23717236328125,0.6229362487792969,0.42194199562072754,0.4857783913612366
1771072817791114000,11.247114013671874,0.9909572601318359,0.3649120330810547,0.6095927953720093
1771072817801055200,11.25705517578125,1.220362663269043,0.26532626152038574,0.6617506742477417
1771072817810996700,11.266996826171875,1.3399600982666016,0.14786767959594727,0.5742614269256592
1771072817820938000,11.27693798828125,1.4835386276245117,0.025516152381896973,0.47200316190719604
1771072817830879200,11.286879150390625,1.6725282669067383,-0.033080220222473145,0.4856296181678772
1771072817840820700,11.29682080078125,1.9209394454956055,-0.07434391975402832,0.3969194293022156
1771072817850762000,11.306761962890626,2.2449111938476562,0.010073304176330566,0.1892884373664856
1771072817860703500,11.316703369140624,1.987447738647461,0.1648482084274292,0.044349849224090576
1771072817870644700,11.326644775390625,1.0004091262817383,0.2718547582626343,-0.0317302942276001
1771072817880586200,11.336586181640625,0.022017478942871094,0.32600831985473633,-0.11191916465759277
1771072817890527500,11.346527587890625,-0.7616415023803711,0.45132243633270264,-0.024589240550994873
1771072817900468700,11.35646875,-1.2132129669189453,0.6844183206558228,0.22781944274902344
1771072817910410200,11.36641015625,-1.0047779083251953,0.8322025537490845,0.5386707782745361
1771072817920351500,11.3763515625,-0.32248592376708984,0.6432939767837524,0.6814172267913818
1771072817930293000,11.38629296875,0.4527740478515625,0.2906534671783447,0.6889098882675171
1771072817940234200,11.396234130859375,1.3330812454223633,-0.05276143550872803,0.6885846853256226
1771072817950175500,11.406175537109375,2.177438735961914,-0.2772974967956543,0.6558805704116821
1771072817960117000,11.416116943359375,2.815545082092285,-0.5137066841125488,0.6656616926193237
1771072817970058200,11.426058349609375,3.191722869873047,-0.7421232461929321,0.6072618961334229
1771072817979999700,11.435999755859376,3.394186019897461,-0.8600882887840271,0.39667022228240967
1771072817989941000,11.44594091796875,3.246061325073242,-0.9010101556777954,0.11201536655426025
1771072817999882500,11.455882568359375,2.469386100769043,-0.8473835587501526,-0.12767696380615234
1771072818009823700,11.46582373046875,1.5428733825683594,-0.8132298588752747,-0.37699180841445923
1771072818019765000,11.475764892578125,0.7741794586181641,-0.8980108499526978,-0.6850540637969971
1771072818029706500,11.48570654296875,0.12118721008300781,-0.945819079875946,-0.8164761066436768
1771072818039647700,11.495647705078126,-0.4635810852050781,-1.0132231712341309,-0.8137745261192322
1771072818049589200,11.50558935546875,-0.8845920562744141,-0.9884864091873169,-0.6241597533226013
1771072818059530500,11.515530517578124,-0.8605213165283203,-0.8397111892700195,-0.2705211639404297
1771072818069471700,11.5254716796875,-0.3187589645385742,-0.6417191028594971,0.1409376859664917
1771072818079413200,11.535413330078125,0.39734363555908203,-0.566275954246521,0.43132883310317993
1771072818089354500,11.5453544921875,0.8259048461914062,-0.6006264686584473,0.5942288637161255
1771072818099296000,11.5552958984375,1.1318025588989258,-0.6398159265518188,0.7596419453620911
1771072818109237200,11.5652373046875,1.2669868469238281,-0.6860529780387878,0.7233890891075134
1771072818119178800,11.5751787109375,1.2889995574951172,-0.7381383776664734,0.5237476825714111
1771072818129120000,11.5851201171875,1.0283737182617188,-0.7791756391525269,0.39500313997268677
1771072818139061200,11.595061279296875,0.5314836502075195,-0.735004723072052,0.3011772632598877
1771072818149002800,11.605002685546875,0.03576850891113281,-0.6291388273239136,0.18276095390319824
1771072818158944000,11.614944091796875,-0.37258338928222656,-0.575847864151001,0.05655026435852051
1771072818168885500,11.624885498046876,-0.791478157043457,-0.5267668962478638,-0.006344318389892578
1771072818178826800,11.63482666015625,-1.1633272171020508,-0.42429864406585693,-0.00746995210647583
1771072818188768000,11.64476806640625,-1.402207374572754,-0.3112267255783081,-0.037611305713653564
1771072818198709500,11.65470947265625,-1.539449691772461,-0.1996002197265625,-0.05034366250038147
1771072818208650800,11.664650634765625,-1.6708526611328125,-0.013046622276306152,0.03710395097732544
1771072818218592300,11.67459228515625,-1.7772879600524902,0.2099158763885498,0.20837154984474182
1771072818228533500,11.684533447265625,-1.8253555297851562,0.4021378755569458,0.3684278130531311
1771072818238474800,11.694474853515626,-1.755615234375,0.557013750076294,0.5212231874465942
1771072818248416300,11.704416259765624,-1.6066269874572754,0.7005833387374878,0.6685489416122437
1771072818258357500,11.714357421875,-1.4743070602416992,0.7878842353820801,0.7607679963111877
1771072818268299000,11.724299072265625,-1.3777141571044922,0.8569461107254028,0.8449498414993286
1771072818278240300,11.734240234375,-1.3887615203857422,0.9305938482284546,0.8813607692718506
1771072818288181800,11.744181640625,-1.4911117553710938,0.918500542640686,0.8248416185379028
1771072818298123000,11.754123046875,-1.5800838470458984,0.8263543844223022,0.7063580751419067
1771072818308064300,11.764064208984376,-1.5797414779663086,0.7306646108627319,0.6038167476654053
1771072818318005800,11.774005859375,-1.466567039489746,0.6393334865570068,0.6500116586685181
1771072818327947000,11.783947021484375,-1.254979133605957,0.5610843896865845,0.8436875939369202
1771072818337888500,11.793888427734375,-0.8326568603515625,0.513350248336792,1.0660395622253418
1771072818347829800,11.803829833984375,-0.35718441009521484,0.5407577753067017,1.2097651958465576
1771072818357771000,11.81377099609375,0.09564495086669922,0.5054540634155273,1.1070997714996338
1771072818367712500,11.82371240234375,0.3213977813720703,0.3434027433395386,0.878176212310791
1771072818377653800,11.83365380859375,0.26154327392578125,0.16668760776519775,0.5504383444786072
1771072818387595300,11.84359521484375,0.09846210479736328,0.10384213924407959,0.2691844701766968
1771072818397536500,11.85353662109375,-0.15322303771972656,0.08294785022735596,0.06373399496078491
1771072818407477800,11.863477783203125,-0.5581855773925781,-0.015682220458984375,-0.19794681668281555
1771072818417419300,11.873419189453125,-1.0524053573608398,-0.07984411716461182,-0.45292338728904724
1771072818427360500,11.883360595703126,-1.3380460739135742,-0.05952918529510498,-0.6124502420425415
1771072818437301800,11.8933017578125,-1.1416311264038086,0.02187979221343994,-0.6742968559265137
1771072818447243000,11.903242919921874,-0.6435375213623047,0.035361528396606445,-0.6230887770652771
1771072818457184300,11.913184326171875,-0.03993797302246094,-0.030679941177368164,-0.4386403560638428
1771072818467125800,11.923125732421875,0.5402803421020508,-0.10412931442260742,-0.3026431202888489
1771072818477067000,11.93306689453125,0.9995040893554688,-0.12706220149993896,-0.4148055613040924
1771072818487008300,11.94300830078125,1.3906288146972656,0.07614314556121826,-0.7018966674804688
1771072818496949500,11.952949462890626,1.2289295196533203,0.4666980504989624,-0.9411859512329102
1771072818506890800,11.962890869140624,0.5609703063964844,0.8023781776428223,-1.0210551023483276
1771072818516832300,11.972832275390624,-0.22555160522460938,0.8384068012237549,-0.9483019113540649
1771072818526773500,11.9827734375,-1.0642070770263672,0.8091098070144653,-0.5415651202201843
1771072818536714800,11.99271484375,-1.4019737243652344,0.9238162040710449,0.2513387203216553
1771072818546656000,12.002656005859375,-0.9236316680908203,0.8907375335693359,0.8557718396186829
1771072818556597200,12.01259716796875,0.311737060546875,0.5637375116348267,1.0588622093200684
1771072818566538800,12.022538818359376,1.8646659851074219,0.23069846630096436,1.160942554473877
1771072818576480000,12.03247998046875,3.5837888717651367,-0.06486356258392334,0.8773288726806641
1771072818586421200,12.042421142578124,5.167560577392578,-0.47961699962615967,0.3417844772338867
1771072818596362500,12.052362548828125,6.006221771240234,-0.9878912568092346,-0.27874645590782166
1771072818606304000,12.062303955078125,5.810454368591309,-1.5028140544891357,-0.8185806274414062
1771072818616245200,12.072245361328125,4.823756217956543,-1.795624017715454,-1.2450059652328491
1771072818626186500,12.0821865234375,3.2316837310791016,-1.605564832687378,-1.4738799333572388
1771072818636127700,12.092127685546876,1.5916767120361328,-1.2538988590240479,-1.571047306060791
1771072818646069000,12.102069091796874,0.08922290802001953,-0.938439667224884,-1.6809275150299072
1771072818656010500,12.112010498046875,-0.9596614837646484,-0.577743649482727,-1.5635054111480713
1771072818665951700,12.12195166015625,-1.5144081115722656,-0.2698507308959961,-1.278679609298706
1771072818675893000,12.13189306640625,-1.5963096618652344,-0.153733491897583,-0.9394370317459106
1771072818685834200,12.141834228515625,-1.3334321975708008,-0.22114348411560059,-0.5698037147521973
1771072818695775500,12.151775390625,-0.7360897064208984,-0.4206271171569824,-0.26366883516311646
1771072818705717000,12.161717041015624,-0.09863090515136719,-0.6445355415344238,-0.10863853991031647
1771072818715658200,12.171658203125,0.32129478454589844,-0.752662181854248,-0.030134767293930054
1771072818725599500,12.181599609375,0.5627298355102539,-0.7381436824798584,0.09163716435432434
1771072818735540700,12.191540771484375,0.6814050674438477,-0.7086900472640991,0.18287786841392517
1771072818745482200,12.201482177734375,0.7903680801391602,-0.7408541440963745,0.17687663435935974
1771072818755423500,12.211423583984375,0.7992687225341797,-0.8030800223350525,0.1257936954498291
1771072818765365000,12.221364990234376,0.6176881790161133,-0.8934005498886108,-0.01068657636642456
1771072818775306200,12.23130615234375,0.3415498733520508,-0.9893735647201538,-0.2746284008026123
1771072818785247500,12.24124755859375,0.1168813705444336,-1.0050361156463623,-0.49848106503486633
1771072818795189000,12.25118896484375,-0.0682229995727539,-0.9937154650688171,-0.6021056175231934
1771072818805130200,12.261130126953125,-0.22800350189208984,-1.011314868927002,-0.6714317798614502
1771072818815071700,12.27107177734375,-0.3933992385864258,-1.0488972663879395,-0.7398213148117065
1771072818825013000,12.281012939453126,-0.643040657043457,-1.037634253501892,-0.7312352061271667
1771072818834954200,12.290954345703126,-1.0124950408935547,-0.9869968295097351,-0.6772102117538452
1771072818844895700,12.300895751953124,-1.463536262512207,-0.9212186336517334,-0.5968793630599976
1771072818854837000,12.3108369140625,-1.8865723609924316,-0.77768874168396,-0.44099608063697815
1771072818864778500,12.320778564453125,-2.1627368927001953,-0.5850310325622559,-0.28637632727622986
1771072818874719700,12.3307197265625,-2.240356922149658,-0.3864262104034424,-0.09780837595462799
1771072818884661200,12.3406611328125,-2.1153931617736816,-0.22897982597351074,0.10532736778259277
1771072818894602500,12.3506025390625,-1.9676241874694824,-0.13640856742858887,0.2810937166213989
1771072818904543700,12.360543701171874,-1.8187165260314941,-0.12542152404785156,0.3825252652168274
1771072818914485200,12.3704853515625,-1.6712923049926758,-0.08551025390625,0.5215013027191162
1771072818924426500,12.380426513671875,-1.549389362335205,0.007379770278930664,0.6177312135696411
1771072818934368000,12.390367919921875,-1.3765678405761719,0.11973714828491211,0.6589284539222717
1771072818944309200,12.400309326171875,-1.2482423782348633,0.17633557319641113,0.5853912234306335
1771072818954250500,12.41025048828125,-1.2165460586547852,0.10924363136291504,0.4134161174297333
1771072818964192000,12.42019189453125,-1.2045679092407227,-0.019788026809692383,0.22483232617378235
1771072818974133200,12.43013330078125,-1.1259641647338867,-0.09681153297424316,0.08185705542564392
1771072818984074800,12.44007470703125,-0.9542694091796875,-0.11354732513427734,0.07148009538650513
1771072818994016000,12.45001611328125,-0.7777099609375,-0.08357739448547363,0.16737788915634155
1771072819003957200,12.459957275390625,-0.708308219909668,-0.04141354560852051,0.31721460819244385
1771072819013898800,12.469898681640625,-0.6981697082519531,0.03972196578979492,0.4211745262145996
1771072819023840000,12.479840087890626,-0.7259387969970703,0.06287145614624023,0.3344942331314087
1771072819033781500,12.489781494140624,-0.6963100433349609,0.11525988578796387,0.2448354959487915
1771072819043722800,12.49972265625,-0.5928373336791992,0.11102819442749023,0.15815520286560059
1771072819053664300,12.509664306640625,-0.48773956298828125,0.06766128540039062,0.1060369610786438
1771072819063605500,12.51960546875,-0.45791149139404297,0.08408403396606445,0.08621978759765625
1771072819073546800,12.529546630859375,-0.5564794540405273,0.21491384506225586,0.15092450380325317
1771072819083488300,12.53948828125,-0.690363883972168,0.2730276584625244,0.08844774961471558
1771072819093429500,12.549429443359376,-0.6230583190917969,0.2880556583404541,0.03067392110824585
1771072819103371000,12.55937109375,-0.4383707046508789,0.2615542411804199,-0.02025759220123291
1771072819113312300,12.569312255859375,-0.16001033782958984,0.09154176712036133,-0.23619496822357178
1771072819123253500,12.57925341796875,0.10265922546386719,-0.06633353233337402,-0.37223970890045166
1771072819133195000,12.589195068359375,0.25472450256347656,-0.0783698558807373,-0.2038392424583435
1771072819143136300,12.59913623046875,0.14141178131103516,-0.005029439926147461,-0.091086745262146
1771072819153077800,12.609077880859376,0.12379264831542969,0.031134366989135742,-0.0031564831733703613
1771072819163019000,12.61901904296875,0.41399097442626953,0.05759167671203613,0.10705149173736572
1771072819172960500,12.62896044921875,1.027618408203125,0.231705904006958,0.4363052248954773
1771072819182901800,12.63890185546875,1.3307380676269531,0.4440433979034424,0.7067574858665466
1771072819192843000,12.648843017578125,1.2816228866577148,0.5880639553070068,0.8292405009269714
1771072819202784500,12.658784423828125,1.0009679794311523,0.7550704479217529,0.8176994323730469
1771072819212725800,12.668725830078126,0.5562448501586914,0.7608762979507446,0.5940257906913757
1771072819222667300,12.678667236328126,0.15027523040771484,0.724614143371582,0.38592690229415894
1771072819232608500,12.6886083984375,-0.0007028579711914062,0.6737596988677979,0.3045957386493683
1771072819242549800,12.6985498046875,0.5939550399780273,0.4381324052810669,0.2041713297367096
1771072819252491300,12.7084912109375,1.6100168228149414,-0.08959639072418213,-0.0009985864162445068
1771072819262432500,12.7184326171875,2.708354949951172,-0.6422431468963623,-0.19259627163410187
1771072819272374000,12.7283740234375,3.2239913940429688,-1.0364588499069214,-0.2744649350643158
1771072819282315300,12.738315185546876,3.3244752883911133,-1.182429552078247,-0.27552878856658936
1771072819292256800,12.7482568359375,3.757075309753418,-1.0941617488861084,-0.190559521317482
