time,seconds_elapsed,z,y,x
1771072806656812000,0.11281201171875,0.11544794589281082,-0.13022847473621368,0.5573992133140564
1771072806666753500,0.12275341796875,0.0834900364279747,-0.11744531989097595,0.6000097393989563
1771072806676694800,0.13269482421875,0.04301001876592636,-0.08016108721494675,0.6074665784835815
1771072806686636000,0.142635986328125,-0.004926844500005245,-0.017310533672571182,0.5552686452865601
1771072806696577500,0.15257763671875,-0.052863709628582,0.03914843872189522,0.43808966875076294
1771072806706518800,0.162518798828125,-0.07097318768501282,0.0540621280670166,0.27723485231399536
1771072806716460300,0.172460205078125,-0.06990792602300644,0.03169159218668938,0.10146636515855789
1771072806726401500,0.182401611328125,-0.07097318768501282,-0.0023968431632965803,-0.0540621280670166
1771072806736342800,0.1923427734375,-0.07203845679759979,-0.03435475379228592,-0.16804534196853638
1771072806746284300,0.2022841796875,-0.06884266436100006,-0.026897907257080078,-0.22556957602500916
1771072806756225500,0.2122255859375,-0.07949529588222504,0.025300011038780212,-0.23089589178562164
1771072806766167000,0.2221669921875,-0.0997353047132492,0.0679105594754219,-0.1904158741235733
1771072806776108300,0.2321083984375,-0.11251847445964813,0.05938844755291939,-0.10199899226427078
1771072806786049800,0.2420498046875,-0.12104058265686035,0.040213704109191895,0.013049479573965073
1771072806795991000,0.251990966796875,-0.12956269085407257,0.08282424509525299,0.07483477145433426
1771072806805932300,0.261932373046875,-0.1380847990512848,0.12863057851791382,0.04607265070080757
1771072806815873800,0.271873779296875,-0.12743216753005981,0.1201084777712822,0.010918952524662018
1771072806825815000,0.28181494140625,-0.0997353047132492,0.138217955827713,-0.03275685757398605
1771072806835756500,0.291756591796875,-0.08056056499481201,0.1957421898841858,-0.0870852991938591
1771072806845697800,0.30169775390625,-0.0762995108962059,0.2330264151096344,-0.14460954070091248
1771072806855639000,0.31163916015625,-0.06671213358640671,0.2330264151096344,-0.2000032514333725
1771072806865580500,0.32158056640625,-0.04966791719198227,0.20532956719398499,-0.251135915517807
1771072806875521800,0.331521728515625,-0.026232117787003517,0.16911059617996216,-0.2798980176448822
1771072806885463300,0.34146337890625,-0.012383690103888512,0.1243695318698883,-0.2745717167854309
1771072806895404500,0.351404541015625,-0.011318426579236984,0.07536740601062775,-0.23515695333480835
1771072806905345800,0.361345703125,-0.019840534776449203,0.04767054691910744,-0.18722008168697357
1771072806915287300,0.371287353515625,-0.02197106182575226,0.029561065137386322,-0.15206637978553772
1771072806925228500,0.381228515625,-0.015579480677843094,0.010386320762336254,-0.13076111674308777
1771072806935170000,0.391170166015625,-0.008122635073959827,-0.015180006623268127,-0.12223900109529495
1771072806945111300,0.401111328125,-0.003861580742523074,-0.0354200154542923,-0.11691268533468246
1771072806955052800,0.411052734375,-0.0070573715493083,-0.0354200154542923,-0.11371689289808273
1771072806964994000,0.420994140625,-0.014514217153191566,-0.052464235574007034,-0.10626004636287689
1771072806974935300,0.430935302734375,-0.02516685426235199,-0.09720530360937119,-0.09241162240505219
1771072806984876800,0.440876708984375,-0.039015281945466995,-0.13022847473621368,-0.07962846010923386
1771072806994818300,0.450818359375,-0.059255290776491165,-0.11851058155298233,-0.0732368752360344
1771072807004759600,0.460759521484375,-0.08056056499481201,-0.07803056389093399,-0.0774979293346405
1771072807014701000,0.470701171875,-0.09867004305124283,-0.05139897018671036,-0.08602003753185272
1771072807024642300,0.480642333984375,-0.11038794368505478,-0.052464235574007034,-0.09773793816566467
1771072807034583800,0.490583740234375,-0.10719215124845505,-0.0684431865811348,-0.10732531547546387
1771072807044525300,0.500525390625,-0.09227846562862396,-0.05779055133461952,-0.10945583879947662
1771072807054466600,0.510466552734375,-0.08482161909341812,-0.0023968431632965803,-0.10412952303886414
1771072807074349600,0.530349609375,-0.07736477255821228,0.11158636957406998,-0.07643266767263412
1771072807104173600,0.560173583984375,-0.039015281945466995,0.04554001986980438,0.032224226742982864
1771072807114115000,0.570114990234375,-0.024101590737700462,0.029561065137386322,0.0588558167219162
1771072807124056600,0.580056640625,-0.02090579830110073,0.029561065137386322,0.0727042406797409
1771072807133997800,0.589997802734375,-0.024101590737700462,0.044474758207798004,0.06311687082052231
1771072807143939300,0.599939208984375,-0.018775271251797676,0.03808317333459854,0.04394212365150452
1771072807153880800,0.609880859375,-0.0070573715493083,-0.001331579522229731,0.03328948840498924
1771072807163822000,0.619822021484375,-0.0006657897611148655,-0.052464235574007034,0.03328948840498924
1771072807173763600,0.629763671875,-0.008122635073959827,-0.09507478028535843,0.05139897018671036
1771072807183704800,0.639704833984375,-0.027297381311655045,-0.12170637398958206,0.0918789878487587
1771072807193646300,0.649646240234375,-0.034754227846860886,-0.1344895362854004,0.1430116444826126
1771072807203587800,0.659587890625,-0.027297381311655045,-0.13662005960941315,0.1898832470178604
1771072807213529000,0.669529052734375,-0.02090579830110073,-0.12170637398958206,0.20799273252487183
1771072807223470600,0.679470703125,-0.014514217153191566,-0.08442214131355286,0.1952095627784729
1771072807233411800,0.689411865234375,-0.010253162123262882,-0.0354200154542923,0.15472954511642456
1771072807243353300,0.699353271484375,-0.005992108024656773,-0.0002663159102667123,0.08548741042613983
1771072807253294800,0.709294921875,0.021704746410250664,-0.016245270147919655,0.005592633970081806
1771072807263236000,0.719236083984375,0.07070687413215637,-0.052464235574007034,-0.07430213689804077
1771072807273177600,0.729177490234375,0.13142690062522888,-0.06524740159511566,-0.14034847915172577
1771072807283119000,0.739119140625,0.1729721873998642,-0.029028434306383133,-0.17763271927833557
1771072807293060400,0.749060302734375,0.18149429559707642,0.1201084777712822,-0.20639483630657196
1771072807303001900,0.759001953125,0.16231954097747803,0.2372874766588211,-0.2234390527009964
1771072807312943000,0.768943115234375,0.1729721873998642,0.25007063150405884,-0.22450430691242218
1771072807322884600,0.778884521484375,0.22303956747055054,0.18295903503894806,-0.21598219871520996
1771072807332826000,0.788826171875,0.285890132188797,0.06684529036283493,-0.21065588295459747
1771072807342767400,0.798767333984375,0.34980595111846924,-0.0023968431632965803,-0.2287653684616089
1771072807352708900,0.808708984375,0.4126565158367157,-0.048203181475400925,-0.24154852330684662
1771072807362650400,0.818650390625,0.4701807498931885,-0.14727269113063812,-0.22237378358840942
1771072807372591600,0.828591552734375,0.5159870982170105,-0.1994706094264984,-0.22024326026439667
1771072807382533000,0.838533203125,0.5426186919212341,-0.2047969400882721,-0.21278640627861023
1771072807402415900,0.858415771484375,0.5117260217666626,-0.032224226742982864,-0.1392832249403
1771072807422298600,0.878298583984375,0.49574705958366394,0.18402428925037384,-0.014647374860942364
1771072807432240000,0.888240234375,0.5905555486679077,0.251135915517807,0.04287686198949814
1771072807442181400,0.898181396484375,0.7077345252037048,0.28309381008148193,0.0918789878487587
1771072807452123000,0.908122802734375,0.8281093239784241,0.29268118739128113,0.14194637537002563
1771072807462064400,0.918064453125,0.8941556811332703,0.30652961134910583,0.21758009493350983
1771072807472005600,0.928005615234375,0.8803072571754456,0.36298859119415283,0.3134538233280182
1771072807481947100,0.937947021484375,0.7929556369781494,0.43329599499702454,0.4125233590602875
1771072807491888600,0.947888671875,0.5809681415557861,0.4769718050956726,0.45619916915893555
1771072807501830000,0.957829833984375,0.2571280002593994,0.4535360038280487,0.3869570195674896
1771072807511771400,0.967771484375,0.004660528618842363,0.3747064769268036,0.24847275018692017
1771072807521712600,0.977712646484375,-0.06032055243849754,0.3043990731239319,0.11638005077838898
1771072807531654100,0.987654052734375,-0.0017310534603893757,0.23835274577140808,0.031158961355686188
1771072807541595600,0.997595703125,0.04620581120252609,0.1339569091796875,-0.01784316636621952
1771072807551537000,1.007536865234375,0.02277000993490219,0.023169483989477158,-0.0540621280670166
1771072807561478400,1.017478515625,-0.043276336044073105,-0.06737792491912842,-0.09560741484165192
1771072807571419600,1.027419677734375,-0.09760478138923645,-0.17923060059547424,-0.1435442715883255
1771072807581361200,1.037361083984375,-0.12317110598087311,-0.33369383215904236,-0.14993585646152496
1771072807591302700,1.047302734375,-0.15832480788230896,-0.3837612271308899,-0.11158636957406998
1771072807601244000,1.057243896484375,-0.22117535769939423,-0.34328120946884155,-0.09560741484165192
1771072807611185400,1.067185302734375,-0.2744385600090027,-0.2804306447505951,-0.07004108279943466
1771072807631068200,1.087068115234375,-0.31917962431907654,0.030626330524683,-0.07217161357402802
1771072807641009400,1.097009521484375,-0.3213101327419281,0.14674006402492523,-0.09773793816566467
1771072807650951000,1.106950927734375,-0.32344067096710205,0.20532956719398499,-0.13182637095451355
1771072807660892200,1.11689208984375,-0.3308975100517273,0.2468748539686203,-0.17017586529254913
1771072807670833700,1.126833740234375,-0.3202448785305023,0.2564622163772583,-0.22450430691242218
1771072807680775000,1.13677490234375,-0.2786996066570282,0.25326642394065857,-0.2798980176448822
1771072807690716200,1.146716064453125,-0.2169143110513687,0.2607232630252838,-0.31505173444747925
1771072807700657700,1.15665771484375,-0.1657816469669342,0.2671148478984833,-0.2990727722644806
1771072807710599000,1.166598876953125,-0.13382373750209808,0.3118559420108795,-0.21065588295459747
1771072807720540400,1.17654052734375,-0.12104058265686035,0.40986019372940063,-0.0636495053768158
1771072807730481700,1.186481689453125,-0.10506162792444229,0.4822981059551239,0.10040109604597092
1771072807740423200,1.196423095703125,-0.0858868807554245,0.4492749273777008,0.24527695775032043
1771072807760305700,1.2163056640625,-0.04860265180468559,0.11478215456008911,0.5020055174827576
1771072807780188400,1.2361884765625,-0.04434159770607948,-0.06524740159511566,0.6713824272155762
1771072807800071200,1.2560712890625,-0.04114580899477005,0.10412952303886414,0.6394245028495789
1771072807810012400,1.266012451171875,-0.03795001655817032,0.17550218105316162,0.5659213066101074
1771072807819954000,1.275953857421875,0.0025300011038780212,0.15206637978553772,0.5254412889480591
1771072807829895200,1.285895263671875,0.029161592945456505,0.03914843872189522,0.5052012801170349
1771072807839836700,1.295836669921875,0.05792371183633804,-0.03328948840498924,0.46578651666641235
1771072807849778000,1.30577783203125,0.11864373832941055,-0.08761793375015259,0.4295675754547119
1771072807859719400,1.315719482421875,0.17190691828727722,-0.13768532872200012,0.3880222737789154
1771072807869660700,1.32566064453125,0.2347574681043625,-0.15472954511642456,0.33795487880706787
1771072807879602000,1.335601806640625,0.3199785649776459,-0.21331904828548431,0.25379905104637146
1771072807889543400,1.34554345703125,0.3668501675128937,-0.2836264371871948,0.11957584321498871
1771072807899484700,1.355484619140625,0.3604585826396942,-0.3358243703842163,-0.0007989477599039674
1771072807909426200,1.36542626953125,0.2667153775691986,-0.3166496157646179,-0.09241162240505219
1771072807919367400,1.375367431640625,0.13142690062522888,-0.23355905711650848,-0.12117373943328857
1771072807929308700,1.38530859375,0.020639482885599136,-0.16964323818683624,-0.08602003753185272
1771072807949191400,1.40519140625,-0.052863709628582,-0.105727419257164,0.03755054250359535
1771072807959133000,1.4151328125,-0.03688475489616394,-0.08122635632753372,0.0684431865811348
1771072807969074200,1.42507421875,-0.003861580742523074,-0.08122635632753372,0.0727042406797409
1771072807979015700,1.435015625,0.0366184376180172,-0.10679268091917038,0.056725289672613144
1771072807988957000,1.44495703125,0.08242477476596832,-0.12703268229961395,0.03328948840498924
1771072807998898200,1.454898193359375,0.12929637730121613,-0.1249021589756012,0.016245270147919655
1771072808008839700,1.464839599609375,0.1687111258506775,-0.105727419257164,-0.0018642114009708166
1771072808018781000,1.474781005859375,0.20279955863952637,-0.10040109604597092,-0.02636527456343174
1771072808028722400,1.484722412109375,0.22943115234375,-0.11211899667978287,-0.05832318589091301
1771072808038663700,1.49466357421875,0.24434484541416168,-0.13129374384880066,-0.08602003753185272
1771072808048605000,1.50460498046875,0.22943115234375,-0.14620743691921234,-0.11265163123607635
1771072808068487700,1.52448779296875,0.1591237634420395,-0.1898832470178604,-0.14993585646152496
1771072808078429200,1.53442919921875,0.13675321638584137,-0.22184115648269653,-0.15632744133472443
1771072808098311700,1.554311767578125,0.11864373832941055,-0.25806012749671936,-0.1531316488981247
1771072808118194700,1.574194580078125,0.10905636847019196,-0.2612559199333191,-0.19148114323616028
1771072808128136000,1.584135986328125,0.10479531437158585,-0.22929799556732178,-0.22450430691242218
1771072808138077400,1.594077392578125,0.10905636847019196,-0.17496955394744873,-0.24154852330684662
1771072808148018700,1.604018798828125,0.11970899999141693,-0.10679268091917038,-0.22024326026439667
1771072808157960200,1.613960205078125,0.11970899999141693,-0.040746334940195084,-0.1712411344051361
1771072808167901700,1.623901611328125,0.10266478359699249,-0.008788425475358963,-0.12223900109529495
1771072808177843000,1.633843017578125,0.07816372066736221,-0.013049479573965073,-0.08069372177124023
1771072808187784400,1.643784423828125,0.05792371183633804,-0.019441060721874237,-0.04660528525710106
1771072808197725700,1.6537255859375,0.05259739235043526,-0.02263685315847397,-0.019973693415522575
1771072808207667200,1.663667236328125,0.0600542388856411,-0.03328948840498924,-0.008255792781710625
1771072808217608700,1.673608642578125,0.06644582003355026,-0.07057371735572815,-0.010386320762336254
1771072808227550000,1.683550048828125,0.06431528925895691,-0.11638005077838898,-0.010386320762336254
1771072808237491500,1.693491455078125,0.0504668653011322,-0.15153375267982483,-0.0007989477599039674
1771072808247433000,1.703432861328125,0.020639482885599136,-0.16964323818683624,0.006657897960394621
1771072808257374200,1.713374267578125,-0.01771000772714615,-0.17923060059547424,0.0034621069207787514
1771072808267315700,1.723315673828125,-0.056059498339891434,-0.18242639303207397,-0.014647374860942364
1771072808277257000,1.733257080078125,-0.09121319651603699,-0.1664474457502365,-0.05725792050361633
1771072808287198500,1.743198486328125,-0.11251847445964813,-0.13129374384880066,-0.11797794699668884
1771072808297140000,1.753139892578125,-0.12636689841747284,-0.0918789878487587,-0.1712411344051361
1771072808307081200,1.763081298828125,-0.1380847990512848,-0.05352949723601341,-0.20213377475738525
1771072808317022700,1.773022705078125,-0.14873743057250977,-0.04500738903880119,-0.20852535963058472
1771072808326964000,1.7829638671875,-0.15406376123428345,-0.03328948840498924,-0.20213377475738525
1771072808336905500,1.792905517578125,-0.14447638392448425,-0.010918952524662018,-0.21278640627861023
1771072808346847000,1.802846923828125,-0.12636689841747284,0.010386320762336254,-0.2372874766588211
1771072808356788200,1.812788330078125,-0.11038794368505478,0.012516847811639309,-0.25965800881385803
1771072808366729700,1.822729736328125,-0.10825742036104202,-0.006657897960394621,-0.261788547039032
1771072808376671200,1.832671142578125,-0.11145320534706116,-0.032224226742982864,-0.2372874766588211
1771072808386612500,1.842612548828125,-0.09867004305124283,-0.05566002428531647,-0.19361166656017303
1771072808396554000,1.852553955078125,-0.0624510794878006,-0.04500738903880119,-0.13502216339111328
1771072808406495200,1.8624951171875,-0.01771000772714615,0.010386320762336254,-0.05938844755291939
1771072808416436700,1.872436767578125,0.02383527345955372,0.08602003753185272,0.01837579719722271
1771072808426378200,1.882378173828125,0.045140545815229416,0.13076111674308777,0.0684431865811348
1771072808436319500,1.892319580078125,0.03555317223072052,0.11797794699668884,0.06524740159511566
1771072808446261000,1.902260986328125,-0.0070573715493083,0.06684529036283493,0.011984216049313545
1771072808456202500,1.912202392578125,-0.08162582665681839,-0.001331579522229731,-0.07856319099664688
1771072808466143700,1.922143798828125,-0.17749954760074615,-0.06418213248252869,-0.1723063886165619
1771072808476085200,1.932085205078125,-0.2733732759952545,-0.12596742808818817,-0.2426137924194336
1771072808486026500,1.942026611328125,-0.3543333113193512,-0.16857796907424927,-0.2671148478984833
1771072808495968000,1.951968017578125,-0.40440070629119873,-0.14727269113063812,-0.23409168422222137
1771072808505909200,1.9619091796875,-0.42251017689704895,-0.08122635632753372,-0.15632744133472443
1771072808515850800,1.971850830078125,-0.4299670457839966,-0.029028434306383133,-0.06578002870082855
1771072808525792000,1.9817919921875,-0.44594597816467285,-0.005592633970081806,0.0023968431632965803
1771072808535733500,1.9917333984375,-0.4629902243614197,-0.013049479573965073,0.04181159660220146
1771072808545674800,2.0016748046875,-0.47470811009407043,-0.03861580789089203,0.052464235574007034
1771072808555616000,2.011615966796875,-0.48429548740386963,-0.07590003311634064,0.032224226742982864
1771072808565557500,2.0215576171875,-0.48429548740386963,-0.0918789878487587,0.008788425475358963
1771072808575498800,2.031498779296875,-0.466185986995697,-0.0588558167219162,0.016245270147919655
1771072808585440300,2.041440185546875,-0.4331628382205963,0.019973693415522575,0.056725289672613144
1771072808595381500,2.051381591796875,-0.39481332898139954,0.11371689289808273,0.12064110487699509
1771072808605323000,2.061322998046875,-0.35646384954452515,0.18402428925037384,0.2005358785390854
1771072808615264300,2.07126416015625,-0.32344067096710205,0.23196116089820862,0.28682222962379456
1771072808625205500,2.08120556640625,-0.2968090772628784,0.2372874766588211,0.3613906800746918
1771072808635147000,2.09114697265625,-0.27656906843185425,0.2000032514333725,0.4082622826099396
1771072808645088300,2.101088134765625,-0.2595248520374298,0.138217955827713,0.41465386748313904
1771072808655029800,2.11102978515625,-0.2541985511779785,0.08388951420783997,0.3922833502292633
1771072808664971000,2.120970947265625,-0.2510027587413788,0.05512739345431328,0.34754225611686707
1771072808674912300,2.130912353515625,-0.2456764280796051,0.03275685757398605,0.293213814496994
1771072808684853800,2.140853759765625,-0.23821958899497986,-0.007723161485046148,0.24101589620113373
1771072808694795000,2.150794921875,-0.22969746589660645,-0.04181159660220146,0.21758009493350983
1771072808704736500,2.160736572265625,-0.22011010348796844,-0.05566002428531647,0.22503694891929626
1771072808714677800,2.170677734375,-0.21478378772735596,-0.0684431865811348,0.2324937880039215
1771072808724619300,2.180619384765625,-0.21052272617816925,-0.08335687965154648,0.23462431132793427
1771072808734560500,2.190560546875,-0.21158799529075623,-0.08761793375015259,0.2516685426235199
1771072808744501800,2.200501708984375,-0.20732693374156952,-0.0727042406797409,0.2878875136375427
1771072808754443300,2.210443359375,-0.18708692491054535,-0.04500738903880119,0.34754225611686707
1771072808764384500,2.220384521484375,-0.15725953876972198,-0.011984216049313545,0.435959130525589
1771072808774326000,2.230325927734375,-0.13169321417808533,0.015712639316916466,0.5339633822441101
1771072808784267300,2.240267333984375,-0.11571425944566727,0.01784316636621952,0.6191844940185547
1771072808794208500,2.25020849609375,-0.10293109714984894,0.00612526573240757,0.6937529444694519
1771072808804150000,2.26014990234375,-0.09440898895263672,-0.005592633970081806,0.743820309638977
1771072808814091300,2.27009130859375,-0.08801741153001785,-0.01837579719722271,0.7448856234550476
1771072808824032800,2.28003271484375,-0.07949529588222504,-0.04607265070080757,0.7022750377655029
1771072808833974000,2.28997412109375,-0.06351634114980698,-0.056725289672613144,0.6415550112724304
1771072808843915500,2.29991552734375,-0.04008054360747337,-0.04181159660220146,0.5755086541175842
1771072808853856800,2.309856689453125,-0.023036325350403786,-0.026897907257080078,0.508397102355957
1771072808863798000,2.319798095703125,0.0003994738799519837,-0.026897907257080078,0.45619916915893555
1771072808873739500,2.329739501953125,0.03981423005461693,-0.031158961355686188,0.4434159994125366
1771072808883680800,2.3396806640625,0.08242477476596832,-0.04500738903880119,0.46046021580696106
1771072808893622300,2.349622314453125,0.10799109935760498,-0.08016108721494675,0.4828307330608368
1771072808903563500,2.3595634765625,0.11331742256879807,-0.09507478028535843,0.5041360259056091
1771072808913504800,2.3695048828125,0.10799109935760498,-0.09507478028535843,0.5094623565673828
1771072808923446300,2.3794462890625,0.09201214462518692,-0.10253162682056427,0.481765478849411
1771072808933387500,2.389387451171875,0.07709845900535583,-0.11744531989097595,0.41891491413116455
1771072808943329000,2.3993291015625,0.07603318989276886,-0.12170637398958206,0.3358243703842163
1771072808953270300,2.409270263671875,0.09840372949838638,-0.10466215014457703,0.2474074810743332
1771072808963211500,2.41921142578125,0.1346226930618286,-0.07909582555294037,0.17496955394744873
1771072808993035800,2.449035888671875,0.20919114351272583,0.10626004636287689,0.11638005077838898
1771072809002977000,2.45897705078125,0.22197431325912476,0.1765674501657486,0.10892320424318314
1771072809022859800,2.47885986328125,0.2581932842731476,0.30546435713768005,0.07696529477834702
1771072809032801000,2.488801025390625,0.28375959396362305,0.3448790907859802,0.031158961355686188
1771072809042742500,2.498742431640625,0.3082606792449951,0.3491401672363281,-0.035952646285295486
1771072809052683800,2.508683837890625,0.32956594228744507,0.3320959508419037,-0.09241162240505219
1771072809062625300,2.518625244140625,0.34447962045669556,0.2905506491661072,-0.12330426275730133
1771072809072566500,2.52856640625,0.35513225197792053,0.22450430691242218,-0.13502216339111328
1771072809082507800,2.5385078125,0.3647196292877197,0.1573926955461502,-0.13289164006710052
1771072809092449300,2.54844921875,0.3743070065975189,0.08921582996845245,-0.11478215456008911
1771072809102390500,2.558390625,0.3892207145690918,0.03382211923599243,-0.0870852991938591
1771072809112332000,2.56833203125,0.40626493096351624,0.003994738683104515,-0.06684529036283493
1771072809122273300,2.578273193359375,0.4222438633441925,-0.023702116683125496,-0.06471476703882217
1771072809132214800,2.58821484375,0.43396177887916565,-0.0492684431374073,-0.07643266767263412
1771072809142156000,2.598156005859375,0.4446144104003906,-0.0822916179895401,-0.08815056830644608
1771072809152097300,2.60809716796875,0.4605933725833893,-0.08335687965154648,-0.08602003753185272
1771072809162038800,2.618038818359375,0.4978775978088379,-0.016245270147919655,-0.06578002870082855
1771072809171980000,2.62797998046875,0.5340965390205383,0.19893798232078552,0.0034621069207787514
1771072809181921500,2.637921630859375,0.5532712936401367,0.47058022022247314,0.08548741042613983
1771072809191862800,2.64786279296875,0.5298355221748352,0.663392961025238,0.12277163565158844
1771072809201804000,2.657803955078125,0.46272388100624084,0.6825676560401917,0.09400951862335205
1771072809211745500,2.66774560546875,0.3711112141609192,0.5685844421386719,0.008788425475358963
1771072809221686800,2.677686767578125,0.2635195851325989,0.3704454302787781,-0.1201084777712822
1771072809231628300,2.687628173828125,0.15805849432945251,0.11797794699668884,-0.2575274705886841
1771072809241569500,2.697569580078125,0.07283740490674973,-0.12596742808818817,-0.3555317521095276
1771072809251511000,2.707510986328125,0.025965800508856773,-0.30067065358161926,-0.38109806180000305
1771072809261452300,2.717452392578125,0.025965800508856773,-0.39441385865211487,-0.3225085735321045
1771072809271393500,2.7273935546875,0.07283740490674973,-0.4295675754547119,-0.18295903503894806
1771072809281335000,2.7373349609375,0.15805849432945251,-0.4103928208351135,0.020506324246525764
1771072809291276300,2.7472763671875,0.2539322078227997,-0.3454117476940155,0.24314641952514648
1771072809301217800,2.7572177734375,0.3189133107662201,-0.23142851889133453,0.4402202069759369
1771072809311159000,2.767158935546875,0.350871205329895,-0.08016108721494675,0.5861613154411316
1771072809321100300,2.777100341796875,0.3700459599494934,0.07856319099664688,0.6617950201034546
1771072809331041800,2.787041748046875,0.3849596381187439,0.2138516753911972,0.659664511680603
1771072809340983000,2.796983154296875,0.39561229944229126,0.28309381008148193,0.5787044763565063
1771072809350924500,2.806924560546875,0.40946072340011597,0.28202855587005615,0.45193809270858765
1771072809360865800,2.81686572265625,0.4233091473579407,0.24580958485603333,0.33369383215904236
1771072809370807300,2.826807373046875,0.4307659864425659,0.20213377475738525,0.2474074810743332
1771072809380748500,2.83674853515625,0.4222438633441925,0.11797794699668884,0.18668745458126068
1771072809390689800,2.846689697265625,0.3945470154285431,0.0007989477599039674,0.13662005960941315
1771072809400631300,2.85663134765625,0.3572627902030945,-0.10146636515855789,0.08548741042613983
1771072809410572500,2.866572509765625,0.30719539523124695,-0.17070849239826202,0.03009369783103466
1771072809420514000,2.87651416015625,0.2432795912027359,-0.19840535521507263,-0.030626330524683
1771072809430455300,2.886455322265625,0.19001640379428864,-0.18029586970806122,-0.09028109163045883
1771072809440396500,2.896396484375,0.15805849432945251,-0.12064110487699509,-0.138217955827713
1771072809450338000,2.906338134765625,0.14207953214645386,-0.03755054250359535,-0.17443692684173584
1771072809460279300,2.916279296875,0.12929637730121613,0.02636527456343174,-0.204264298081398
1771072809470220800,2.926220703125,0.12183953076601028,0.0913463607430458,-0.20639483630657196
1771072809480162000,2.936162109375,0.12077426165342331,0.17017586529254913,-0.17869797348976135
1771072809490103300,2.946103271484375,0.11438268423080444,0.23622220754623413,-0.1478053331375122
1771072809500044800,2.956044921875,0.10799109935760498,0.280963271856308,-0.13076111674308777
1771072809509986000,2.965986083984375,0.11331742256879807,0.2905506491661072,-0.11904320865869522
1771072809519927600,2.975927490234375,0.12397005409002304,0.28628960251808167,-0.10306425392627716
1771072809529868800,2.985868896484375,0.1303616315126419,0.29587697982788086,-0.08282424509525299
1771072809539810300,2.995810302734375,0.1303616315126419,0.318247526884079,-0.0636495053768158
1771072809549751600,3.00575146484375,0.1303616315126419,0.3225085735321045,-0.05193160101771355
1771072809559692800,3.01569287109375,0.13142690062522888,0.29161593317985535,-0.044474758207798004
1771072809569634300,3.02563427734375,0.1356879621744156,0.2575274705886841,-0.028495801612734795
1771072809579575600,3.035575439453125,0.1399490088224411,0.24154852330684662,0.0002663159102667123
1771072809589517000,3.04551708984375,0.13249216973781586,0.22983063757419586,0.026897907257080078
1771072809599458300,3.055458251953125,0.11757847666740417,0.20746009051799774,0.040746334940195084
1771072809609399600,3.065399658203125,0.10266478359699249,0.16804534196853638,0.03861580789089203
1771072809619341000,3.075341064453125,0.0930774137377739,0.11904320865869522,0.0141147430986166
1771072809629282300,3.0852822265625,0.08775109052658081,0.048735812306404114,-0.03808317333459854
1771072809639223800,3.095223876953125,0.08881635963916779,-0.02263685315847397,-0.10519478470087051
1771072809649165000,3.1051650390625,0.07496792823076248,-0.06737792491912842,-0.17337165772914886
1771072809659106600,3.1151064453125,0.03448791056871414,-0.08122635632753372,-0.22450430691242218
1771072809669047800,3.1250478515625,-0.01771000772714615,-0.05033370852470398,-0.2564622163772583
1771072809678989000,3.134989013671875,-0.06990792602300644,-0.008788425475358963,-0.280963271856308
1771072809688930600,3.1449306640625,-0.11038794368505478,0.00612526573240757,-0.2980075180530548
1771072809698871800,3.154871826171875,-0.12956269085407257,0.003994738683104515,-0.31079065799713135
1771072809708813300,3.164813232421875,-0.12317110598087311,-0.02583264373242855,-0.31931278109550476
1771072809718754600,3.174754638671875,-0.10186583548784256,-0.07909582555294037,-0.32996541261672974
1771072809728695800,3.18469580078125,-0.06777740269899368,-0.14088112115859985,-0.34381383657455444
1771072809738637300,3.19463720703125,-0.03262370079755783,-0.18242639303207397,-0.3502054214477539
1771072809748578600,3.20457861328125,-0.003861580742523074,-0.1952095627784729,-0.3320959508419037
1771072809758520000,3.21452001953125,0.004660528618842363,-0.18029586970806122,-0.29161593317985535
1771072809768461300,3.22446142578125,-0.013448953628540039,-0.16005586087703705,-0.24474431574344635
1771072809778402800,3.23440283203125,-0.050733182579278946,-0.15046848356723785,-0.21172115206718445
1771072809788344000,3.244343994140625,-0.09867004305124283,-0.15046848356723785,-0.18722008168697357
1771072809798285300,3.254285400390625,-0.1561942845582962,-0.15579481422901154,-0.17443692684173584
1771072809808226800,3.264226806640625,-0.21584904193878174,-0.18029586970806122,-0.1712411344051361
1771072809818168000,3.27416796875,-0.2680469751358032,-0.228232741355896,-0.17550218105316162
1771072809828109600,3.284109619140625,-0.30852699279785156,-0.2559295892715454,-0.17337165772914886
1771072809838050800,3.29405078125,-0.3394196331501007,-0.2527337968349457,-0.16591481864452362
1771072809847992000,3.303991943359375,-0.3585943877696991,-0.24634221196174622,-0.15952323377132416
1771072809857933600,3.31393359375,-0.3596596419811249,-0.2324937880039215,-0.15632744133472443
1771072809867874800,3.323874755859375,-0.3436806797981262,-0.21758009493350983,-0.15419691801071167
1771072809877816300,3.33381640625,-0.3117227852344513,-0.16325165331363678,-0.1392832249403
1771072809887757600,3.343757568359375,-0.25845959782600403,-0.05139897018671036,-0.08921582996845245
1771072809897698800,3.35369873046875,-0.212653249502182,0.02210422046482563,-0.024234747514128685
1771072809907640300,3.363640380859375,-0.19241324067115784,0.007190529722720385,0.013049479573965073
1771072809917581600,3.37358154296875,-0.20093534886837006,-0.05459476262331009,-0.0050600022077560425
1771072809927523000,3.383523193359375,-0.23076273500919342,-0.14620743691921234,-0.08388951420783997
1771072809937464300,3.39346435546875,-0.2840259075164795,-0.2623211741447449,-0.21491694450378418
1771072809947405800,3.40340576171875,-0.36179015040397644,-0.3784348964691162,-0.383228600025177
1771072809957347000,3.41334716796875,-0.44594597816467285,-0.45726442337036133,-0.5600623488426208
1771072809967288300,3.423288330078125,-0.5066660046577454,-0.481765478849411,-0.7060034871101379
1771072809977229800,3.433229736328125,-0.5407544374465942,-0.4444812536239624,-0.7720498442649841
1771072809987171000,3.443171142578125,-0.5673860311508179,-0.349672794342041,-0.7560708522796631
1771072809997112600,3.453112548828125,-0.5865607857704163,-0.23462431132793427,-0.6676539778709412
1771072810007053800,3.4630537109375,-0.5865607857704163,-0.12809795141220093,-0.5153213143348694
1771072810016995000,3.4729951171875,-0.5609944462776184,-0.020506324246525764,-0.3278348743915558
1771072810026936600,3.4829365234375,-0.5077312588691711,0.08069372177124023,-0.14247901737689972
1771072810036877800,3.4928779296875,-0.4395544230937958,0.1392832249403,0.016245270147919655
1771072810046819300,3.5028193359375,-0.37563860416412354,0.13715268671512604,0.13342426717281342
1771072810056760600,3.512760498046875,-0.33196279406547546,0.09241162240505219,0.20799273252487183
1771072810066702000,3.5227021484375,-0.30107012391090393,0.02636527456343174,0.25060325860977173
1771072810076643300,3.532643310546875,-0.2744385600090027,-0.05459476262331009,0.27723485231399536
1771072810086584600,3.54258447265625,-0.2541985511779785,-0.1387505829334259,0.2942790687084198
1771072810096526000,3.552526123046875,-0.25206801295280457,-0.2005358785390854,0.29214856028556824
1771072810106467300,3.56246728515625,-0.2637858986854553,-0.2239716798067093,0.2601906359195709
1771072810116408800,3.572408935546875,-0.28189539909362793,-0.21758009493350983,0.20373167097568512
1771072810126350000,3.58235009765625,-0.30426591634750366,-0.18349166214466095,0.13235901296138763
1771072810136291300,3.592291259765625,-0.31917962431907654,-0.10892320424318314,0.06205160543322563
1771072810146232800,3.60223291015625,-0.336223840713501,-0.019441060721874237,0.013049479573965073
1771072810156174000,3.612174072265625,-0.35220280289649963,0.0540621280670166,-0.003994738683104515
1771072810166115600,3.622115478515625,-0.36072489619255066,0.09028109163045883,0.015180006623268127
1771072810176056800,3.632056884765625,-0.3575291037559509,0.10626004636287689,0.06737792491912842
1771072810185998300,3.641998291015625,-0.3404848873615265,0.1296958476305008,0.14620743691921234
1771072810195939600,3.651939697265625,-0.32237541675567627,0.14567480981349945,0.21118851006031036
1771072810205880800,3.661880859375,-0.30107012391090393,0.14141374826431274,0.23995064198970795
1771072810215822300,3.671822265625,-0.279764860868454,0.14247901737689972,0.23888537287712097
1771072810225763600,3.681763671875,-0.26165539026260376,0.15952323377132416,0.21971063315868378
1771072810245646300,3.701646240234375,-0.22117535769939423,0.1765674501657486,0.13555480539798737
1771072810255587600,3.711587646484375,-0.18815219402313232,0.19254639744758606,0.09720530360937119
1771072810265529000,3.721529052734375,-0.15832480788230896,0.21065588295459747,0.06737792491912842
1771072810275470300,3.73147021484375,-0.13488900661468506,0.21065588295459747,0.04287686198949814
1771072810285411800,3.741411865234375,-0.11784479022026062,0.1904158741235733,0.03968106955289841
1771072810295353000,3.75135302734375,-0.09014793485403061,0.16378428041934967,0.056725289672613144
1771072810305294300,3.76129443359375,-0.04860265180468559,0.14567480981349945,0.08122635632753372
1771072810325177000,3.781177001953125,0.04620581120252609,0.10412952303886414,0.11638005077838898
1771072810335118600,3.79111865234375,0.07816372066736221,0.05193160101771355,0.09507478028535843
1771072810345059800,3.801059814453125,0.09946899116039276,0.0018642114009708166,0.048203181475400925
1771072810355001300,3.81100146484375,0.10266478359699249,-0.03861580789089203,-0.019973693415522575
1771072810374883800,3.8308837890625,0.08775109052658081,-0.105727419257164,-0.1861548274755478
1771072810384825300,3.840825439453125,0.07283740490674973,-0.11851058155298233,-0.2553969621658325
1771072810394766600,3.8507666015625,0.0504668653011322,-0.1153147891163826,-0.29268118739128113
1771072810404708000,3.8607080078125,0.03235738351941109,-0.08868319541215897,-0.28735485672950745
1771072810414649300,3.8706494140625,0.03448791056871414,-0.03328948840498924,-0.23515695333480835
1771072810424590600,3.880590576171875,0.05792371183633804,0.044474758207798004,-0.14993585646152496
1771072810434532000,3.890531982421875,0.10266478359699249,0.15632744133472443,-0.048735812306404114
1771072810444473300,3.900473388671875,0.1687111258506775,0.28309381008148193,0.04287686198949814
1771072810454414800,3.910414794921875,0.2336922138929367,0.383228600025177,0.09507478028535843
1771072810464356000,3.920356201171875,0.28908592462539673,0.45140546560287476,0.10998847335577011
1771072810484238800,3.94023876953125,0.4041343927383423,0.4641886353492737,0.07590003311634064
1771072810494180000,3.95018017578125,0.4510059952735901,0.3821633458137512,0.040746334940195084
1771072810504121600,3.96012158203125,0.48083338141441345,0.25859275460243225,0.02157158963382244
1771072810514062800,3.970062744140625,0.49042075872421265,0.13502216339111328,0.026897907257080078
1771072810524004400,3.98000439453125,0.47976812720298767,0.03488738462328911,0.05566002428531647
1771072810533945600,3.989945556640625,0.46165862679481506,-0.006657897960394621,0.11105373501777649
1771072810543886800,3.999886962890625,0.43502703309059143,0.04980107396841049,0.1760348230600357
1771072810553828400,4.009828369140625,0.3945470154285431,0.16378428041934967,0.23355905711650848
1771072810563769600,4.01976953125,0.3604585826396942,0.21491694450378418,0.2420811653137207
1771072810573711000,4.029711181640625,0.3380880355834961,0.16591481864452362,0.1813611388206482
1771072810583652400,4.03965234375,0.3135869801044464,0.027430538088083267,0.052464235574007034
1771072810593593900,4.04959375,0.2677806615829468,-0.16857796907424927,-0.1243695318698883
1771072810603535000,4.05953515625,0.22303956747055054,-0.3645864725112915,-0.32463908195495605
1771072810613476400,4.069476318359375,0.18575534224510193,-0.508397102355957,-0.5185170769691467
1771072810623417900,4.07941796875,0.13888375461101532,-0.596813976764679,-0.6687192320823669
1771072810633359000,4.089359130859375,0.08029424399137497,-0.6266413331031799,-0.7443529963493347
1771072810643300600,4.099300537109375,0.03768370300531387,-0.6074665784835815,-0.7315698266029358
1771072810653241900,4.109241943359375,0.03129211813211441,-0.5478118062019348,-0.6122602820396423
1771072810663183000,4.11918310546875,0.061119500547647476,-0.42317599058151245,-0.40027281641960144
1771072810673124600,4.12912451171875,0.12397005409002304,-0.20373167097568512,-0.13289164006710052
1771072810693007400,4.14900732421875,0.296542763710022,0.26391905546188354,0.3081275224685669
1771072810702948600,4.158948486328125,0.3572627902030945,0.3352917432785034,0.3645864725112915
1771072810712889900,4.168889892578125,0.3934817612171173,0.2990727722644806,0.3081275224685669
1771072810722831400,4.178831298828125,0.4137217700481415,0.1957421898841858,0.16964323818683624
1771072810732772600,4.188772705078125,0.40946072340011597,0.0540621280670166,-0.008255792781710625
1771072810742714000,4.198714111328125,0.37643754482269287,-0.07909582555294037,-0.18189376592636108
1771072810752655400,4.2086552734375,0.3221091032028198,-0.15153375267982483,-0.3129211962223053
1771072810762596900,4.218596923828125,0.2635195851325989,-0.15579481422901154,-0.383228600025177
1771072810772538000,4.2285380859375,0.19853851199150085,-0.12170637398958206,-0.40346860885620117
1771072810782479400,4.238479248046875,0.13142690062522888,-0.07909582555294037,-0.3821633458137512
1771072810792420900,4.2484208984375,0.07070687413215637,-0.06205160543322563,-0.33848753571510315
1771072810802362000,4.258362060546875,0.016378428786993027,-0.08122635632753372,-0.2894853949546814
1771072810812303600,4.2683037109375,-0.004926844500005245,-0.10359688848257065,-0.23941799998283386
1771072810822244900,4.278244873046875,0.01957421936094761,-0.10892320424318314,-0.17443692684173584
1771072810832186000,4.28818603515625,0.07070687413215637,-0.10040109604597092,-0.08602003753185272
1771072810842127600,4.298127685546875,0.14207953214645386,-0.06631266325712204,0.029028434306383133
1771072810852068900,4.30806884765625,0.21451745927333832,-0.017310533672571182,0.15366427600383759
1771072810862010400,4.31801025390625,0.27310696244239807,0.012516847811639309,0.2527337968349457
1771072810871951600,4.32795166015625,0.30719539523124695,0.01784316636621952,0.3091927766799927
1771072810881893000,4.33789306640625,0.3285006880760193,0.0007989477599039674,0.3273022472858429
1771072810891834400,4.34783447265625,0.3434143662452698,-0.02583264373242855,0.31984540820121765
1771072810901775600,4.357775634765625,0.331696480512619,-0.05459476262331009,0.3028011918067932
1771072810911717000,4.367717041015625,0.2816290855407715,-0.06311687082052231,0.284691721200943
1771072810931600000,4.387599853515625,0.1399490088224411,-0.056725289672613144,0.22290641069412231
1771072810941541000,4.397541015625,0.10373004525899887,-0.04607265070080757,0.19414429366588593
1771072810951482400,4.407482421875,0.09520793706178665,-0.027963170781731606,0.18668745458126068
1771072810961424000,4.417423828125,0.09520793706178665,-0.017310533672571182,0.2005358785390854
1771072810971365000,4.427365234375,0.09094688296318054,-0.03328948840498924,0.21971063315868378
1771072810981306600,4.437306640625,0.08135951310396194,-0.06950845569372177,0.237820103764534
1771072810991248000,4.447247802734375,0.05579318478703499,-0.12064110487699509,0.24101589620113373
1771072811001189400,4.457189453125,0.01318263728171587,-0.17816534638404846,0.228232741355896
1771072811011130600,4.467130615234375,-0.050733182579278946,-0.20799273252487183,0.20160114765167236
1771072811021072000,4.47707177734375,-0.11784479022026062,-0.2005358785390854,0.15472954511642456
1771072811031013400,4.487013427734375,-0.16791218519210815,-0.18029586970806122,0.10466215014457703
1771072811040954600,4.49695458984375,-0.19987009465694427,-0.15579481422901154,0.06737792491912842
1771072811050896100,4.506896240234375,-0.21584904193878174,-0.14514216780662537,0.03328948840498924
1771072811060837400,4.51683740234375,-0.2169143110513687,-0.16005586087703705,0.0002663159102667123
1771072811070778600,4.526778564453125,-0.20626167953014374,-0.17923060059547424,-0.01784316636621952
1771072811090661400,4.546661376953125,-0.22117535769939423,-0.1525990217924118,0.0034621069207787514
1771072811100603000,4.556602783203125,-0.24461115896701813,-0.14727269113063812,0.03861580789089203
1771072811110544100,4.566544189453125,-0.2595248520374298,-0.1430116444826126,0.0727042406797409
1771072811120485400,4.5764853515625,-0.2595248520374298,-0.15153375267982483,0.09507478028535843
1771072811130427000,4.586427001953125,-0.2563290596008301,-0.18455693125724792,0.0918789878487587
1771072811140368100,4.5963681640625,-0.2563290596008301,-0.23036326467990875,0.07163897901773453
1771072811150309400,4.606309326171875,-0.2595248520374298,-0.25806012749671936,0.056725289672613144
1771072811160250600,4.616250732421875,-0.2637858986854553,-0.2569948434829712,0.056725289672613144
1771072811170192100,4.626192138671875,-0.2605901062488556,-0.23675484955310822,0.06311687082052231
1771072811180133400,4.63613330078125,-0.2510027587413788,-0.20799273252487183,0.060986343771219254
1771072811190074600,4.64607470703125,-0.32770171761512756,-0.04287686198949814,-0.32676962018013
1771072811200016000,4.656015869140625,-0.32344067096710205,-0.06418213248252869,-0.5643234252929688
1771072811209957000,4.66595703125,-0.24354590475559235,-0.15366427600383759,-0.4311654567718506
1771072811219898600,4.675898681640625,-0.23289325833320618,-0.1664474457502365,-0.20213377475738525
1771072811229840000,4.68583984375,-0.2733732759952545,-0.13662005960941315,0.03435475379228592
1771072811239781000,4.695781005859375,-0.30107012391090393,-0.08548741042613983,0.21971063315868378
1771072811249722400,4.705722412109375,-0.28189539909362793,-0.11105373501777649,0.3219759464263916
1771072811259663600,4.71566357421875,-0.2595248520374298,-0.24527695775032043,0.30493173003196716
1771072811269605000,4.725605224609375,-0.27230802178382874,-0.4338286221027374,0.1771000772714615
1771072811279546400,4.73554638671875,-0.3074617087841034,-0.5669865608215332,-0.015712639316916466
1771072811289487600,4.745487548828125,-0.3543333113193512,-0.6042708158493042,-0.22237378358840942
1771072811299428900,4.755428955078125,-0.4150533378124237,-0.5669865608215332,-0.4024033546447754
1771072811319311600,4.7753115234375,-0.5460807681083679,-0.2569948434829712,-0.5973466038703918
1771072811329252900,4.7852529296875,-0.5886912941932678,-0.08548741042613983,-0.5952160358428955
1771072811349135400,4.80513525390625,-0.5652555227279663,0.11797794699668884,-0.4247738718986511
1771072811359076900,4.815076904296875,-0.5141228437423706,0.1712411344051361,-0.2575274705886841
1771072811369018000,4.82501806640625,-0.47364285588264465,0.1808284968137741,-0.07004108279943466
1771072811378959400,4.83495947265625,-0.45979443192481995,0.1531316488981247,0.08122635632753372
1771072811388900600,4.844900634765625,-0.4619249403476715,0.09773793816566467,0.1664474457502365
1771072811398841900,4.854841796875,-0.4608596861362457,0.002929474925622344,0.16857796907424927
1771072811408783400,4.864783447265625,-0.44168493151664734,-0.11744531989097595,0.08974846452474594
1771072811418724600,4.874724609375,-0.40333545207977295,-0.2186453640460968,-0.04660528525710106
1771072811428665900,4.884665771484375,-0.3543333113193512,-0.27190855145454407,-0.18722008168697357
1771072811438607000,4.894607177734375,-0.3213101327419281,-0.2665822207927704,-0.2852243483066559
1771072811448548400,4.90454833984375,-0.3159838318824768,-0.228232741355896,-0.3320959508419037
1771072811458489900,4.91448974609375,-0.31811434030532837,-0.1675127148628235,-0.31931278109550476
1771072811468431000,4.92443115234375,-0.3074617087841034,-0.09933583438396454,-0.2522011697292328
1771072811478372400,4.934372314453125,-0.279764860868454,-0.03328948840498924,-0.14247901737689972
1771072811488313600,4.944313720703125,-0.24354590475559235,0.02636527456343174,-0.012516847811639309
1771072811508196400,4.9641962890625,-0.20093534886837006,0.08602003753185272,0.15579481422901154
1771072811518137600,4.9741376953125,-0.19987009465694427,0.07856319099664688,0.15472954511642456
1771072811528079000,4.9840791015625,-0.20519641041755676,0.07110634446144104,0.11957584321498871
1771072811547961600,5.003961669921875,-0.26165539026260376,0.10412952303886414,-0.018908429890871048
1771072811557903000,5.013903076171875,-0.29574382305145264,0.1296958476305008,-0.09986846894025803
1771072811567844400,5.02384423828125,-0.3106575012207031,0.15206637978553772,-0.17869797348976135
1771072811577785900,5.033785888671875,-0.2978743314743042,0.19467693567276,-0.23622220754623413
1771072811587727000,5.04372705078125,-0.2595248520374298,0.25433170795440674,-0.2468748539686203
1771072811597668400,5.05366845703125,-0.20519641041755676,0.3118559420108795,-0.21278640627861023
1771072811607609900,5.06360986328125,-0.14447638392448425,0.3640538454055786,-0.1478053331375122
1771072811617551000,5.073551025390625,-0.08801741153001785,0.41518649458885193,-0.07430213689804077
1771072811627492600,5.08349267578125,-0.04114580899477005,0.4546012580394745,-0.010386320762336254
1771072811647375400,5.103375244140625,-0.005992108024656773,0.4673844277858734,0.027963170781731606
1771072811657316600,5.113316650390625,0.0153131652623415,0.41944757103919983,0.0023968431632965803
1771072811667257900,5.1232578125,0.0366184376180172,0.3502054214477539,-0.035952646285295486
1771072811677199400,5.133199462890625,0.05259739235043526,0.2798980176448822,-0.0636495053768158
1771072811687140600,5.143140625,0.06751108169555664,0.22556957602500916,-0.06471476703882217
1771072811697082000,5.15308203125,0.07816372066736221,0.1957421898841858,-0.04234423115849495
1771072811707023400,5.1630234375,0.08455529808998108,0.17976324260234833,-0.010386320762336254
1771072811716964600,5.172964599609375,0.08881635963916779,0.17017586529254913,0.010918952524662018
1771072811726906000,5.182906005859375,0.09840372949838638,0.15845796465873718,0.02263685315847397
1771072811736847400,5.192847412109375,0.1165132075548172,0.15100112557411194,0.0141147430986166
1771072811746788900,5.202788818359375,0.13781848549842834,0.15206637978553772,-0.007190529722720385
1771072811756730000,5.212730224609375,0.15699322521686554,0.17976324260234833,-0.030626330524683
1771072811766671600,5.222671630859375,0.17510271072387695,0.23622220754623413,-0.03488738462328911
1771072811776612900,5.23261279296875,0.19427745044231415,0.29694223403930664,-0.015712639316916466
1771072811786554000,5.24255419921875,0.2102564126253128,0.33422645926475525,0.020506324246525764
1771072811796495600,5.25249560546875,0.22943115234375,0.3416832983493805,0.06524740159511566
1771072811806436900,5.262436767578125,0.24434484541416168,0.32676962018013,0.11105373501777649
1771072811816378400,5.27237841796875,0.2624543309211731,0.2948117256164551,0.15153375267982483
1771072811826319600,5.282319580078125,0.28269433975219727,0.25007063150405884,0.1909485012292862
1771072811836260900,5.2922607421875,0.30293434858322144,0.18935060501098633,0.228232741355896
1771072811846202400,5.302202392578125,0.32530489563941956,0.10839057713747025,0.2665822207927704
1771072811856143600,5.3121435546875,0.34980595111846924,0.029561065137386322,0.3134538233280182
1771072811866085000,5.322085205078125,0.37217649817466736,-0.02583264373242855,0.37630438804626465
1771072811876026400,5.3320263671875,0.39561229944229126,-0.02583264373242855,0.46046021580696106
1771072811885967600,5.341967529296875,0.40200385451316833,0.0732368752360344,0.5659213066101074
1771072811895909000,5.3519091796875,0.3988080620765686,0.17337165772914886,0.6479465961456299
1771072811905850400,5.361850341796875,0.3934817612171173,0.2000032514333725,0.6532729268074036
1771072811915792000,5.3717919921875,0.3753722608089447,0.1435442715883255,0.5637907981872559
1771072811925733000,5.381733154296875,0.3327617347240448,0.04554001986980438,0.39121806621551514
1771072811935674600,5.391674560546875,0.2677806615829468,-0.09400951862335205,0.1387505829334259
1771072811945616000,5.401615966796875,0.2006690353155136,-0.24314641952514648,-0.17017586529254913
1771072811955557000,5.41155712890625,0.1495363861322403,-0.3123885691165924,-0.46099284291267395
1771072811965498600,5.42149853515625,0.10586057603359222,-0.28682222962379456,-0.6644582152366638
1771072811975440000,5.43143994140625,0.06857634335756302,-0.20586219429969788,-0.7422224283218384
1771072811985381400,5.44138134765625,0.06538055837154388,-0.1291632205247879,-0.6793718934059143
1771072811995322600,5.451322509765625,0.12503531575202942,-0.040746334940195084,-0.46525388956069946
1771072812005264000,5.461263916015625,0.21771325170993805,0.09241162240505219,-0.1478053331375122
1771072812015205400,5.471205322265625,0.2986733019351959,0.2277000993490219,0.16857796907424927
1771072812025146600,5.481146728515625,0.33915331959724426,0.2980075180530548,0.37204334139823914
1771072812035088100,5.491088134765625,0.35832804441452026,0.25433170795440674,0.4199801981449127
1771072812045029400,5.501029296875,0.3753722608089447,0.0774979293346405,0.32517173886299133
1771072812054970600,5.510970703125,0.3753722608089447,-0.14514216780662537,0.12809795141220093
1771072812064912100,5.520912109375,0.34874069690704346,-0.31025803089141846,-0.10732531547546387
1771072812074853400,5.530853271484375,0.2986733019351959,-0.34221595525741577,-0.3022685647010803
1771072812084794600,5.540794677734375,0.21877852082252502,-0.27297380566596985,-0.41412124037742615
1771072812094736000,5.55073583984375,0.13675321638584137,-0.12064110487699509,-0.43329599499702454
1771072812104677000,5.560677001953125,0.07922898232936859,0.05938844755291939,-0.38962018489837646
1771072812114618600,5.57061865234375,0.05259739235043526,0.204264298081398,-0.33316120505332947
1771072812124560000,5.580559814453125,0.05792371183633804,0.280963271856308,-0.2884201407432556
1771072812134501000,5.590501220703125,0.09094688296318054,0.30013802647590637,-0.2553969621658325
1771072812144442400,5.6004423828125,0.13249216973781586,0.2841590642929077,-0.22556957602500916
1771072812154383600,5.610383544921875,0.17829850316047668,0.24048326909542084,-0.1904158741235733
1771072812164325000,5.6203251953125,0.21877852082252502,0.19893798232078552,-0.15206637978553772
1771072812174266400,5.630266357421875,0.24221432209014893,0.21065588295459747,-0.12223900109529495
1771072812184207600,5.64020751953125,0.2571280002593994,0.27350643277168274,-0.0870852991938591
1771072812194148900,5.65014892578125,0.26884591579437256,0.3448790907859802,-0.04767054691910744
1771072812204090400,5.66009033203125,0.27310696244239807,0.4077296555042267,-0.016777902841567993
1771072812214031600,5.670031494140625,0.2635195851325989,0.47058022022247314,-0.02210422046482563
1771072812223972900,5.679972900390625,0.23262694478034973,0.4492749273777008,-0.08921582996845245
1771072812233914000,5.6899140625,0.18042902648448944,0.31505173444747925,-0.1861548274755478
1771072812243855400,5.69985546875,0.11225215345621109,0.13608743250370026,-0.2575274705886841
1771072812253796900,5.709796875,0.040879491716623306,-0.040746334940195084,-0.27350643277168274
1771072812263738000,5.719738037109375,-0.008122635073959827,-0.17390428483486176,-0.22237378358840942
1771072812273679400,5.729679443359375,-0.035819489508867264,-0.2665822207927704,-0.138217955827713
1771072812283620600,5.73962060546875,-0.04647212475538254,-0.3741738498210907,-0.05193160101771355
1771072812293561900,5.749561767578125,-0.050733182579278946,-0.47004759311676025,0.027963170781731606
1771072812303503400,5.75950341796875,-0.06138581782579422,-0.5307676196098328,0.08016108721494675
1771072812313444600,5.769444580078125,-0.09121319651603699,-0.546746551990509,0.07803056389093399
1771072812323385900,5.7793857421875,-0.14554163813591003,-0.500940203666687,0.027963170781731606
1771072812333327000,5.7893271484375,-0.203065887093544,-0.41891491413116455,-0.016777902841567993
1771072812343268400,5.799268310546875,-0.29893961548805237,-0.3613906800746918,-0.021038956940174103
1771072812353209900,5.8092099609375,-0.4299670457839966,-0.39015281200408936,-0.06151897460222244
1771072812363151000,5.819151123046875,-0.47790390253067017,-0.4199801981449127,-0.10519478470087051
1771072812373092400,5.82909228515625,-0.4523375630378723,-0.3400854170322418,-0.13502216339111328
1771072812383033600,5.83903369140625,-0.4107922911643982,-0.25912538170814514,-0.15632744133472443
1771072812392975000,5.84897509765625,-0.3767038583755493,-0.237820103764534,-0.138217955827713
1771072812402916400,5.858916259765625,-0.3351585865020752,-0.2239716798067093,-0.05512739345431328
1771072812412857600,5.868857666015625,-0.25739431381225586,-0.1760348230600357,0.06524740159511566
1771072812422798800,5.878798828125,-0.14873743057250977,-0.10146636515855789,0.17070849239826202
1771072812432740000,5.888739990234375,-0.04647212475538254,-0.03009369783103466,0.22077588737010956
1771072812442681600,5.898681640625,0.025965800508856773,-0.016245270147919655,0.2186453640460968
1771072812452622800,5.908622802734375,0.06538055837154388,-0.0684431865811348,0.1898832470178604
1771072812462564000,5.918564208984375,0.05579318478703499,-0.11851058155298233,0.171773761510849
1771072812472505300,5.92850537109375,0.00892158318310976,-0.12383689731359482,0.20160114765167236
1771072812482446600,5.938446533203125,-0.04966791719198227,-0.07803056389093399,0.2655169665813446
1771072812492388000,5.94838818359375,-0.08056056499481201,-0.005592633970081806,0.3326285779476166
1771072812502329300,5.958329345703125,-0.056059498339891434,0.05725792050361633,0.41358861327171326
1771072812512270600,5.9682705078125,0.007856319658458233,0.11904320865869522,0.5030707716941833
1771072812522211800,5.9782119140625,0.07603318989276886,0.23515695333480835,0.5861613154411316
1771072812532153000,5.988153076171875,0.12290479242801666,0.391750693321228,0.651142418384552
1771072812542094600,5.998094482421875,0.12183953076601028,0.43329599499702454,0.6628602743148804
1771072812552035800,6.008035888671875,0.07283740490674973,0.29694223403930664,0.5957486629486084
1771072812561977000,6.01797705078125,0.011052110232412815,0.05512739345431328,0.45087283849716187
1771072812571918600,6.027918701171875,-0.051798444241285324,-0.1952095627784729,0.25806012749671936
1771072812581859800,6.03785986328125,-0.10825742036104202,-0.3826959729194641,0.06631266325712204
1771072812591801000,6.047801025390625,-0.1380847990512848,-0.4306328296661377,-0.0732368752360344
1771072812601742600,6.05774267578125,-0.13915006816387177,-0.33902016282081604,-0.1478053331375122
1771072812611683800,6.067683837890625,-0.1093226820230484,-0.17816534638404846,-0.17976324260234833
1771072812621625300,6.077625244140625,-0.06564687192440033,-0.02583264373242855,-0.18722008168697357
1771072812631566600,6.087566650390625,-0.019840534776449203,0.0774979293346405,-0.17976324260234833
1771072812641507800,6.0975078125,0.004660528618842363,0.15952323377132416,-0.15952323377132416
1771072812651449300,6.107449462890625,0.007856319658458233,0.2671148478984833,-0.1009337306022644
1771072812661390600,6.117390625,-0.008122635073959827,0.39494648575782776,-0.03488738462328911
1771072812671332000,6.12733203125,-0.018775271251797676,0.4737760126590729,0.03755054250359535
1771072812681273300,6.1372734375,0.01850895583629608,0.4269044101238251,0.21012325584888458
1771072812701156000,6.157156005859375,-0.10293109714984894,-0.0141147430986166,0.44128546118736267
1771072812711097300,6.167097412109375,-0.11145320534706116,-0.1344895362854004,0.5115928649902344
1771072812721038800,6.177038818359375,-0.11464899778366089,-0.1675127148628235,0.5552686452865601
1771072812730980000,6.18697998046875,-0.13382373750209808,-0.15046848356723785,0.5371592044830322
1771072812740921600,6.196921630859375,-0.14873743057250977,-0.12596742808818817,0.44661179184913635
1771072812750862800,6.20686279296875,-0.17110797762870789,-0.1483379602432251,0.2623211741447449
1771072812760804000,6.21680419921875,-0.20200061798095703,-0.23142851889133453,-0.03275685757398605
1771072812770745600,6.22674560546875,-0.20093534886837006,-0.31878015398979187,-0.4077296555042267
1771072812780686800,6.236686767578125,-0.20732693374156952,-0.32091066241264343,-0.7464835047721863
1771072812790628400,6.24662841796875,-0.25313326716423035,-0.19414429366588593,-0.9297088384628296
1771072812800569600,6.256569580078125,-0.2786996066570282,0.08282424509525299,-0.8870983123779297
1771072812810510800,6.2665107421875,-0.28509119153022766,0.4066644012928009,-0.6804371476173401
1771072812820452400,6.276452392578125,-0.2786996066570282,0.6335655450820923,-0.3842938542366028
1771072812830393600,6.2863935546875,-0.24248063564300537,0.7592666745185852,-0.07856319099664688
1771072812840335000,6.296335205078125,-0.18176060914993286,0.7677887678146362,0.1952095627784729
1771072812850276400,6.3062763671875,-0.12743216753005981,0.6069339513778687,0.40400123596191406
1771072812860217900,6.3162177734375,-0.12636689841747284,0.3502054214477539,0.5360939502716064
1771072812870159000,6.3261591796875,-0.16897743940353394,0.09028109163045883,0.596813976764679
1771072812880100400,6.336100341796875,-0.19134798645973206,-0.09081372618675232,0.6159886717796326
1771072812890041900,6.346041748046875,-0.15406376123428345,-0.1675127148628235,0.5882918238639832
1771072812899983000,6.355983154296875,-0.08162582665681839,-0.16325165331363678,0.5094623565673828
1771072812909924600,6.365924560546875,-0.003861580742523074,-0.12170637398958206,0.37736964225769043
1771072812919865900,6.375865966796875,0.06538055837154388,-0.07483477145433426,0.22716747224330902
1771072812929807000,6.38580712890625,0.11757847666740417,-0.029028434306383133,0.08868319541215897
1771072812939748600,6.39574853515625,0.1356879621744156,-0.001331579522229731,-0.01784316636621952
1771072812949689900,6.40568994140625,0.13781848549842834,-0.0002663159102667123,-0.08282424509525299
1771072812959631400,6.41563134765625,0.1452753245830536,-0.008788425475358963,-0.110521100461483
1771072812969572600,6.425572509765625,0.1591237634420395,-0.03009369783103466,-0.11584742367267609
1771072812979513900,6.435513916015625,0.17084164917469025,-0.052464235574007034,-0.11478215456008911
1771072812989455400,6.445455322265625,0.17403744161128998,-0.0822916179895401,-0.11265163123607635
1771072812999396600,6.455396728515625,0.1537974327802658,-0.11105373501777649,-0.12223900109529495
1771072813009337900,6.465337890625,0.11864373832941055,-0.1483379602432251,-0.15100112557411194
1771072813019279000,6.475279052734375,0.08775109052658081,-0.18668745458126068,-0.18722008168697357
1771072813029220400,6.485220458984375,0.08455529808998108,-0.1952095627784729,-0.19680745899677277
1771072813039161900,6.495161865234375,0.11118689179420471,-0.12809795141220093,-0.1573926955461502
1771072813049103000,6.50510302734375,0.13355742394924164,0.0007989477599039674,-0.09880319982767105
1771072813059044400,6.51504443359375,0.1346226930618286,0.14993585646152496,-0.044474758207798004
1771072813068985600,6.524985595703125,0.14207953214645386,0.2756369709968567,-0.011451584286987782
1771072813078926800,6.5349267578125,0.17403744161128998,0.3555317521095276,0.001331579522229731
1771072813088868400,6.544868408203125,0.23156169056892395,0.40346860885620117,0.0034621069207787514
1771072813098809600,6.5548095703125,0.30186909437179565,0.40346860885620117,-0.002929474925622344
1771072813108750800,6.564750732421875,0.3668501675128937,0.36618438363075256,-0.015712639316916466
1771072813118692000,6.574692138671875,0.417982816696167,0.3033338189125061,-0.02210422046482563
1771072813128633300,6.58463330078125,0.46165862679481506,0.21598219871520996,-0.00612526573240757
1771072813138574800,6.594574951171875,0.49468180537223816,0.1392832249403,0.0354200154542923
1771072813148516000,6.60451611328125,0.5106607675552368,0.09880319982767105,0.0918789878487587
1771072813158457300,6.614457275390625,0.5000081062316895,0.06258423626422882,0.15472954511642456
1771072813168398600,6.624398681640625,0.4648544192314148,0.027430538088083267,0.23036326467990875
1771072813178340000,6.634340087890625,0.4211786091327667,0.07430213689804077,0.32943278551101685
1771072813188281300,6.64428125,0.38282912969589233,0.25965800881385803,0.4455465078353882
1771072813198222600,6.65422265625,0.3572627902030945,0.47910231351852417,0.5328981280326843
1771072813208163800,6.664163818359375,0.33489224314689636,0.5568665862083435,0.5360939502716064
1771072813218105000,6.67410498046875,0.296542763710022,0.47484126687049866,0.43808966875076294
1771072813228046600,6.684046630859375,0.23049642145633698,0.29268118739128113,0.25486433506011963
1771072813237987800,6.69398779296875,0.1303616315126419,0.05512739345431328,0.020506324246525764
1771072813247929000,6.70392919921875,0.014247900806367397,-0.19734008610248566,-0.20746009051799774
1771072813257870300,6.713870361328125,-0.07736477255821228,-0.35712963342666626,-0.3704454302787781
1771072813267811600,6.7238115234375,-0.14341111481189728,-0.3656517565250397,-0.43223071098327637
1771072813277753000,6.733753173828125,-0.18282587826251984,-0.2697780132293701,-0.4024033546447754
1771072813287694300,6.7436943359375,-0.15299849212169647,-0.13662005960941315,-0.2894853949546814
1771072813307576800,6.763576904296875,0.07709845900535583,0.15952323377132416,0.10359688848257065
1771072813317518300,6.773518310546875,0.20173430442810059,0.3278348743915558,0.2996053993701935
1771072813337400800,6.79340087890625,0.36152383685112,0.46205809712409973,0.4913528561592102
1771072813347342000,6.803342041015625,0.40946072340011597,0.4024033546447754,0.4668518006801605
1771072813367224800,6.823224853515625,0.41585230827331543,0.03488738462328911,0.23036326467990875
1771072813377166000,6.833166015625,0.35513225197792053,-0.25486433506011963,0.06311687082052231
1771072813387107300,6.843107421875,0.2656501233577728,-0.5233107805252075,-0.08815056830644608
1771072813397048600,6.853048583984375,0.18042902648448944,-0.6649908423423767,-0.1904158741235733
1771072813406989800,6.86298974609375,0.10799109935760498,-0.672447681427002,-0.24794010818004608
1771072813416931300,6.872931396484375,0.049401599913835526,-0.6085318326950073,-0.270310640335083
1771072813426872600,6.88287255859375,0.014247900806367397,-0.5158539414405823,-0.2713759243488312
1771072813436813800,6.892813720703125,0.005725792143493891,-0.3890875577926636,-0.25433170795440674
1771072813446755000,6.902755126953125,0.033422645181417465,-0.23142851889133453,-0.2138516753911972
1771072813456696300,6.9126962890625,0.09094688296318054,-0.06524740159511566,-0.138217955827713
1771072813466637800,6.922637939453125,0.15273217856884003,0.08069372177124023,-0.04767054691910744
1771072813476579000,6.9325791015625,0.2059953510761261,0.15952323377132416,0.03009369783103466
1771072813486520300,6.942520263671875,0.2571280002593994,0.17763271927833557,0.09081372618675232
1771072813496461600,6.952461669921875,0.31252172589302063,0.14034847915172577,0.13768532872200012
1771072813506403000,6.962403076171875,0.35300174355506897,0.0732368752360344,0.1664474457502365
1771072813516344300,6.97234423828125,0.3668501675128937,0.018908429890871048,0.1856221854686737
1771072813526285600,6.98228564453125,0.35406699776649475,-0.013049479573965073,0.19734008610248566
1771072813536226800,6.992226806640625,0.31571751832962036,-0.04287686198949814,0.20160114765167236
1771072813546168000,7.00216796875,0.2656501233577728,-0.06737792491912842,0.20586219429969788
1771072813556109600,7.012109619140625,0.23795326054096222,-0.07909582555294037,0.20799273252487183
1771072813566050800,7.02205078125,0.24114905297756195,-0.09081372618675232,0.21118851006031036
1771072813575992000,7.031991943359375,0.26032379269599915,-0.10466215014457703,0.2047969400882721
1771072813585933300,7.041933349609375,0.2667153775691986,-0.12809795141220093,0.17816534638404846
1771072813595874600,7.05187451171875,0.2528669536113739,-0.14407691359519958,0.13022847473621368
1771072813605816000,7.061816162109375,0.2241048365831375,-0.1344895362854004,0.0727042406797409
1771072813615757300,7.07175732421875,0.18149429559707642,-0.10466215014457703,0.0141147430986166
1771072813625698600,7.081698486328125,0.1346226930618286,-0.08122635632753372,-0.04340949282050133
1771072813635639800,7.091639892578125,0.08988162130117416,-0.0918789878487587,-0.09347688406705856
1771072813645581000,7.1015810546875,0.05579318478703499,-0.1387505829334259,-0.1243695318698883
1771072813655522600,7.1115224609375,0.03448791056871414,-0.1898832470178604,-0.12863057851791382
1771072813665463800,7.1214638671875,0.0153131652623415,-0.21758009493350983,-0.11265163123607635
1771072813675405000,7.131405029296875,-0.009187898598611355,-0.22929799556732178,-0.09028109163045883
1771072813685346600,7.1413466796875,-0.030493171885609627,-0.22184115648269653,-0.07856319099664688
1771072813695287800,7.151287841796875,-0.04434159770607948,-0.19734008610248566,-0.07217161357402802
1771072813705229000,7.16122900390625,-0.054994236677885056,-0.16112112998962402,-0.06578002870082855
1771072813715170600,7.171170654296875,-0.0624510794878006,-0.12064110487699509,-0.04767054691910744
1771072813725111800,7.18111181640625,-0.06138581782579422,-0.08655267208814621,-0.02210422046482563
1771072813735053300,7.19105322265625,-0.05712476372718811,-0.056725289672613144,0.011984216049313545
1771072813744994600,7.20099462890625,-0.04647212475538254,-0.031158961355686188,0.03968106955289841
1771072813754935800,7.210935791015625,-0.028362644836306572,-0.015180006623268127,0.04713791608810425
1771072813764877300,7.220877197265625,-0.008122635073959827,-0.02263685315847397,0.031158961355686188
1771072813774818600,7.230818603515625,0.012117373757064342,-0.06205160543322563,0.001331579522229731
1771072813784760000,7.240760009765625,0.024900536984205246,-0.11744531989097595,-0.023169483989477158
1771072813794701300,7.250701416015625,0.01850895583629608,-0.16112112998962402,-0.029561065137386322
1771072813804642800,7.260642822265625,-0.014514217153191566,-0.1856221854686737,-0.018908429890871048
1771072813814584000,7.270583984375,-0.06671213358640671,-0.20160114765167236,-0.013582111336290836
1771072813824525300,7.280525390625,-0.11571425944566727,-0.22077588737010956,-0.021038956940174103
1771072813834466800,7.290466796875,-0.14980269968509674,-0.24314641952514648,-0.03914843872189522
1771072813844408000,7.300407958984375,-0.1657816469669342,-0.23462431132793427,-0.060453712940216064
1771072813854349600,7.310349609375,-0.16471639275550842,-0.16005586087703705,-0.0540621280670166
1771072813864290800,7.320290771484375,-0.13915006816387177,-0.03968106955289841,-0.008255792781710625
1771072813874232000,7.330232177734375,-0.09014793485403061,0.04660528525710106,0.04607265070080757
1771072813884173600,7.340173583984375,-0.043276336044073105,0.06258423626422882,0.05459476262331009
1771072813894114800,7.35011474609375,-0.035819489508867264,0.021038956940174103,-0.009321057237684727
1771072813904056300,7.360056396484375,-0.07203845679759979,-0.048203181475400925,-0.14141374826431274
1771072813913997600,7.36999755859375,-0.14980269968509674,-0.15046848356723785,-0.31611698865890503
1771072813923938800,7.379938720703125,-0.2541985511779785,-0.2655169665813446,-0.4961465299129486
1771072813933880300,7.38988037109375,-0.3490070104598999,-0.3656517565250397,-0.6314350366592407
1771072813943821600,7.399821533203125,-0.40866175293922424,-0.40506649017333984,-0.6942855715751648
1771072813953763000,7.40976318359375,-0.4491417706012726,-0.3837612271308899,-0.6804371476173401
1771072813963704300,7.419704345703125,-0.47364285588264465,-0.3368896245956421,-0.6079992055892944
1771072813973645800,7.429645751953125,-0.4821649491786957,-0.27297380566596985,-0.4961465299129486
1771072813983587000,7.439587158203125,-0.4715123176574707,-0.19307903945446014,-0.36298859119415283
1771072813993528300,7.4495283203125,-0.4395544230937958,-0.08442214131355286,-0.2191779911518097
1771072814003469800,7.4594697265625,-0.392682820558548,0.05725792050361633,-0.07217161357402802
1771072814013411000,7.4694111328125,-0.33835434913635254,0.18508955836296082,0.052464235574007034
1771072814023352600,7.4793525390625,-0.2786996066570282,0.251135915517807,0.13342426717281342
1771072814033293800,7.4892939453125,-0.21584904193878174,0.2522011697292328,0.1760348230600357
1771072814043235000,7.499235107421875,-0.146606907248497,0.2095906287431717,0.20160114765167236
1771072814053176300,7.50917626953125,-0.0997353047132492,0.1243695318698883,0.20266640186309814
1771072814063117800,7.519117919921875,-0.09653951972723007,-0.001331579522229731,0.16964323818683624
1771072814073059000,7.52905908203125,-0.1327584832906723,-0.12809795141220093,0.105727419257164
1771072814083000300,7.539000244140625,-0.1988048255443573,-0.21331904828548431,0.01837579719722271
1771072814092941600,7.548941650390625,-0.279764860868454,-0.23036326467990875,-0.07004108279943466
1771072814102883000,7.558883056640625,-0.35646384954452515,-0.1760348230600357,-0.138217955827713
1771072814112824300,7.56882421875,-0.4054659605026245,-0.07163897901773453,-0.1712411344051361
1771072814122765600,7.578765625,-0.4257059693336487,0.04127896577119827,-0.1712411344051361
1771072814132706800,7.588706787109375,-0.42783650755882263,0.15206637978553772,-0.1531316488981247
1771072814142648000,7.59864794921875,-0.411857545375824,0.25326642394065857,-0.1296958476305008
1771072814152589600,7.608589599609375,-0.3873564898967743,0.31079065799713135,-0.12330426275730133
1771072814162530800,7.61853076171875,-0.3575291037559509,0.31079065799713135,-0.13502216339111328
1771072814172472000,7.62847216796875,-0.32237541675567627,0.2713759243488312,-0.148870587348938
1771072814182413300,7.638413330078125,-0.2882869839668274,0.24580958485603333,-0.14460954070091248
1771072814192354600,7.6483544921875,-0.2552638053894043,0.25326642394065857,-0.11691268533468246
1771072814202296000,7.658296142578125,-0.22330589592456818,0.2841590642929077,-0.06578002870082855
1771072814212237300,7.6682373046875,-0.1945437788963318,0.3129211962223053,-0.00612526573240757
1771072814222178600,7.678178466796875,-0.1657816469669342,0.3320959508419037,0.04713791608810425
1771072814232119800,7.688119873046875,-0.13488900661468506,0.33955278992652893,0.08548741042613983
1771072814242061000,7.69806103515625,-0.0997353047132492,0.3352917432785034,0.10892320424318314
1771072814252002600,7.70800244140625,-0.06138581782579422,0.3043990731239319,0.12170637398958206
1771072814261943800,7.71794384765625,-0.031558435410261154,0.2575274705886841,0.12596742808818817
1771072814271885000,7.727885009765625,-0.02090579830110073,0.19893798232078552,0.12170637398958206
1771072814281826300,7.737826416015625,-0.024101590737700462,0.14141374826431274,0.11851058155298233
1771072814291767800,7.747767822265625,-0.043276336044073105,0.0966726765036583,0.11424952745437622
1771072814301709000,7.757708984375,-0.07843003422021866,0.04554001986980438,0.10679268091917038
1771072814311650300,7.767650390625,-0.118910051882267,-0.017310533672571182,0.08868319541215897
1771072814321591600,7.777591552734375,-0.15299849212169647,-0.07590003311634064,0.05459476262331009
1771072814331532800,7.78753271484375,-0.17323850095272064,-0.11105373501777649,-0.00612526573240757
1771072814341474300,7.797474365234375,-0.1753690242767334,-0.12064110487699509,-0.07643266767263412
1771072814351415600,7.80741552734375,-0.16045533120632172,-0.12277163565158844,-0.13715268671512604
1771072814361356800,7.817356689453125,-0.146606907248497,-0.13342426717281342,-0.17869797348976135
1771072814371298000,7.827298095703125,-0.1423458606004715,-0.09720530360937119,-0.17443692684173584
1771072814381239300,7.8372392578125,-0.13701952993869781,-0.011984216049313545,-0.12756532430648804
1771072814391180800,7.847180908203125,-0.12530162930488586,0.08175898343324661,-0.060453712940216064
1771072814401122000,7.8571220703125,-0.09760478138923645,0.18935060501098633,0.004527370445430279
1771072814411063300,7.867063232421875,-0.056059498339891434,0.29268118739128113,0.05566002428531647
1771072814421004500,7.877004638671875,-0.009187898598611355,0.3651190996170044,0.09294424951076508
1771072814430945800,7.88694580078125,0.03555317223072052,0.391750693321228,0.12170637398958206
1771072814440887300,7.89688720703125,0.07709845900535583,0.36192330718040466,0.13342426717281342
1771072814450828500,7.90682861328125,0.11118689179420471,0.28202855587005615,0.12809795141220093
1771072814460769800,7.916769775390625,0.1399490088224411,0.1765674501657486,0.11638005077838898
1771072814470711000,7.9267109375,0.1687111258506775,0.06258423626422882,0.11851058155298233
1771072814480652500,7.936652587890625,0.18788588047027588,-0.04181159660220146,0.13768532872200012
1771072814490593800,7.94659375,0.1964079886674881,-0.1153147891163826,0.1675127148628235
1771072814500535000,7.95653515625,0.19853851199150085,-0.13555480539798737,0.20692746341228485
1771072814510476300,7.966476318359375,0.19747324287891388,-0.040746334940195084,0.24527695775032043
1771072814520417500,7.97641748046875,0.20919114351272583,0.1573926955461502,0.2601906359195709
1771072814530359000,7.986359130859375,0.24114905297756195,0.3278348743915558,0.2239716798067093
1771072814540300300,7.99630029296875,0.2763027548789978,0.3928159773349762,0.11638005077838898
1771072814550241500,8.006241455078126,0.3008038103580475,0.3416832983493805,-0.048735812306404114
1771072814560182800,8.016182861328126,0.2954775094985962,0.21172115206718445,-0.23835274577140808
1771072814570124000,8.0261240234375,0.2613890767097473,0.03701791167259216,-0.40559911727905273
1771072814580065500,8.0360654296875,0.2006690353155136,-0.1525990217924118,-0.5121254920959473
1771072814590006800,8.0460068359375,0.14207953214645386,-0.2889527678489685,-0.5472791790962219
1771072814599948000,8.055947998046875,0.09520793706178665,-0.35393384099006653,-0.5142560005187988
1771072814609889300,8.06588916015625,0.05898897349834442,-0.35393384099006653,-0.4162517786026001
1771072814619830800,8.075830810546876,0.05472791939973831,-0.30173593759536743,-0.270310640335083
1771072814629772000,8.08577197265625,0.09733846783638,-0.18775272369384766,-0.0870852991938591
1771072814639713300,8.09571337890625,0.19001640379428864,0.003994738683104515,0.11211899667978287
1771072814649654500,8.105654541015625,0.3103911876678467,0.20639483630657196,0.2878875136375427
1771072814659595800,8.115595703125,0.40946072340011597,0.32890015840530396,0.39547911286354065
1771072814669537300,8.125537353515625,0.47231125831604004,0.38003280758857727,0.4263717830181122
1771072814679478500,8.135478515625,0.5213133692741394,0.36298859119415283,0.3880222737789154
1771072814689419800,8.145419677734376,0.5458144545555115,0.27244117856025696,0.29108327627182007
1771072814699361000,8.155361083984374,0.5277049541473389,0.10732531547546387,0.1579253375530243
1771072814709302300,8.16530224609375,0.46272388100624084,-0.10466215014457703,0.017310533672571182
1771072814719243800,8.175243896484375,0.3711112141609192,-0.3123885691165924,-0.09773793816566467
1771072814729185000,8.18518505859375,0.3008038103580475,-0.4402202069759369,-0.15952323377132416
1771072814739126300,8.195126220703125,0.2709764242172241,-0.47324338555336,-0.16804534196853638
1771072814749067500,8.205067626953126,0.25499749183654785,-0.43276336789131165,-0.1339569091796875
1771072814759008800,8.2150087890625,0.25073641538619995,-0.33795487880706787,-0.06151897460222244
1771072814768950300,8.2249501953125,0.2677806615829468,-0.20266640186309814,0.036485280841588974
1771072814778891500,8.2348916015625,0.3050648868083954,-0.05139897018671036,0.13768532872200012
1771072814788832800,8.244832763671875,0.3476754128932953,0.044474758207798004,0.2047969400882721
1771072814798774300,8.254774169921875,0.38176384568214417,0.05193160101771355,0.21651484072208405
1771072814808715500,8.264715576171875,0.4190480709075928,0.013582111336290836,0.19307903945446014
1771072814818656800,8.27465673828125,0.4605933725833893,-0.019441060721874237,0.15899059176445007
1771072814828598300,8.284598388671874,0.5000081062316895,-0.02263685315847397,0.13129374384880066
1771072814838539500,8.29453955078125,0.5181176066398621,-0.0034621069207787514,0.11957584321498871
1771072814848481000,8.30448095703125,0.5127912759780884,0.016777902841567993,0.12383689731359482
1771072814858422300,8.31442236328125,0.49042075872421265,0.028495801612734795,0.12703268229961395
1771072814868363500,8.324363525390625,0.463789165019989,0.029561065137386322,0.11744531989097595
1771072814878305000,8.334304931640625,0.43289652466773987,0.024234747514128685,0.10253162682056427
1771072814888246300,8.344246337890626,0.39667755365371704,0.025300011038780212,0.09720530360937119
1771072814898187800,8.354187744140624,0.3604585826396942,0.023169483989477158,0.10040109604597092
1771072814908129000,8.36412890625,0.3242396116256714,0.009321057237684727,0.10679268091917038
1771072814918070300,8.3740703125,0.28269433975219727,-0.011984216049313545,0.12064110487699509
1771072814928011800,8.38401171875,0.23795326054096222,-0.03968106955289841,0.13555480539798737
1771072814937953000,8.393953125,0.20279955863952637,-0.048203181475400925,0.15046848356723785
1771072814947894500,8.40389453125,0.17616797983646393,-0.032224226742982864,0.16005586087703705
1771072814957835800,8.413835693359376,0.16445007920265198,-0.019441060721874237,0.16325165331363678
1771072814967777300,8.42377734375,0.16231954097747803,-0.020506324246525764,0.16112112998962402
1771072814977718500,8.433718505859375,0.17190691828727722,-0.023702116683125496,0.1525990217924118
1771072814987659800,8.44365966796875,0.1729721873998642,-0.04394212365150452,0.13129374384880066
1771072814997601300,8.453601318359375,0.14634059369564056,-0.09294424951076508,0.08761793375015259
1771072815007542500,8.46354248046875,0.09946899116039276,-0.1430116444826126,0.040746334940195084
1771072815017484000,8.473484130859376,0.04194475710391998,-0.16431692242622375,0.015180006623268127
1771072815027425300,8.48342529296875,-0.010253162123262882,-0.15472954511642456,0.02157158963382244
1771072815037366500,8.493366455078124,-0.05712476372718811,-0.13555480539798737,0.05139897018671036
1771072815047308000,8.50330810546875,-0.10080057382583618,-0.1249021589756012,0.08761793375015259
1771072815057249300,8.513249267578125,-0.13595427572727203,-0.10998847335577011,0.11638005077838898
1771072815067190800,8.523190673828125,-0.146606907248497,-0.08548741042613983,0.13662005960941315
1771072815077132000,8.533132080078126,-0.14767217636108398,-0.08548741042613983,0.14620743691921234
1771072815087073500,8.543073486328124,-0.1615206003189087,-0.11638005077838898,0.1344895362854004
1771072815097014800,8.553014892578124,-0.1945437788963318,-0.1771000772714615,0.09933583438396454
1771072815106956000,8.5629560546875,-0.2360890507698059,-0.23568958044052124,0.0588558167219162
1771072815116897500,8.5728974609375,-0.2595248520374298,-0.23888537287712097,0.052464235574007034
1771072815126838800,8.5828388671875,-0.2744385600090027,-0.16325165331363678,0.08761793375015259
1771072815136780300,8.5927802734375,-0.279764860868454,-0.0141147430986166,0.1621863842010498
1771072815146721500,8.602721435546876,-0.25739431381225586,0.1392832249403,0.2601906359195709
1771072815156662800,8.612662841796874,-0.19987009465694427,0.20532956719398499,0.32517173886299133
1771072815166604300,8.622604248046875,-0.14873743057250977,0.16058848798274994,0.29747486114501953
1771072815176545500,8.632545654296875,-0.14873743057250977,0.023169483989477158,0.15579481422901154
1771072815186486800,8.64248681640625,-0.22011010348796844,-0.15153375267982483,-0.07536740601062775
1771072815196428000,8.652427978515625,-0.3671164810657501,-0.3315632939338684,-0.3597927987575531
1771072815206369500,8.66236962890625,-0.5514070987701416,-0.49774444103240967,-0.6580666303634644
1771072815216310800,8.672310791015626,-0.6973482370376587,-0.5957486629486084,-0.9126646518707275
1771072815226252000,8.682251953125,-0.7985482811927795,-0.5936181545257568,-1.0735194683074951
1771072815236193300,8.692193359375,-0.8699209094047546,-0.5137233734130859,-1.116129994392395
1771072815246134800,8.702134765625,-0.8997483253479004,-0.4157191216945648,-1.031974196434021
1771072815256076000,8.712075927734375,-0.8741819858551025,-0.303866446018219,-0.8434224724769592
1771072815266017300,8.722017333984375,-0.7772429585456848,-0.14194637537002563,-0.5813676118850708
1771072815275958500,8.73195849609375,-0.6131923794746399,0.07004108279943466,-0.2852243483066559
1771072815285899800,8.741899658203126,-0.4097270369529724,0.2990727722644806,-0.00612526573240757
1771072815295841300,8.75184130859375,-0.2169143110513687,0.4535360038280487,0.20692746341228485
1771072815305782500,8.761782470703125,-0.0858868807554245,0.4780370593070984,0.32836753129959106
1771072815315723800,8.771723876953125,0.007856319658458233,0.3885549008846283,0.3699128031730652
1771072815325665000,8.7816650390625,0.07922898232936859,0.22450430691242218,0.35286858677864075
1771072815335606300,8.791606201171875,0.10905636847019196,0.03701791167259216,0.31025803089141846
1771072815345547800,8.8015478515625,0.09414267539978027,-0.11957584321498871,0.24953800439834595
1771072815355489000,8.811489013671874,0.0504668653011322,-0.21012325584888458,0.18455693125724792
1771072815365430300,8.82143017578125,-0.008122635073959827,-0.22503694891929626,0.1291632205247879
1771072815375371500,8.83137158203125,-0.07843003422021866,-0.18775272369384766,0.08442214131355286
1771072815385313000,8.84131298828125,-0.16258586943149567,-0.10146636515855789,0.04607265070080757
1771072815395254300,8.851254150390625,-0.25845959782600403,0.003994738683104515,0.005592633970081806
1771072815405195500,8.861195556640626,-0.3575291037559509,0.07536740601062775,-0.03701791167259216
1771072815415136800,8.87113671875,-0.4384891390800476,0.10412952303886414,-0.0732368752360344
1771072815425078000,8.881078125,-0.47364285588264465,0.10945583879947662,-0.09454214572906494
1771072815435019500,8.89101953125,-0.46512073278427124,0.11265163123607635,-0.0966726765036583
1771072815444960800,8.900960693359375,-0.4342280924320221,0.1243695318698883,-0.07536740601062775
1771072815454902000,8.910902099609375,-0.390552282333374,0.16484954953193665,-0.03488738462328911
1771072815464843300,8.92084326171875,-0.3351585865020752,0.20639483630657196,0.0141147430986166
1771072815474784500,8.930784423828126,-0.29041749238967896,0.23622220754623413,0.05459476262331009
1771072815484726000,8.94072607421875,-0.2605901062488556,0.24794010818004608,0.08442214131355286
1771072815494667300,8.950667236328124,-0.24248063564300537,0.25433170795440674,0.10146636515855789
1771072815504608500,8.9606083984375,-0.23289325833320618,0.24474431574344635,0.10785794258117676
1771072815514549800,8.9705498046875,-0.2275669425725937,0.21704746782779694,0.105727419257164
1771072815524491000,8.980490966796875,-0.2222406268119812,0.19893798232078552,0.09827057272195816
1771072815534432500,8.9904326171875,-0.21371851861476898,0.18828535079956055,0.07909582555294037
1771072815544373800,9.000373779296876,-0.20732693374156952,0.15952323377132416,0.03435475379228592
1771072815554315000,9.01031494140625,-0.203065887093544,0.11904320865869522,-0.028495801612734795
1771072815564256300,9.02025634765625,-0.20200061798095703,0.08282424509525299,-0.09454214572906494
1771072815574197800,9.03019775390625,-0.20732693374156952,0.0774979293346405,-0.1531316488981247
1771072815584139000,9.040138916015625,-0.21478378772735596,0.07962846010923386,-0.20106850564479828
1771072815594080300,9.050080322265625,-0.21584904193878174,0.06897582113742828,-0.22237378358840942
1771072815604021500,9.060021484375,-0.20519641041755676,0.08602003753185272,-0.20852535963058472
1771072815613962800,9.069962646484376,-0.1849564015865326,0.13608743250370026,-0.17337165772914886
1771072815623904300,9.079904296875,-0.1700427085161209,0.17763271927833557,-0.14141374826431274
1771072815633845500,9.089845458984374,-0.15725953876972198,0.1904158741235733,-0.12863057851791382
1771072815643786800,9.099786865234375,-0.1380847990512848,0.19680745899677277,-0.12330426275730133
1771072815653728000,9.10972802734375,-0.11997532099485397,0.2095906287431717,-0.12117373943328857
1771072815663669200,9.119669189453125,-0.11677952855825424,0.22130851447582245,-0.13076111674308777
1771072815673610800,9.12961083984375,-0.1093226820230484,0.2287653684616089,-0.13608743250370026
1771072815683552000,9.139552001953126,-0.0954742506146431,0.2426137924194336,-0.12650005519390106
1771072815693493200,9.1494931640625,-0.07736477255821228,0.24794010818004608,-0.10306425392627716
1771072815703434500,9.1594345703125,-0.051798444241285324,0.23409168422222137,-0.07217161357402802
1771072815713375700,9.169375732421875,-0.02090579830110073,0.21278640627861023,-0.04340949282050133
1771072815723317200,9.179317138671875,0.0153131652623415,0.19787272810935974,-0.010386320762336254
1771072815733258500,9.189258544921875,0.05153212696313858,0.18402428925037384,0.024767380207777023
1771072815743199700,9.19919970703125,0.0834900364279747,0.16165375709533691,0.05352949723601341
1771072815753141000,9.20914111328125,0.10799109935760498,0.13182637095451355,0.08442214131355286
1771072815763082500,9.21908251953125,0.12290479242801666,0.09028109163045883,0.1153147891163826
1771072815773023700,9.229023681640625,0.12183953076601028,0.02636527456343174,0.14407691359519958
1771072815782965000,9.238965087890625,0.1165132075548172,-0.040746334940195084,0.17816534638404846
1771072815792906200,9.24890625,0.12290479242801666,-0.08335687965154648,0.22610220313072205
1771072815802847700,9.25884765625,0.12823110818862915,-0.10998847335577011,0.2751043438911438
1771072815812789000,9.2687890625,0.12183953076601028,-0.11424952745437622,0.3177148699760437
1771072815822730500,9.27873046875,0.11544794589281082,-0.06311687082052231,0.35286858677864075
1771072815832671700,9.288671630859374,0.11757847666740417,0.09986846894025803,0.3880222737789154
1771072815842613000,9.298613037109375,0.13142690062522888,0.31611698865890503,0.4210454523563385
1771072815852554500,9.308554443359375,0.15060164034366608,0.4546012580394745,0.4263717830181122
1771072815862495700,9.318495849609375,0.1825595498085022,0.5014728307723999,0.3869570195674896
1771072815872437200,9.328437255859376,0.2155827283859253,0.4450138807296753,0.29534435272216797
1771072815882378500,9.33837841796875,0.21877852082252502,0.2905506491661072,0.1483379602432251
1771072815892320000,9.348320068359374,0.17190691828727722,0.08069372177124023,-0.030626330524683
1771072815902261200,9.35826123046875,0.08242477476596832,-0.1430116444826126,-0.21704746782779694
1771072815912202500,9.368202392578125,-0.003861580742523074,-0.3070622384548187,-0.39068543910980225
1771072815922144000,9.37814404296875,-0.05819002538919449,-0.33902016282081604,-0.4972118139266968
1771072815932085200,9.388085205078125,-0.10612688958644867,-0.23355905711650848,-0.5067991614341736
1771072815942026800,9.39802685546875,-0.11997532099485397,-0.0684431865811348,-0.41305598616600037
1771072815951968000,9.407968017578124,-0.08801741153001785,0.1296958476305008,-0.23622220754623413
1771072815961909200,9.4179091796875,-0.02090579830110073,0.3608580529689789,-0.027430538088083267
1771072815971850800,9.427850830078125,0.05472791939973831,0.5728455185890198,0.14620743691921234
1771072815981792000,9.4377919921875,0.1165132075548172,0.6868287324905396,0.2324937880039215
1771072815991733500,9.4477333984375,0.18469008803367615,0.6878939867019653,0.22503694891929626
1771072816001674800,9.4576748046875,0.25606274604797363,0.5696497559547424,0.1430116444826126
1771072816011616000,9.467615966796876,0.31252172589302063,0.36618438363075256,0.026897907257080078
1771072816021557500,9.4775576171875,0.34447962045669556,0.1201084777712822,-0.09241162240505219
1771072816031498800,9.487498779296875,0.342349112033844,-0.1430116444826126,-0.18189376592636108
1771072816041440300,9.497440185546875,0.3146522343158722,-0.3837612271308899,-0.22983063757419586
1771072816051381500,9.507381591796875,0.28908592462539673,-0.5456812977790833,-0.2372874766588211
1771072816061323000,9.517322998046875,0.25499749183654785,-0.6149234175682068,-0.20852535963058472
1771072816071264300,9.52726416015625,0.20493009686470032,-0.5563339591026306,-0.1435442715883255
1771072816081205500,9.53720556640625,0.15592797100543976,-0.4018706977367401,-0.05725792050361633
1771072816091147000,9.54714697265625,0.13249216973781586,-0.19414429366588593,0.024767380207777023
1771072816101088300,9.557088134765625,0.1399490088224411,-0.0034621069207787514,0.06205160543322563
1771072816111029800,9.56702978515625,0.15592797100543976,0.08921582996845245,0.023702116683125496
1771072816120971000,9.576970947265625,0.17084164917469025,0.10306425392627716,-0.06684529036283493
1771072816130912300,9.586912353515626,0.19427745044231415,0.08388951420783997,-0.16378428041934967
1771072816140853800,9.596853759765626,0.21877852082252502,0.04127896577119827,-0.24367906153202057
1771072816150795000,9.606794921875,0.24647536873817444,-0.011984216049313545,-0.28202855587005615
1771072816160736500,9.616736572265625,0.27949854731559753,-0.05033370852470398,-0.25965800881385803
1771072816170677800,9.626677734375,0.30613014101982117,-0.06205160543322563,-0.17869797348976135
1771072816180619300,9.636619384765625,0.3231743574142456,-0.08548741042613983,-0.06897582113742828
1771072816190560500,9.646560546875,0.33063119649887085,-0.14514216780662537,0.048203181475400925
1771072816200501800,9.656501708984376,0.350871205329895,-0.1909485012292862,0.16431692242622375
1771072816210443300,9.666443359375,0.3806985914707184,-0.18668745458126068,0.2697780132293701
1771072816220384500,9.676384521484374,0.4030691385269165,-0.13768532872200012,0.3549990952014923
1771072816230325800,9.68632568359375,0.4083954393863678,-0.08655267208814621,0.4029359817504883
1771072816240267300,9.696267333984375,0.3988080620765686,-0.05779055133461952,0.4071970283985138
1771072816250208500,9.70620849609375,0.37324175238609314,-0.04607265070080757,0.3848264813423157
1771072816260149800,9.716149658203125,0.3466101586818695,-0.056725289672613144,0.3518033027648926
1771072816270091000,9.726091064453126,0.30719539523124695,-0.08974846452474594,0.3091927766799927
1771072816280032300,9.7360322265625,0.2539322078227997,-0.13129374384880066,0.24421168863773346
1771072816289973800,9.745973876953125,0.1868206113576889,-0.17816534638404846,0.16325165331363678
1771072816299915000,9.7559150390625,0.11970899999141693,-0.19734008610248566,0.07590003311634064
1771072816309856300,9.765856201171875,0.07496792823076248,-0.18242639303207397,0.02263685315847397
1771072816319797500,9.775797607421875,0.04620581120252609,-0.1387505829334259,0.023702116683125496
1771072816329739000,9.785739013671876,0.016378428786993027,-0.08655267208814621,0.052464235574007034
1771072816339680300,9.79568017578125,-0.014514217153191566,-0.05352949723601341,0.08442214131355286
1771072816349621500,9.80562158203125,-0.04434159770607948,-0.04607265070080757,0.09933583438396454
1771072816359562800,9.815562744140625,-0.0762995108962059,-0.06631266325712204,0.08442214131355286
1771072816369504000,9.82550390625,-0.11038794368505478,-0.11318425834178925,0.03861580789089203
1771072816379445500,9.835445556640625,-0.14021532237529755,-0.16964323818683624,-0.008255792781710625
1771072816389386800,9.84538671875,-0.15406376123428345,-0.2186453640460968,-0.03488738462328911
1771072816399328000,9.855327880859376,-0.16684691607952118,-0.26338642835617065,-0.04234423115849495
1771072816409269200,9.865269287109374,-0.18282587826251984,-0.293213814496994,-0.04340949282050133
1771072816419210500,9.87521044921875,-0.2083922028541565,-0.3028011918067932,-0.048735812306404114
1771072816429152000,9.885152099609375,-0.2414153665304184,-0.3070622384548187,-0.06684529036283493
1771072816439093200,9.89509326171875,-0.279764860868454,-0.3166496157646179,-0.10519478470087051
1771072816449034500,9.905034423828125,-0.3202448785305023,-0.3273022472858429,-0.16911059617996216
1771072816458975700,9.914975830078125,-0.35220280289649963,-0.32517173886299133,-0.24794010818004608
1771072816468917000,9.9249169921875,-0.37457332015037537,-0.3081275224685669,-0.3363569974899292
1771072816478858500,9.9348583984375,-0.3862912356853485,-0.28149592876434326,-0.41518649458885193
1771072816488799700,9.9447998046875,-0.38416069746017456,-0.2569948434829712,-0.46205809712409973
1771072816498741000,9.954740966796875,-0.3692470192909241,-0.2186453640460968,-0.44714441895484924
1771072816508682200,9.96468212890625,-0.34261542558670044,-0.14940322935581207,-0.36192330718040466
1771072816518623700,9.974623779296875,-0.29893961548805237,-0.024767380207777023,-0.2191779911518097
1771072816528565000,9.98456494140625,-0.2222406268119812,0.10412952303886414,-0.05832318589091301
1771072816538506200,9.99450634765625,-0.12210584431886673,0.1243695318698883,0.07909582555294037
1771072816548447500,10.004447509765624,-0.04647212475538254,0.03169159218668938,0.15366427600383759
1771072816558388700,10.014388671875,-0.04647212475538254,-0.16325165331363678,0.12277163565158844
1771072816568330200,10.024330322265625,-0.11145320534706116,-0.4071970283985138,-0.002929474925622344
1771072816578271500,10.034271484375,-0.20945745706558228,-0.6127929091453552,-0.17550218105316162
1771072816588212700,10.044212646484375,-0.3127880394458771,-0.7342329621315002,-0.33848753571510315
1771072816598154000,10.054154052734376,-0.4054659605026245,-0.726776123046875,-0.4673844277858734
1771072816608095200,10.06409521484375,-0.4587291479110718,-0.6181192398071289,-0.5462139248847961
1771072816618036700,10.07403662109375,-0.47790390253067017,-0.4402202069759369,-0.5558013319969177
1771072816627978000,10.08397802734375,-0.47364285588264465,-0.2186453640460968,-0.5099949836730957
1771072816637919200,10.093919189453125,-0.43209755420684814,-0.029028434306383133,-0.43755704164505005
1771072816647860500,10.103860595703125,-0.3671164810657501,0.08495477586984634,-0.3448790907859802
1771072816657801700,10.1138017578125,-0.2936132848262787,0.1573926955461502,-0.22983063757419586
1771072816667743200,10.1237431640625,-0.2169143110513687,0.20532956719398499,-0.08602003753185272
1771072816677684500,10.1336845703125,-0.15299849212169647,0.22556957602500916,0.056725289672613144
1771072816687625700,10.143625732421874,-0.10506162792444229,0.21172115206718445,0.17816534638404846
1771072816697567000,10.15356689453125,-0.06990792602300644,0.17869797348976135,0.2655169665813446
1771072816707508500,10.163508544921875,-0.051798444241285324,0.110521100461483,0.31451907753944397
1771072816717449700,10.17344970703125,-0.05819002538919449,-0.0023968431632965803,0.3230412006378174
1771072816727391200,10.18339111328125,-0.08695214241743088,-0.13342426717281342,0.30173593759536743
1771072816737332500,10.19333251953125,-0.12530162930488586,-0.228232741355896,0.2569948434829712
1771072816747273700,10.203273681640624,-0.16684691607952118,-0.2623211741447449,0.2047969400882721
1771072816757215200,10.21321533203125,-0.20519641041755676,-0.22716747224330902,0.1483379602432251
1771072816767156500,10.223156494140625,-0.23928484320640564,-0.14514216780662537,0.09081372618675232
1771072816777098000,10.233097900390625,-0.28083011507987976,-0.0492684431374073,0.036485280841588974
1771072816787039200,10.243039306640625,-0.3266364634037018,0.04980107396841049,-0.007190529722720385
1771072816796980500,10.25298046875,-0.36605122685432434,0.1339569091796875,-0.040213704109191895
1771072816806922000,10.262921875,-0.3958786129951477,0.17976324260234833,-0.05832318589091301
1771072816816863200,10.27286328125,-0.4065312445163727,0.20106850564479828,-0.04980107396841049
1771072816826804700,10.2828046875,-0.39800912141799927,0.21598219871520996,-0.0018642114009708166
1771072816836746000,10.29274609375,-0.3735080659389496,0.22024326026439667,0.07909582555294037
1771072816846687500,10.3026875,-0.3500722646713257,0.2191779911518097,0.1664474457502365
1771072816856628700,10.312628662109375,-0.3394196331501007,0.21172115206718445,0.23462431132793427
1771072816866570000,10.322570068359376,-0.334093302488327,0.19680745899677277,0.2751043438911438
1771072816876511500,10.332511474609374,-0.32344067096710205,0.19148114323616028,0.2942790687084198
1771072816886452700,10.34245263671875,-0.3021354079246521,0.20639483630657196,0.2942790687084198
1771072816896394200,10.352394287109375,-0.27656906843185425,0.22983063757419586,0.27830013632774353
1771072816906335500,10.36233544921875,-0.2414153665304184,0.24794010818004608,0.25486433506011963
1771072816916276700,10.37227685546875,-0.1945437788963318,0.26391905546188354,0.23995064198970795
1771072816926218200,10.38221826171875,-0.14341111481189728,0.270310640335083,0.22610220313072205
1771072816936159500,10.392159423828126,-0.09653951972723007,0.24794010818004608,0.20692746341228485
1771072816946101000,10.40210107421875,-0.06032055243849754,0.20639483630657196,0.171773761510849
1771072816956042200,10.412042236328125,-0.035819489508867264,0.14674006402492523,0.12064110487699509
1771072816965983700,10.421983642578125,-0.023036325350403786,0.08175898343324661,0.06631266325712204
1771072816975925000,10.431925048828125,-0.027297381311655045,0.030626330524683,0.02583264373242855
1771072816985866200,10.4418662109375,-0.05392897129058838,0.002929474925622344,0.005592633970081806
1771072816995807700,10.451807861328126,-0.08375635743141174,-0.005592633970081806,0.004527370445430279
1771072817005749000,10.4617490234375,-0.10612688958644867,-0.0002663159102667123,0.011984216049313545
1771072817015690500,10.4716904296875,-0.12530162930488586,0.035952646285295486,0.016245270147919655
1771072817025631700,10.4816318359375,-0.13915006816387177,0.10306425392627716,0.0023968431632965803
1771072817035573000,10.491572998046875,-0.14341111481189728,0.1669800728559494,-0.04234423115849495
1771072817045514500,10.501514404296875,-0.13701952993869781,0.21065588295459747,-0.11158636957406998
1771072817055455700,10.511455810546876,-0.12210584431886673,0.24794010818004608,-0.1957421898841858
1771072817065397200,10.521397216796874,-0.09867004305124283,0.3043990731239319,-0.2660495936870575
1771072817075338500,10.53133837890625,-0.07416898012161255,0.3736412227153778,-0.31611698865890503
1771072817085280000,10.541280029296875,-0.04221107065677643,0.4343612492084503,-0.3491401672363281
1771072817095221200,10.55122119140625,0.007856319658458233,0.450340211391449,-0.3651190996170044
1771072817105162500,10.56116259765625,0.06751108169555664,0.42264336347579956,-0.3597927987575531
1771072817115104000,10.57110400390625,0.12077426165342331,0.37151068449020386,-0.3235738277435303
1771072817125045200,10.581045166015626,0.1687111258506775,0.28309381008148193,-0.25859275460243225
1771072817134986800,10.59098681640625,0.21664799749851227,0.15952323377132416,-0.17017586529254913
1771072817144928000,10.600927978515625,0.27310696244239807,0.048735812306404114,-0.06151897460222244
1771072817154869200,10.610869140625,0.342349112033844,-0.02263685315847397,0.06205160543322563
1771072817164810800,10.620810791015625,0.41478702425956726,-0.023702116683125496,0.1898832470178604
1771072817174752000,10.630751953125,0.4733765423297882,0.03275685757398605,0.3177148699760437
1771072817184693500,10.640693603515626,0.5170523524284363,0.07217161357402802,0.4114580750465393
1771072817194634800,10.650634765625,0.5415533781051636,0.05938844755291939,0.4295675754547119
1771072817204576000,10.660575927734374,0.5351617932319641,0.008255792781710625,0.35819488763809204
1771072817214517500,10.670517578125,0.4776375889778137,-0.06950845569372177,0.17923060059547424
1771072817224458800,10.680458740234375,0.38176384568214417,-0.19307903945446014,-0.0966726765036583
1771072817234400300,10.690400146484375,0.28269433975219727,-0.31984540820121765,-0.4162517786026001
1771072817244341500,10.700341552734375,0.1910816729068756,-0.3826959729194641,-0.6804371476173401
1771072817254283000,10.710282958984376,0.1069258376955986,-0.36671701073646545,-0.8295740485191345
1771072817264224300,10.720224365234374,0.03555317223072052,-0.3219759464263916,-0.8412919640541077
1771072817274165500,10.73016552734375,0.014247900806367397,-0.23888537287712097,-0.7049382328987122
1771072817284106800,10.740106689453125,0.04833633825182915,-0.105727419257164,-0.44714441895484924
1771072817294048000,10.750048095703125,0.12823110818862915,0.05725792050361633,-0.13289164006710052
1771072817303989500,10.759989501953125,0.24434484541416168,0.23835274577140808,0.18029586970806122
1771072817313930800,10.7699306640625,0.36258912086486816,0.38642439246177673,0.435959130525589
1771072817323872000,10.7798720703125,0.43928807973861694,0.43649178743362427,0.596813976764679
1771072817333813200,10.789813232421874,0.48083338141441345,0.40453386306762695,0.6554034352302551
1771072817343754500,10.79975439453125,0.5000081062316895,0.2884201407432556,0.613858163356781
1771072817353696000,10.809696044921875,0.48189863562583923,0.10626004636287689,0.4913528561592102
1771072817363637200,10.81963720703125,0.42863544821739197,-0.0918789878487587,0.32836753129959106
1771072817373578500,10.82957861328125,0.34874069690704346,-0.2612559199333191,0.14940322935581207
1771072817383519700,10.839519775390626,0.27310696244239807,-0.37204334139823914,-0.002929474925622344
1771072817393461200,10.849461181640624,0.20706062018871307,-0.3965443968772888,-0.09560741484165192
1771072817403402500,10.859402587890624,0.15699322521686554,-0.35712963342666626,-0.13715268671512604
1771072817413343700,10.86934375,0.13142690062522888,-0.2655169665813446,-0.138217955827713
1771072817423285000,10.879284912109375,0.13355742394924164,-0.12277163565158844,-0.11478215456008911
1771072817433226200,10.889226318359375,0.1676458716392517,0.04554001986980438,-0.08495477586984634
1771072817443167700,10.899167724609375,0.2241048365831375,0.1861548274755478,-0.06684529036283493
1771072817453109000,10.90910888671875,0.2816290855407715,0.26285380125045776,-0.05299686640501022
1771072817463050200,10.91905029296875,0.33489224314689636,0.318247526884079,-0.018908429890871048
1771072817472991500,10.928991455078124,0.39135122299194336,0.3842938542366028,0.032224226742982864
1771072817482932700,10.9389326171875,0.43928807973861694,0.4343612492084503,0.08974846452474594
1771072817492874200,10.948874267578125,0.4691154658794403,0.48336338996887207,0.14940322935581207
1771072817502815500,10.9588154296875,0.4882902204990387,0.5185170769691467,0.19840535521507263
1771072817512756700,10.9687568359375,0.4925512671470642,0.5067991614341736,0.22184115648269653
1771072817522698000,10.978697998046876,0.4893554747104645,0.4215780794620514,0.21225377917289734
1771072817532639200,10.98863916015625,0.48509442806243896,0.2692453861236572,0.18242639303207397
1771072817542580700,10.998580810546875,0.47976812720298767,0.07962846010923386,0.14620743691921234
1771072817552522000,11.00852197265625,0.47124600410461426,-0.08868319541215897,0.11744531989097595
1771072817562463200,11.018463134765625,0.44887545704841614,-0.19307903945446014,0.10146636515855789
1771072817572404500,11.028404541015625,0.4126565158367157,-0.22716747224330902,0.09081372618675232
1771072817582346000,11.038345947265626,0.3743070065975189,-0.22077588737010956,0.0822916179895401
1771072817592287200,11.048287353515626,0.3412838280200958,-0.19734008610248566,0.0588558167219162
1771072817602228500,11.058228515625,0.31678277254104614,-0.1856221854686737,0.023702116683125496
1771072817612169700,11.068169677734375,0.2954775094985962,-0.19627483189105988,-0.007190529722720385
1771072817622111000,11.078111083984375,0.2720417082309723,-0.2090579867362976,-0.02210422046482563
1771072817632052500,11.088052490234375,0.2539322078227997,-0.21225377917289734,-0.023169483989477158
1771072817641993700,11.09799365234375,0.24008379876613617,-0.20266640186309814,-0.01784316636621952
1771072817651935000,11.10793505859375,0.24114905297756195,-0.1909485012292862,-0.011451584286987782
1771072817661876200,11.117876220703126,0.25499749183654785,-0.1771000772714615,-0.008255792781710625
1771072817671817700,11.127817626953124,0.2720417082309723,-0.1579253375530243,-0.010386320762336254
1771072817681759000,11.137759033203125,0.2773680090904236,-0.1430116444826126,-0.016777902841567993
1771072817691700500,11.147700439453125,0.26458486914634705,-0.1430116444826126,-0.02636527456343174
1771072817701641700,11.157641845703125,0.2347574681043625,-0.15046848356723785,-0.04660528525710106
1771072817711583200,11.167583251953126,0.2102564126253128,-0.16538217663764954,-0.0679105594754219
1771072817721524500,11.1775244140625,0.1868206113576889,-0.18242639303207397,-0.08282424509525299
1771072817731465700,11.1874658203125,0.15486270189285278,-0.20373167097568512,-0.09986846894025803
1771072817741407200,11.1974072265625,0.11225215345621109,-0.237820103764534,-0.12863057851791382
1771072817751348500,11.207348388671875,0.06857634335756302,-0.28149592876434326,-0.16165375709533691
1771072817761290000,11.2172900390625,0.029161592945456505,-0.3358243703842163,-0.18828535079956055
1771072817771231200,11.227231201171875,-0.002796316985040903,-0.39441385865211487,-0.19893798232078552
1771072817781172500,11.23717236328125,-0.035819489508867264,-0.4444812536239624,-0.1904158741235733
1771072817791114000,11.247114013671874,-0.07416898012161255,-0.48922231793403625,-0.1712411344051361
1771072817801055200,11.25705517578125,-0.11677952855825424,-0.5201149582862854,-0.15206637978553772
1771072817810996700,11.266996826171875,-0.15406376123428345,-0.538224458694458,-0.14034847915172577
1771072817820938000,11.27693798828125,-0.17323850095272064,-0.5488771200180054,-0.138217955827713
1771072817830879200,11.286879150390625,-0.1796300858259201,-0.5392897129058838,-0.12863057851791382
1771072817840820700,11.29682080078125,-0.18389113247394562,-0.48496127128601074,-0.10945583879947662
1771072817850762000,11.306761962890626,-0.17323850095272064,-0.35286858677864075,-0.0732368752360344
1771072817860703500,11.316703369140624,-0.14980269968509674,-0.16964323818683624,-0.009321057237684727
1771072817870644700,11.326644775390625,-0.13169321417808533,-0.0727042406797409,0.06418213248252869
1771072817880586200,11.336586181640625,-0.1423458606004715,-0.12064110487699509,0.11424952745437622
1771072817890527500,11.346527587890625,-0.1796300858259201,-0.25379905104637146,0.11424952745437622
1771072817900468700,11.35646875,-0.2414153665304184,-0.4391549229621887,0.05033370852470398
1771072817910410200,11.36641015625,-0.325571209192276,-0.6415550112724304,-0.07430213689804077
1771072817920351500,11.3763515625,-0.41824913024902344,-0.7896266579627991,-0.2181127369403839
1771072817930293000,11.38629296875,-0.49707865715026855,-0.8684561848640442,-0.33848753571510315
1771072817940234200,11.396234130859375,-0.554602861404419,-0.885500431060791,-0.41305598616600037
1771072817950175500,11.406175537109375,-0.587626039981842,-0.8279761672019958,-0.43223071098327637
1771072817960117000,11.416116943359375,-0.6057355403900146,-0.6575340032577515,-0.4077296555042267
1771072817970058200,11.426058349609375,-0.6142576336860657,-0.39121806621551514,-0.36298859119415283
1771072817979999700,11.435999755859376,-0.6068007946014404,-0.07803056389093399,-0.3118559420108795
1771072817989941000,11.44594091796875,-0.5759081840515137,0.27776750922203064,-0.25859275460243225
1771072817999882500,11.455882568359375,-0.5279712677001953,0.6037381887435913,-0.21172115206718445
1771072818009823700,11.46582373046875,-0.4896217882633209,0.8050730228424072,-0.17443692684173584
1771072818019765000,11.475764892578125,-0.45127230882644653,0.890294075012207,-0.14567480981349945
1771072818029706500,11.48570654296875,-0.39907440543174744,0.8647277355194092,-0.1201084777712822
1771072818039647700,11.495647705078126,-0.3404848873615265,0.7496792674064636,-0.10412952303886414
1771072818049589200,11.50558935546875,-0.2872216999530792,0.5398223400115967,-0.10945583879947662
1771072818059530500,11.515530517578124,-0.25845959782600403,0.2660495936870575,-0.1296958476305008
1771072818069471700,11.5254716796875,-0.25206801295280457,0.00612526573240757,-0.1478053331375122
1771072818079413200,11.535413330078125,-0.25739431381225586,-0.15153375267982483,-0.14567480981349945
1771072818089354500,11.5453544921875,-0.2659164369106293,-0.2047969400882721,-0.1243695318698883
1771072818099296000,11.5552958984375,-0.28509119153022766,-0.1771000772714615,-0.09986846894025803
1771072818109237200,11.5652373046875,-0.2978743314743042,-0.08548741042613983,-0.07643266767263412
1771072818119178800,11.5751787109375,-0.2893522381782532,0.05512739345431328,-0.03808317333459854
1771072818129120000,11.5851201171875,-0.2659164369106293,0.22130851447582245,0.0002663159102667123
1771072818139061200,11.595061279296875,-0.23928484320640564,0.36298859119415283,0.03755054250359535
1771072818149002800,11.605002685546875,-0.2169143110513687,0.45673179626464844,0.0684431865811348
1771072818158944000,11.614944091796875,-0.19241324067115784,0.525973916053772,0.09400951862335205
1771072818168885500,11.624885498046876,-0.1561942845582962,0.5664539337158203,0.1153147891163826
1771072818178826800,11.63482666015625,-0.11997532099485397,0.5675191879272461,0.13342426717281342
1771072818188768000,11.64476806640625,-0.08908267319202423,0.5440834164619446,0.14727269113063812
1771072818198709500,11.65470947265625,-0.047537390142679214,0.5078644156455994,0.1621863842010498
1771072818208650800,11.664650634765625,-0.009187898598611355,0.4631233811378479,0.1771000772714615
1771072818218592300,11.67459228515625,0.007856319658458233,0.3960117697715759,0.19201377034187317
1771072818228533500,11.684533447265625,0.004660528618842363,0.3075948655605316,0.20799273252487183
1771072818238474800,11.694474853515626,-0.0070573715493083,0.20852535963058472,0.2186453640460968
1771072818248416300,11.704416259765624,-0.026232117787003517,0.12650005519390106,0.2324937880039215
1771072818258357500,11.714357421875,-0.052863709628582,0.0732368752360344,0.2420811653137207
1771072818268299000,11.724299072265625,-0.0858868807554245,0.03488738462328911,0.25486433506011963
1771072818278240300,11.734240234375,-0.1284974217414856,0.028495801612734795,0.25379905104637146
1771072818288181800,11.744181640625,-0.17323850095272064,0.04767054691910744,0.22290641069412231
1771072818298123000,11.754123046875,-0.20093534886837006,0.06684529036283493,0.16005586087703705
1771072818308064300,11.764064208984376,-0.21052272617816925,0.07856319099664688,0.07376950979232788
1771072818318005800,11.774005859375,-0.21052272617816925,0.08282424509525299,-0.019973693415522575
1771072818327947000,11.783947021484375,-0.212653249502182,0.0774979293346405,-0.10519478470087051
1771072818337888500,11.793888427734375,-0.22437115013599396,0.08069372177124023,-0.17337165772914886
1771072818347829800,11.803829833984375,-0.25313326716423035,0.10839057713747025,-0.2095906287431717
1771072818357771000,11.81377099609375,-0.2872216999530792,0.15206637978553772,-0.204264298081398
1771072818367712500,11.82371240234375,-0.3106575012207031,0.19893798232078552,-0.15100112557411194
1771072818377653800,11.83365380859375,-0.3159838318824768,0.2330264151096344,-0.06684529036283493
1771072818387595300,11.84359521484375,-0.30426591634750366,0.23835274577140808,0.02263685315847397
1771072818397536500,11.85353662109375,-0.28083011507987976,0.2287653684616089,0.11211899667978287
1771072818407477800,11.863477783203125,-0.25206801295280457,0.21491694450378418,0.17816534638404846
1771072818417419300,11.873419189453125,-0.21052272617816925,0.16058848798274994,0.19627483189105988
1771072818427360500,11.883360595703126,-0.15832480788230896,0.03701791167259216,0.16431692242622375
1771072818437301800,11.8933017578125,-0.09653951972723007,-0.10892320424318314,0.09933583438396454
1771072818447243000,11.903242919921874,-0.027297381311655045,-0.2143843024969101,0.03328948840498924
1771072818457184300,11.913184326171875,0.03129211813211441,-0.2569948434829712,-0.009321057237684727
1771072818467125800,11.923125732421875,0.07070687413215637,-0.22610220313072205,-0.029561065137386322
1771072818477067000,11.93306689453125,0.10905636847019196,-0.13662005960941315,-0.030626330524683
1771072818487008300,11.94300830078125,0.163384810090065,0.016777902841567993,-0.021038956940174103
1771072818496949500,11.952949462890626,0.22730062901973724,0.22450430691242218,-0.011451584286987782
1771072818506890800,11.962890869140624,0.28375959396362305,0.3747064769268036,-0.02210422046482563
1771072818516832300,11.972832275390624,0.32956594228744507,0.40453386306762695,-0.07004108279943466
1771072818526773500,11.9827734375,0.35406699776649475,0.280963271856308,-0.16378428041934967
1771072818536714800,11.99271484375,0.3146522343158722,0.023169483989477158,-0.3225085735321045
1771072818546656000,12.002656005859375,0.20279955863952637,-0.2793653905391693,-0.5558013319969177
1771072818556597200,12.01259716796875,0.0930774137377739,-0.538224458694458,-0.8050730228424072
1771072818566538800,12.022538818359376,0.0153131652623415,-0.6799045205116272,-0.9840372800827026
1771072818576480000,12.03247998046875,-0.05392897129058838,-0.7001445293426514,-1.0426267385482788
1771072818586421200,12.042421142578124,-0.08801741153001785,-0.5978792309761047,-0.936100423336029
1771072818596362500,12.052362548828125,-0.06351634114980698,-0.37097805738449097,-0.6687192320823669
1771072818606304000,12.062303955078125,0.009986846707761288,-0.056725289672613144,-0.3075948655605316
1771072818616245200,12.072245361328125,0.11864373832941055,0.2553969621658325,0.0588558167219162
1771072818626186500,12.0821865234375,0.23049642145633698,0.4769718050956726,0.3635212182998657
1771072818636127700,12.092127685546876,0.3199785649776459,0.563258171081543,0.5669865608215332
1771072818646069000,12.102069091796874,0.40093860030174255,0.517451822757721,0.6617950201034546
1771072818656010500,12.112010498046875,0.4691154658794403,0.3587275445461273,0.6554034352302551
1771072818665951700,12.12195166015625,0.5032039284706116,0.148870587348938,0.5744433999061584
1771072818675893000,12.13189306640625,0.49574705958366394,-0.04713791608810425,0.4498075842857361
1771072818685834200,12.141834228515625,0.4595280885696411,-0.1994706094264984,0.31878015398979187
1771072818695775500,12.151775390625,0.4126565158367157,-0.28682222962379456,0.20373167097568512
1771072818705717000,12.161717041015624,0.3796333372592926,-0.29108327627182007,0.1153147891163826
1771072818715658200,12.171658203125,0.36258912086486816,-0.24101589620113373,0.05992107838392258
1771072818725599500,12.181599609375,0.3380880355834961,-0.16538217663764954,0.029028434306383133
1771072818735540700,12.191540771484375,0.2997385561466217,-0.08868319541215897,0.02157158963382244
1771072818745482200,12.201482177734375,0.25925853848457336,-0.036485280841588974,0.03968106955289841
1771072818755423500,12.211423583984375,0.2251701056957245,0.010386320762336254,0.07909582555294037
1771072818765365000,12.221364990234376,0.19853851199150085,0.060453712940216064,0.12383689731359482
1771072818775306200,12.23130615234375,0.1921469271183014,0.0966726765036583,0.16005586087703705
1771072818785247500,12.24124755859375,0.20812588930130005,0.11265163123607635,0.19734008610248566
1771072818795189000,12.25118896484375,0.23156169056892395,0.1201084777712822,0.24101589620113373
1771072818805130200,12.261130126953125,0.2571280002593994,0.13182637095451355,0.2942790687084198
1771072818815071700,12.27107177734375,0.28908592462539673,0.14674006402492523,0.3549990952014923
1771072818825013000,12.281012939453126,0.3285006880760193,0.15952323377132416,0.4210454523563385
1771072818834954200,12.290954345703126,0.3647196292877197,0.16911059617996216,0.48496127128601074
1771072818844895700,12.300895751953124,0.39667755365371704,0.15419691801071167,0.5265065431594849
1771072818854837000,12.3108369140625,0.4211786091327667,0.10412952303886414,0.5371592044830322
1771072818864778500,12.320778564453125,0.42863544821739197,0.023169483989477158,0.5201149582862854
1771072818874719700,12.3307197265625,0.4233091473579407,-0.06737792491912842,0.4785696864128113
1771072818884661200,12.3406611328125,0.40200385451316833,-0.1387505829334259,0.4295675754547119
1771072818894602500,12.3506025390625,0.3711112141609192,-0.1760348230600357,0.3795001804828644
1771072818904543700,12.360543701171874,0.3327617347240448,-0.18242639303207397,0.3304980397224426
1771072818914485200,12.3704853515625,0.2901511788368225,-0.17070849239826202,0.2761695981025696
1771072818924426500,12.380426513671875,0.24434484541416168,-0.14940322935581207,0.2186453640460968
1771072818934368000,12.390367919921875,0.19747324287891388,-0.13342426717281342,0.16005586087703705
1771072818944309200,12.400309326171875,0.14847111701965332,-0.11957584321498871,0.11318425834178925
1771072818954250500,12.41025048828125,0.10479531437158585,-0.11211899667978287,0.07909582555294037
1771072818964192000,12.42019189453125,0.07496792823076248,-0.12277163565158844,0.052464235574007034
1771072818974133200,12.43013330078125,0.05898897349834442,-0.15472954511642456,0.0354200154542923
1771072818984074800,12.44007470703125,0.05472791939973831,-0.19734008610248566,0.031158961355686188
1771072818994016000,12.45001611328125,0.05153212696313858,-0.23675484955310822,0.04287686198949814
1771072819003957200,12.459957275390625,0.0366184376180172,-0.27403905987739563,0.06418213248252869
1771072819013898800,12.469898681640625,0.012117373757064342,-0.3070622384548187,0.07909582555294037
1771072819023840000,12.479840087890626,-0.01664474420249462,-0.3326285779476166,0.0822916179895401
1771072819033781500,12.489781494140624,-0.04114580899477005,-0.34754225611686707,0.07376950979232788
1771072819043722800,12.49972265625,-0.06458161026239395,-0.349672794342041,0.06311687082052231
1771072819053664300,12.509664306640625,-0.08162582665681839,-0.31878015398979187,0.04607265070080757
1771072819063605500,12.51960546875,-0.0954742506146431,-0.25912538170814514,0.019441060721874237
1771072819073546800,12.529546630859375,-0.11677952855825424,-0.17816534638404846,-0.03169159218668938
1771072819083488300,12.53948828125,-0.14554163813591003,-0.11318425834178925,-0.10306425392627716
1771072819093429500,12.549429443359376,-0.16258586943149567,-0.0684431865811348,-0.18189376592636108
1771072819103371000,12.55937109375,-0.17430377006530762,-0.024767380207777023,-0.25007063150405884
1771072819113312300,12.569312255859375,-0.17430377006530762,0.023169483989477158,-0.2980075180530548
1771072819123253500,12.57925341796875,-0.1561942845582962,0.05938844755291939,-0.31931278109550476
1771072819133195000,12.589195068359375,-0.14021532237529755,0.09773793816566467,-0.31505173444747925
