time,seconds_elapsed,z,y,x
1771082346471273000,0.16627294921875,-0.03404998779296875,-0.006508491933345795,0.006361514329910278
1771082346481213400,0.17621337890625,-0.06512451171875,0.00038823485374450684,0.005889713764190674
1771082346491154000,0.18615380859375,-0.05702495574951172,-0.006302572786808014,0.003154367208480835
1771082346501094100,0.19609423828125,-0.01496124267578125,-0.010290712118148804,0.00945088267326355
1771082346511034600,0.20603466796875,-0.0292816162109375,-0.0052038803696632385,0.002164989709854126
1771082346520975000,0.21597509765625,-0.036083221435546875,-0.005057200789451599,0.006529420614242554
1771082346530915600,0.22591552734375,-0.015801429748535156,0.008561335504055023,0.012869834899902344
1771082346540855800,0.235855712890625,-0.014818191528320312,0.02595057338476181,0.007747173309326172
1771082346550796300,0.24579638671875,-0.054511070251464844,0.022040553390979767,0.002956211566925049
1771082346560736800,0.25573681640625,-0.04922294616699219,0.020685523748397827,-0.0061788856983184814
1771082346570677200,0.26567724609375,-0.02621746063232422,0.024100691080093384,0.00319477915763855
1771082346580617500,0.275617431640625,-0.020355224609375,0.004568465054035187,-0.0015382766723632812
1771082346590558000,0.285557861328125,-0.028504371643066406,-0.02314598113298416,0.005352318286895752
1771082346600498400,0.29549853515625,-0.018064498901367188,-0.033652618527412415,0.005084574222564697
1771082346610439000,0.30543896484375,-0.02644062042236328,-0.04148200899362564,-0.0019320249557495117
1771082346620379100,0.315379150390625,-0.03909873962402344,-0.04227684438228607,0.007201045751571655
1771082346630319600,0.325319580078125,-0.014548301696777344,-0.020029395818710327,0.006887227296829224
1771082346640260000,0.335260009765625,0.0021276473999023438,-0.007881231606006622,0.004295557737350464
1771082346650200600,0.34520068359375,-0.004868507385253906,0.01302744448184967,0.004211694002151489
1771082346660140800,0.355140869140625,-0.013929367065429688,0.033107198774814606,-0.005098164081573486
1771082346670081300,0.365081298828125,-0.02500438690185547,0.03635532408952713,-0.002635478973388672
1771082346680021800,0.375021728515625,-0.021852493286132812,0.021023325622081757,-0.0002579987049102783
1771082346689962200,0.384962158203125,0.008981704711914062,0.013260632753372192,-0.0027922987937927246
1771082346699902500,0.39490234375,0.0017452239990234375,-0.0012037977576255798,-0.002729862928390503
1771082346709843000,0.404843017578125,-0.016878128051757812,-0.01987747848033905,0.004294157028198242
1771082346719783400,0.414783447265625,-0.014054298400878906,-0.024175122380256653,0.0018191933631896973
1771082346729724000,0.424723876953125,-0.0020208358764648438,-0.032924771308898926,0.004069298505783081
1771082346739664400,0.434664306640625,0.00269317626953125,-0.027489013969898224,0.010914415121078491
1771082346749604900,0.44460498046875,-0.00669097900390625,-0.017663374543190002,0.0011755526065826416
1771082346759545300,0.45454541015625,-0.02283000946044922,-0.0011156201362609863,-0.0035427212715148926
1771082346769485800,0.46448583984375,-0.029242515563964844,0.012674249708652496,-0.0033757686614990234
1771082346779426300,0.47442626953125,-0.0004968643188476562,0.026228904724121094,0.0013523101806640625
1771082346789366800,0.48436669921875,0.0018510818481445312,0.02088412642478943,-0.0010414719581604004
1771082346799307300,0.494307373046875,-0.009874343872070312,0.008464880287647247,-0.0010416805744171143
1771082346809247700,0.504247802734375,-0.03068828582763672,0.0033548325300216675,-0.005719542503356934
1771082346819188200,0.514188232421875,-0.02062511444091797,-0.015675976872444153,-0.00805574655532837
1771082346829128700,0.524128662109375,0.0009088516235351562,-0.027268975973129272,0.008383780717849731
1771082346839069200,0.534069091796875,-0.006134986877441406,-0.03149549663066864,0.01051861047744751
1771082346849009700,0.544009765625,-0.0013151168823242188,-0.0262739360332489,0.0055831968784332275
1771082346858950100,0.5539501953125,-0.017694473266601562,-0.014140091836452484,0.0030974745750427246
1771082346868890600,0.563890625,-0.022020339965820312,-0.0023584887385368347,0.003007948398590088
1771082346878831000,0.5738310546875,0.006579399108886719,0.002144426107406616,-0.004116266965866089
1771082346888771600,0.583771484375,0.004105567932128906,0.02074514329433441,-0.004060685634613037
1771082346898712000,0.593712158203125,-0.012410163879394531,0.020109117031097412,-0.006254136562347412
1771082346908652300,0.60365234375,-0.014522552490234375,0.005500137805938721,-0.008510291576385498
1771082346918592800,0.6135927734375,-0.011900901794433594,0.0005631148815155029,0.0010216236114501953
1771082346928533200,0.623533203125,0.007124900817871094,-0.013788469135761261,0.008029907941818237
1771082346938473700,0.6334736328125,-0.00005340576171875,-0.016131088137626648,-0.0038958489894866943
1771082346948414200,0.643414306640625,-0.007105827331542969,-0.027741514146327972,0.0032027065753936768
1771082346958354700,0.653354736328125,-0.006979942321777344,-0.022794917225837708,0.005475252866744995
1771082346968295200,0.663295166015625,-0.02333354949951172,-0.017938926815986633,-0.0017035603523254395
1771082346978235600,0.673235595703125,-0.0017499923706054688,-0.006007276475429535,0.005261778831481934
1771082346988176100,0.683176025390625,0.005344390869140625,0.012791544198989868,0.00750318169593811
1771082346998116600,0.69311669921875,-0.004161834716796875,0.01234067976474762,-0.009025126695632935
1771082347008057000,0.70305712890625,-0.013508796691894531,0.005038410425186157,0.0005173087120056152
1771082347017997600,0.71299755859375,-0.006217002868652344,0.014235958456993103,-0.0018707811832427979
1771082347037878500,0.73287841796875,-0.006045341491699219,-0.012120112776756287,-0.004294097423553467
1771082347047819000,0.742819091796875,-0.008296012878417969,-0.021572962403297424,0.000460892915725708
1771082347057759500,0.752759521484375,-0.008154869079589844,-0.021349087357521057,0.0027823448181152344
1771082347067700000,0.762699951171875,-0.010369300842285156,-0.023585215210914612,0.007419377565383911
1771082347077640400,0.772640380859375,0.0015783309936523438,-0.01401258260011673,-0.0021466314792633057
1771082347087581000,0.782580810546875,0.0015544891357421875,-0.006851814687252045,-0.006844609975814819
1771082347097521400,0.792521484375,-0.007889747619628906,0.0001896098256111145,0.00040915608406066895
1771082347107462000,0.8024619140625,-0.007755279541015625,0.009471103549003601,0.005084514617919922
1771082347117402400,0.81240234375,-0.009976387023925781,0.00907561182975769,-0.0020882785320281982
1771082347127342600,0.822342529296875,-0.00038909912109375,0.008686721324920654,0.00027564167976379395
1771082347137283000,0.832282958984375,-0.0027332305908203125,-0.003467179834842682,0.00024586915969848633
1771082347147223600,0.8422236328125,-0.0050373077392578125,-0.0036470219492912292,0.00021660327911376953
1771082347157164000,0.8521640625,-0.0096588134765625,-0.020201988518238068,-0.0021664798259735107
1771082347167104500,0.8621044921875,-0.0000782012939453125,-0.027063846588134766,0.00019875168800354004
1771082347177045000,0.872044921875,0.004638671875,-0.022138677537441254,0.0024213790893554688
1771082347186985500,0.8819853515625,0.004565238952636719,-0.017298735678195953,-0.0023527443408966064
1771082347196926000,0.891926025390625,-0.00257110595703125,-0.014791794121265411,0.004724174737930298
1771082347216807000,0.911806884765625,0.007007598876953125,0.006342098116874695,0.002444535493850708
1771082347226747400,0.921747314453125,0.002185821533203125,0.015415959060192108,-0.004684269428253174
1771082347236688000,0.93168798828125,-0.0072612762451171875,0.010215923190116882,-0.004734545946121216
1771082347246628400,0.94162841796875,-0.014199256896972656,0.005099430680274963,-0.007035106420516968
1771082347256568800,0.95156884765625,-0.004542350769042969,-0.016306765377521515,0.00011864304542541504
1771082347266509300,0.96150927734375,0.000247955322265625,-0.01381634920835495,-0.000010460615158081055
1771082347276449800,0.97144970703125,-0.009169578552246094,-0.020886600017547607,-0.00003546476364135742
1771082347286390300,0.981390380859375,-0.009014129638671875,-0.02067415416240692,0.007002830505371094
1771082347296330800,0.991330810546875,-0.0041522979736328125,-0.020465247333049774,-0.004910528659820557
1771082347306271200,1.001271240234375,-0.0040798187255859375,-0.013196922838687897,0.004563331604003906
1771082347316211700,1.011211669921875,0.0030536651611328125,-0.0013411417603492737,-0.00024649500846862793
1771082347326152200,1.021152099609375,0.0030069351196289062,0.0007978975772857666,-0.0002675652503967285
1771082347336092700,1.0310927734375,-0.011166572570800781,0.007711835205554962,-0.0073511600494384766
1771082347355973400,1.050973388671875,-0.003924369812011719,0.004794329404830933,-0.007158100605010986
1771082347365913900,1.060913818359375,-0.001499176025390625,-0.009547024965286255,0.002251267433166504
1771082347375854300,1.070854248046875,0.012654304504394531,-0.009523563086986542,0.002188563346862793
1771082347385794800,1.080794921875,-0.001678466796875,-0.01901964843273163,0.0021269023418426514
1771082347395735300,1.0907353515625,-0.004001617431640625,-0.01412971317768097,-0.0002880096435546875
1771082347405675800,1.10067578125,-0.008640289306640625,-0.021092772483825684,0.00440022349357605
1771082347415616300,1.1106162109375,0.0056324005126953125,-0.018522582948207855,-0.0027611851692199707
1771082347425556700,1.120556640625,0.0008306503295898438,-0.009034290909767151,-0.004992663860321045
1771082347435497200,1.130497314453125,-0.006243705749511719,0.00040096789598464966,-0.004935860633850098
1771082347445437700,1.140437744140625,-0.006140708923339844,0.00496722012758255,0.0022861063480377197
1771082347455378200,1.150378173828125,-0.00603485107421875,-0.00006490945816040039,-0.00013017654418945312
1771082347465318700,1.160318603515625,-0.0082855224609375,0.002154819667339325,-0.0001531541347503662
1771082347475259100,1.170259033203125,0.0012722015380859375,-0.0074339359998703,-0.00017574429512023926
1771082347485199600,1.18019970703125,0.0012502670288085938,-0.012154288589954376,-0.007158935070037842
1771082347495140000,1.19014013671875,-0.017601966857910156,-0.012087367475032806,0.004706710577011108
1771082347505080600,1.20008056640625,-0.0078887939453125,-0.009667262434959412,0.009311705827713013
1771082347515021000,1.21002099609375,-0.005400657653808594,-0.026121869683265686,0.006777077913284302
1771082347524961500,1.21996142578125,-0.0029573440551757812,-0.013948701322078705,-0.00032198429107666016
1771082347534902000,1.229902099609375,-0.009968757629394531,-0.00678582489490509,-0.0050515830516815186
1771082347544842500,1.239842529296875,0.006684303283691406,-0.004556015133857727,0.0019684135913848877
1771082347554783000,1.249782958984375,0.0018682479858398438,-0.004717670381069183,-0.002798140048980713
1771082347564723500,1.259723388671875,-0.000514984130859375,0.004642508924007416,-0.009839534759521484
1771082347574664000,1.269663818359375,-0.002857208251953125,-0.0002790987491607666,0.002070784568786621
1771082347584604200,1.279604248046875,-0.00045490264892578125,-0.0005120337009429932,-0.00259554386138916
1771082347594544600,1.289544677734375,-0.014566421508789062,0.0016132071614265442,-0.014450877904891968
1771082347604485000,1.299485107421875,-0.007254600524902344,0.0014506801962852478,0.002142995595932007
1771082347614425600,1.309425537109375,-0.00006580352783203125,-0.001063428819179535,-0.002728372812271118
1771082347624366000,1.319365966796875,0.004647254943847656,0.0081339031457901,0.002000570297241211
1771082347634306600,1.329306640625,-0.011906623840332031,-0.0062662214040756226,-0.0027652084827423096
1771082347654187500,1.3491875,0.00018787384033203125,-0.04132552444934845,0.008867889642715454
1771082347664128000,1.3591279296875,0.0048961639404296875,-0.06431537866592407,0.006340652704238892
1771082347674068500,1.369068359375,0.0001125335693359375,-0.05641813576221466,0.013170778751373291
1771082347684009000,1.379009033203125,-0.011659622192382812,-0.043943919241428375,-0.0010977387428283691
1771082347693949400,1.388949462890625,0.000308990478515625,-0.024515926837921143,0.0012509524822235107
1771082347703890000,1.398889892578125,0.012074470520019531,0.01578010618686676,-0.005755990743637085
1771082347713830400,1.408830322265625,0.0024547576904296875,0.029507257044315338,-0.012646198272705078
1771082347723771000,1.41877099609375,-0.011713027954101562,0.043005622923374176,-0.010004311800003052
1771082347733711400,1.42871142578125,-0.004452705383300781,0.03979891538619995,-0.007508426904678345
1771082347743651800,1.43865185546875,0.0026903152465820312,0.020168736577033997,-0.009865909814834595
1771082347753592300,1.44859228515625,0.000293731689453125,-0.0038491711020469666,-0.002662450075149536
1771082347763532800,1.45853271484375,-0.009125709533691406,-0.032172225415706635,0.004419684410095215
1771082347773473300,1.468473388671875,-0.008967399597167969,-0.04364508390426636,0.004218965768814087
1771082347783413800,1.478413818359375,-0.008813858032226562,-0.05257241427898407,0.0017692148685455322
1771082347793354200,1.488354248046875,0.0125274658203125,-0.035351745784282684,0.011029809713363647
1771082347803294700,1.498294677734375,0.0029001235961914062,-0.023123547434806824,0.0038586556911468506
1771082347823175400,1.518175537109375,-0.0017375946044921875,0.016980744898319244,0.0013034641742706299
1771082347843056400,1.538056396484375,-0.00167083740234375,0.018247537314891815,-0.0011280179023742676
1771082347862937300,1.557937255859375,0.0005512237548828125,-0.01565062254667282,-0.0034369230270385742
1771082347872877800,1.5678779296875,-0.008871078491210938,-0.017981648445129395,-0.01046764850616455
1771082347882818300,1.577818359375,-0.0016574859619140625,-0.034297674894332886,0.0014531910419464111
1771082347892758800,1.5877587890625,-0.0016260147094726562,-0.041026510298252106,0.006112456321716309
1771082347902699300,1.59769921875,0.0007581710815429688,-0.04518695920705795,0.005985438823699951
1771082347922580200,1.617580322265625,-0.0014972686767578125,0.0004554763436317444,-0.003600984811782837
1771082347942461200,1.637461181640625,-0.008425712585449219,0.01627971976995468,-0.01051744818687439
1771082347952401700,1.647401611328125,0.010555267333984375,0.020479433238506317,-0.012823551893234253
1771082347962342100,1.657342041015625,-0.008452415466308594,0.008230991661548615,-0.0008634328842163086
1771082347972282600,1.66728271484375,-0.005949974060058594,-0.010981276631355286,-0.0009748339653015137
1771082347992163600,1.68716357421875,-0.0033979415893554688,-0.029564708471298218,0.003935813903808594
1771082348012044300,1.707044189453125,-0.0010004043579101562,-0.03139706701040268,-0.00562208890914917
1771082348021984800,1.71698486328125,-0.012754440307617188,-0.02405158430337906,0.001612544059753418
1771082348031925200,1.72692529296875,-0.010184288024902344,-0.01201484352350235,-0.005502372980117798
1771082348051806000,1.746805908203125,-0.0007791519165039062,0.01824072003364563,-0.0077796876430511475
1771082348071687000,1.76668701171875,0.003922462463378906,0.012638457119464874,-0.0005486905574798584
1771082348091567600,1.786567626953125,-0.0009069442749023438,-0.016161516308784485,-0.002918422222137451
1771082348101508000,1.796508056640625,0.001468658447265625,-0.03496408462524414,0.0064203739166259766
1771082348121388800,1.816388916015625,-0.0009279251098632812,-0.03638926148414612,0.0015269815921783447
1771082348141269800,1.836269775390625,-0.0033626556396484375,-0.0097384974360466,-0.0009669065475463867
1771082348161150500,1.856150390625,0.006093025207519531,0.013703577220439911,-0.0033795535564422607
1771082348181031400,1.876031494140625,0.0037431716918945312,0.005857720971107483,0.00128898024559021
1771082348200912100,1.895912109375,0.0011920928955078125,-0.0156727135181427,-0.010419219732284546
1771082348220793000,1.91579296875,0.0036306381225585938,-0.03414030373096466,-0.0009820759296417236
1771082348230733600,1.925733642578125,0.0012187957763671875,-0.03380884975194931,0.0013634562492370605
1771082348250614300,1.9456142578125,0.006011009216308594,-0.0073201656341552734,-0.0035578012466430664
1771082348270495200,1.9654951171875,-0.010548591613769531,0.013482391834259033,-0.0008943676948547363
1771082348280435500,1.975435546875,-0.005660057067871094,0.017728731036186218,-0.012676090002059937
1771082348290376000,1.9853759765625,0.0062046051025390625,0.01023789495229721,-0.010034948587417603
1771082348310257000,2.0052568359375,-0.0032148361206054688,-0.006634511053562164,0.00421452522277832
1771082348330137600,2.0251376953125,-0.007773399353027344,-0.037051521241664886,0.008809536695480347
1771082348340078000,2.035078125,0.011193275451660156,-0.029506713151931763,0.003929018974304199
1771082348350018600,2.0450185546875,0.008653640747070312,-0.02925247699022293,-0.005476832389831543
1771082348359959000,2.054958984375,-0.005612373352050781,-0.01958213746547699,-0.003057628870010376
1771082348379840000,2.074840087890625,-0.0007905960083007812,0.001683659851551056,-0.007829785346984863
1771082348389780500,2.084780517578125,-0.0054836273193359375,0.01093718409538269,-0.005370110273361206
1771082348399721000,2.094720947265625,0.004027366638183594,0.015327878296375275,-0.007660031318664551
1771082348409661400,2.104661376953125,0.0016107559204101562,0.012582503259181976,-0.002950817346572876
1771082348419602000,2.114601806640625,0.0015878677368164062,0.002714909613132477,-0.0052797794342041016
1771082348439483000,2.13448291015625,0.0039806365966796875,-0.025681696832180023,-0.003081411123275757
1771082348449423400,2.14442333984375,0.0015583038330078125,-0.032452166080474854,-0.0005989372730255127
1771082348459363800,2.15436376953125,-0.007882118225097656,-0.03440120816230774,0.004094511270523071
1771082348469304300,2.16430419921875,-0.0030384063720703125,-0.022293895483016968,0.008709758520126343
1771082348479244800,2.174244873046875,-0.000629425048828125,-0.012742675840854645,-0.0032320022583007812
1771082348489185300,2.184185302734375,-0.0006160736083984375,-0.000891268253326416,-0.005558818578720093
1771082348499125800,2.194125732421875,0.004105567932128906,0.0036965683102607727,0.003925889730453491
1771082348509066200,2.204066162109375,0.00875091552734375,0.003499336540699005,-0.010392367839813232
1771082348519006700,2.2140068359375,-0.0055179595947265625,0.0009511038661003113,0.003881514072418213
1771082348528947200,2.223947265625,-0.0007104873657226562,-0.004010893404483795,-0.005727410316467285
1771082348538887700,2.2338876953125,0.008722305297851562,0.0028813034296035767,-0.00801137089729309
1771082348548828000,2.243827880859375,-0.007901191711425781,-0.013782419264316559,-0.0008400678634643555
1771082348558768400,2.253768310546875,0.008716583251953125,-0.02545981854200363,-0.0009531080722808838
1771082348568708900,2.263708984375,0.006218910217285156,-0.022813647985458374,-0.003317892551422119
1771082348578649300,2.2736494140625,-0.0009441375732421875,-0.02492333948612213,-0.0009334087371826172
1771082348588589800,2.28358984375,-0.0009222030639648438,-0.02003689855337143,0.0060179829597473145
1771082348608470800,2.303470703125,-0.003475189208984375,-0.0033831074833869934,-0.0012544095516204834
1771082348618411300,2.313411376953125,-0.008122444152832031,-0.003564275801181793,-0.010675787925720215
1771082348628351700,2.323351806640625,-0.00092315673828125,-0.0013881102204322815,-0.005712449550628662
1771082348648232700,2.343232666015625,-0.0172882080078125,-0.006302312016487122,-0.0008648335933685303
1771082348668113700,2.36311376953125,0.0065212249755859375,-0.0018347576260566711,0.0012502968311309814
1771082348687994600,2.38299462890625,-0.00047588348388671875,-0.020781509578227997,0.005906999111175537
1771082348707875600,2.40287548828125,-0.012265205383300781,-0.022893428802490234,-0.0036388039588928223
1771082348717816000,2.412816162109375,-0.0026407241821289062,-0.010875992476940155,-0.0012489855289459229
1771082348737697000,2.432697021484375,0.002040863037109375,-0.001468457281589508,0.003631502389907837
1771082348757578000,2.452577880859375,-0.00045490264892578125,-0.008725173771381378,-0.0035240352153778076
1771082348767518500,2.4625185546875,-0.005148887634277344,-0.013525888323783875,-0.0012380480766296387
1771082348777458700,2.472458740234375,0.0020055770874023438,-0.02060089260339737,-0.0036987364292144775
1771082348787399200,2.482399169921875,0.006683349609375,-0.022747449576854706,0.0010463893413543701
1771082348807280000,2.502280029296875,0.0019550323486328125,-0.010417632758617401,0.0010024607181549072
1771082348827161000,2.5221611328125,0.00417327880859375,-0.005735568702220917,0.005785048007965088
1771082348847042000,2.5420419921875,0.004317283630371094,-0.0012692585587501526,-0.0037946999073028564
1771082348856982500,2.551982421875,-0.009876251220703125,-0.0061942413449287415,-0.003756582736968994
1771082348866923000,2.561923095703125,0.0020656585693359375,-0.00397423654794693,-0.0038210153579711914
1771082348886804000,2.581803955078125,-0.009805679321289062,-0.01832205057144165,-0.0037445127964019775
1771082348906685000,2.601684814453125,0.013991355895996094,-0.010884933173656464,-0.006203562021255493
1771082348916625400,2.61162548828125,0.0019855499267578125,-0.01319342851638794,0.0010395348072052002
1771082348936506400,2.63150634765625,0.00440216064453125,-0.0036717653274536133,-0.0016168653964996338
1771082348946446800,2.64144677734375,-0.0027332305908203125,-0.006205551326274872,-0.0015118420124053955
1771082348956387300,2.65138720703125,-0.0073909759521484375,-0.003883443772792816,0.0007406175136566162
1771082348976268300,2.671268310546875,-0.005141258239746094,-0.013660870492458344,-0.0016645193099975586
1771082348986208800,2.681208740234375,-0.014469146728515625,-0.00896211713552475,-0.004016190767288208
1771082348996149200,2.691149169921875,0.01403045654296875,-0.00905027985572815,0.0029865801334381104
1771082349006089500,2.70108935546875,0.006735801696777344,-0.01609794795513153,0.002911686897277832
1771082349025970400,2.720970458984375,-0.005016326904296875,-0.01824691891670227,0.002803623676300049
1771082349045851400,2.740851318359375,-0.00276947021484375,-0.0016288384795188904,0.0051548779010772705
1771082349065732400,2.760732421875,0.0136871337890625,-0.0041590407490730286,-0.00426289439201355
1771082349085613300,2.78061328125,-0.005200386047363281,-0.011594809591770172,0.0028108954429626465
1771082349105494300,2.800494384765625,0.006590843200683594,-0.01862359791994095,-0.004275321960449219
1771082349115434500,2.8104345703125,-0.002933502197265625,-0.01374022662639618,0.0028336942195892334
1771082349125375000,2.820375,0.001827239990234375,-0.0160011425614357,0.002761363983154297
1771082349135315500,2.8303154296875,-0.0029077529907226562,-0.02068059891462326,-0.006726950407028198
1771082349145256000,2.840255859375,-0.005206108093261719,-0.015864863991737366,-0.004387587308883667
1771082349155196200,2.850196044921875,0.013720512390136719,-0.003964580595493317,-0.009150087833404541
1771082349165136600,2.86013671875,0.0017232894897460938,-0.008844643831253052,-0.00431409478187561
1771082349175077000,2.8700771484375,-0.010077476501464844,-0.006478562951087952,-0.006519675254821777
1771082349185017600,2.880017578125,0.0065765380859375,0.0028090700507164,0.005233436822891235
1771082349194957800,2.889957763671875,0.008824348449707031,-0.009148016571998596,-0.006649136543273926
1771082349214838800,2.9098388671875,-0.0006866455078125,-0.011505037546157837,0.0029210150241851807
1771082349224779300,2.919779296875,-0.0030260086059570312,-0.013905122876167297,-0.0018613636493682861
1771082349234719500,2.929719482421875,-0.002971649169921875,-0.01391090452671051,-0.006564050912857056
1771082349244660000,2.939659912109375,0.004147529602050781,-0.016270890831947327,-0.001873105764389038
1771082349254600400,2.949600341796875,-0.0053348541259765625,-0.01859155297279358,-0.004221290349960327
1771082349264541000,2.959541015625,-0.00289154052734375,-0.016164928674697876,-0.001719832420349121
1771082349274481200,2.969481201171875,0.0018711090087890625,-0.006613940000534058,-0.0018182098865509033
1771082349284421600,2.979421630859375,-0.00051116943359375,-0.001930728554725647,-0.004167318344116211
1771082349294362000,2.989362060546875,0.0042095184326171875,-0.004490390419960022,-0.008831560611724854
1771082349304302600,2.999302490234375,-0.007628440856933594,-0.002298787236213684,-0.00400090217590332
1771082349314242800,3.009242919921875,0.0019197463989257812,-0.004852317273616791,0.0031035542488098145
1771082349324183300,3.019183349609375,-0.0004673004150390625,-0.019032850861549377,-0.0062885582447052
1771082349334123800,3.029123779296875,0.0018978118896484375,-0.014244571328163147,-0.010917454957962036
1771082349344064300,3.039064208984375,0.008934974670410156,-0.009434178471565247,0.003263235092163086
1771082349354004500,3.04900439453125,-0.0006284713745117188,-0.0141211599111557,0.0008294284343719482
1771082349363945000,3.058945068359375,-0.010036468505859375,-0.014021426439285278,-0.0014618933200836182
1771082349373885400,3.068885498046875,-0.000446319580078125,-0.011569052934646606,-0.0015645623207092285
1771082349383826000,3.078825927734375,-0.005145072937011719,-0.006803244352340698,-0.003917902708053589
1771082349393766100,3.08876611328125,0.0020055770874023438,-0.006825469434261322,0.0008308589458465576
1771082349403706600,3.09870654296875,-0.009795188903808594,-0.004594944417476654,-0.003916710615158081
1771082349413647000,3.108647216796875,-0.007274627685546875,-0.011818788945674896,-0.006230831146240234
1771082349423587600,3.118587646484375,-0.004795074462890625,-0.007150731980800629,0.0009107887744903564
1771082349433527800,3.12852783203125,0.007060050964355469,-0.007269077003002167,-0.003838092088699341
1771082349443468300,3.13846826171875,-0.009534835815429688,-0.01434643566608429,-0.003799229860305786
1771082349453408800,3.14840869140625,0.0023984909057617188,-0.01669915020465851,-0.0037610232830047607
1771082349463349200,3.158349365234375,-0.002346038818359375,-0.01194976270198822,0.0009851455688476562
1771082349473289700,3.168289794921875,0.007113456726074219,-0.009531907737255096,-0.006119281053543091
1771082349483230200,3.178230224609375,-0.004772186279296875,-0.009610563516616821,-0.003688126802444458
1771082349493170700,3.188170654296875,0.004727363586425781,-0.009585998952388763,-0.006006062030792236
1771082349503111200,3.198111083984375,-0.004767417907714844,-0.007309459149837494,0.0012337267398834229
1771082349513051600,3.2080517578125,-0.004685401916503906,-0.01203184574842453,-0.0035205483436584473
1771082349522991900,3.217991943359375,0.00010776519775390625,-0.00736023485660553,0.0034739673137664795
1771082349532932400,3.227932373046875,0.004817962646484375,-0.014537982642650604,-0.0036719441413879395
1771082349542872800,3.237872802734375,-0.00467681884765625,-0.012076996266841888,-0.0036358535289764404
1771082349552813300,3.247813232421875,-0.006949424743652344,-0.009758934378623962,-0.0012460649013519287
1771082349562753800,3.25775390625,0.007294654846191406,-0.012086190283298492,-0.0012504160404205322
1771082349572694300,3.2676943359375,-0.004593849182128906,-0.014476574957370758,-0.00831758975982666
1771082349582634800,3.277634765625,-0.009222984313964844,-0.00966230034828186,0.0035673975944519043
1771082349592575200,3.2875751953125,-0.01142120361328125,-0.004928275942802429,0.005837112665176392
1771082349602515700,3.297515625,0.0005435943603515625,-0.009687177836894989,-0.0013494491577148438
1771082349612456200,3.307456298828125,-0.0018167495727539062,-0.009763233363628387,0.0033565163612365723
1771082349622396700,3.317396728515625,0.00763702392578125,-0.005129426717758179,-0.0015350580215454102
1771082349632337200,3.327337158203125,0.0075130462646484375,-0.014698639512062073,-0.0038888752460479736
1771082349642277600,3.337277587890625,-0.006733894348144531,-0.012336879968643188,0.0008594095706939697
1771082349652218000,3.347218017578125,0.0004482269287109375,-0.010014474391937256,0.0030723512172698975
1771082349662158600,3.35715869140625,0.00044345855712890625,-0.017046064138412476,-0.00406685471534729
1771082349672099000,3.36709912109375,0.0027933120727539062,-0.01935378462076187,0.0030387043952941895
1771082349682039600,3.37703955078125,0.0027475357055664062,-0.009650878608226776,-0.001744389533996582
1771082349691980000,3.38697998046875,0.0003509521484375,-0.011979937553405762,-0.006449013948440552
1771082349701920500,3.39692041015625,0.00034809112548828125,-0.004852980375289917,-0.004012346267700195
1771082349711861000,3.406861083984375,-0.00200653076171875,-0.0025502443313598633,-0.008782356977462769
1771082349721801500,3.416801513671875,0.0074481964111328125,-0.007453851401805878,-0.003952503204345703
1771082349741682200,3.43668212890625,-0.0020875930786132812,-0.009951189160346985,0.0030095279216766357
1771082349761563100,3.456563232421875,-0.0043659210205078125,-0.021725356578826904,0.0006628930568695068
1771082349771503600,3.466503662109375,-0.0019369125366210938,-0.012081682682037354,-0.0040818750858306885
1771082349791384600,3.486384521484375,-0.0065765380859375,-0.016865134239196777,0.000775754451751709
1771082349801325000,3.496324951171875,0.002956390380859375,-0.014464102685451508,0.0029888153076171875
1771082349811265500,3.506265625,0.009973526000976562,-0.012001186609268188,-0.0017959773540496826
1771082349821206000,3.5162060546875,0.0003986358642578125,-0.016849182546138763,-0.0042473673820495605
1771082349841087000,3.5360869140625,-0.00435638427734375,-0.009794682264328003,-0.006707251071929932
1771082349860968000,3.555968017578125,-0.004246711730957031,-0.012094177305698395,-0.0019052326679229736
1771082349880849000,3.575848876953125,0.0050048828125,-0.014276951551437378,0.00020378828048706055
1771082349900729900,3.595729736328125,0.0002994537353515625,-0.016506753861904144,-0.0023307204246520996
1771082349920610800,3.61561083984375,0.00010395050048828125,-0.014179825782775879,-0.0024037063121795654
1771082349930551300,3.62555126953125,-0.011664390563964844,-0.004661925137042999,-0.002490699291229248
1771082349950432300,3.645432373046875,-0.0044078826904296875,-0.0025636330246925354,0.00003725290298461914
1771082349970313000,3.66531298828125,-0.001827239990234375,-0.007442116737365723,-0.004619240760803223
1771082349990194000,3.68519384765625,-0.0017604827880859375,-0.007447570562362671,-0.0022797584533691406
1771082350000134400,3.695134521484375,-0.004078865051269531,-0.009813353419303894,-0.007077395915985107
1771082350010075000,3.705074951171875,0.0030546188354492188,-0.00978223979473114,-0.0022772550582885742
1771082350020015400,3.715015380859375,-0.00170135498046875,-0.0074992552399635315,-0.006974279880523682
1771082350039896300,3.734896240234375,0.005541801452636719,-0.01464904099702835,-0.006870746612548828
1771082350049836800,3.7448369140625,0.000743865966796875,-0.007477596402168274,-0.002072751522064209
1771082350059777300,3.75477734375,0.0007352828979492188,-0.012299083173274994,-0.004417628049850464
1771082350079658200,3.774658203125,-0.006182670593261719,-0.012363642454147339,-0.004601985216140747
1771082350099539000,3.7945390625,0.0081939697265625,-0.01238676905632019,-0.0046173930168151855
1771082350109479400,3.8044794921875,0.0057048797607421875,-0.012214027345180511,0.0001430511474609375
1771082350129360400,3.8243603515625,-0.0108795166015625,-0.012259617447853088,-0.002148061990737915
1771082350139300600,3.834300537109375,0.0010766983032226562,-0.005124837160110474,0.002569913864135742
1771082350159181600,3.854181640625,0.005599021911621094,-0.014699377119541168,-0.0021962523460388184
1771082350179062300,3.874062255859375,0.0008707046508789062,-0.012327075004577637,-0.002176433801651001
1771082350198943200,3.893943115234375,0.012622833251953125,-0.012285590171813965,-0.002177327871322632
1771082350218824000,3.913823974609375,0.0005159378051757812,-0.00985822081565857,-0.006760627031326294
1771082350228764400,3.923764404296875,-0.008904457092285156,-0.007475234568119049,0.0002878904342651367
1771082350238705000,3.933704833984375,0.0053730010986328125,-0.012296758592128754,-0.006804913282394409
1771082350248645400,3.943645263671875,0.019412994384765625,-0.017037920653820038,-0.004362314939498901
1771082350258585600,3.953585693359375,-0.011513710021972656,-0.014535270631313324,-0.004314720630645752
1771082350268526000,3.963526123046875,-0.013671875,-0.007467642426490784,-0.0019136369228363037
1771082350278466600,3.973466552734375,-0.0016689300537109375,-0.014643594622612,0.0004474520683288574
1771082350288407000,3.983406982421875,0.007779121398925781,-0.00982654094696045,-0.006648004055023193
1771082350298347300,3.99334716796875,0.014714241027832031,-0.0075491443276405334,-0.001750558614730835
1771082350308287700,4.003287841796875,-0.0043659210205078125,-0.016976118087768555,-0.006353199481964111
1771082350318228200,4.013228271484375,-0.004290580749511719,-0.012120194733142853,0.0007904469966888428
1771082350328168700,4.023168701171875,-0.0018625259399414062,-0.009699493646621704,-0.003956437110900879
1771082350338109000,4.03310888671875,0.002880096435546875,-0.016736336052417755,-0.0015613138675689697
1771082350348049400,4.04304931640625,0.014606475830078125,-0.016593001782894135,-0.0039147138595581055
1771082350357990000,4.052989990234375,-0.016236305236816406,-0.009491071105003357,-0.0016222000122070312
1771082350367930400,4.062930419921875,-0.008898735046386719,-0.007216095924377441,-0.0016202926635742188
1771082350377870600,4.07287060546875,0.0030269622802734375,-0.01203877478837967,-0.0017215907573699951
1771082350387811000,4.08281103515625,0.0053348541259765625,-0.012075632810592651,-0.004072308540344238
1771082350397751600,4.09275146484375,0.0005435943603515625,-0.007403276860713959,-0.0017771720886230469
1771082350407692000,4.102692138671875,0.00289154052734375,-0.00976978987455368,-0.0017726719379425049
1771082350417632300,4.11263232421875,-0.004220008850097656,-0.00974256545305252,-0.004020631313323975
1771082350427572700,4.12257275390625,0.0076274871826171875,-0.01452629268169403,-0.0017263591289520264
1771082350437513200,4.13251318359375,0.01221466064453125,-0.014419794082641602,0.005238264799118042
1771082350447453700,4.14245361328125,0.012012481689453125,0.0020631030201911926,0.0005191564559936523
1771082350457394000,4.152393798828125,-0.014081001281738281,-0.019397489726543427,-0.001868903636932373
1771082350467334400,4.16233447265625,-0.011488914489746094,-0.0028316155076026917,-0.008925765752792358
1771082350477275000,4.17227490234375,0.00989532470703125,-0.005376242101192474,-0.0017392337322235107
1771082350487215400,4.18221533203125,0.0073795318603515625,-0.00787845253944397,-0.0064439475536346436
1771082350497155600,4.192155517578125,-0.0021572113037109375,-0.01269010454416275,0.0030542314052581787
1771082350507096000,4.202095947265625,-0.006827354431152344,-0.00319700688123703,-0.0017303824424743652
1771082350517036500,4.21203662109375,-0.016124725341796875,-0.010342225432395935,0.0005257129669189453
1771082350526977000,4.22197705078125,-0.004077911376953125,-0.01511596143245697,0.0003899037837982178
1771082350536917500,4.23191748046875,0.0030565261840820312,-0.01745583862066269,-0.0019960105419158936
1771082350546858000,4.24185791015625,-0.0040531158447265625,-0.017402425408363342,-0.001987844705581665
1771082350556798500,4.251798583984375,0.005434989929199219,-0.014995604753494263,0.0003744661808013916
1771082350566739000,4.261739013671875,-0.004069328308105469,-0.005566000938415527,-0.006719768047332764
1771082350576679400,4.271679443359375,0.0030622482299804688,-0.00806504487991333,-0.0018224120140075684
1771082350586620000,4.281619873046875,0.005370140075683594,-0.008168138563632965,0.0005371570587158203
1771082350596560400,4.291560302734375,-0.0041332244873046875,-0.0035609081387519836,-0.001851201057434082
1771082350606500900,4.3015009765625,0.0006475448608398438,-0.008447669446468353,-0.004199773073196411
1771082350616441300,4.31144140625,0.0029935836791992188,-0.015505366027355194,-0.0018005967140197754
1771082350626381800,4.3213818359375,0.007656097412109375,-0.013130158185958862,0.0005585849285125732
1771082350636322300,4.331322265625,-0.006594657897949219,-0.015401221811771393,0.0005241632461547852
1771082350646262800,4.3412626953125,-0.006482124328613281,-0.010571539402008057,-0.0018639862537384033
1771082350656203300,4.351203369140625,0.0030469894409179688,-0.008278556168079376,0.0004962682723999023
1771082350666143700,4.361143798828125,-0.008768081665039062,-0.020149581134319305,-0.0019932985305786133
1771082350676084200,4.371084228515625,0.005509376525878906,-0.010532163083553314,0.00026720762252807617
1771082350686024700,4.381024658203125,0.010128974914550781,-0.017555125057697296,-0.006825238466262817
1771082350695965200,4.390965087890625,-0.004161834716796875,-0.012791462242603302,-0.0067366063594818115
1771082350705905400,4.400905517578125,-0.00408935546875,-0.017422474920749664,0.0027677416801452637
1771082350715846000,4.410845947265625,0.012463569641113281,-0.012559115886688232,-0.0068225860595703125
1771082350725786400,4.420786376953125,0.00048732757568359375,-0.005419351160526276,0.002681910991668701
1771082350735726800,4.430726806640625,-0.00893402099609375,-0.017338037490844727,-0.002096503973007202
1771082350745667300,4.440667236328125,-0.00878143310546875,-0.014932289719581604,-0.004440963268280029
1771082350755607800,4.45060791015625,-0.0015687942504882812,-0.012566633522510529,0.0003165304660797119
1771082350765548300,4.46054833984375,-0.0038909912109375,-0.012492790818214417,0.002538532018661499
1771082350775488800,4.47048876953125,0.012656211853027344,-0.01477447897195816,-0.009300380945205688
1771082350785429200,4.48042919921875,0.007739067077636719,-0.012309543788433075,-0.002107590436935425
1771082350795369700,4.49036962890625,-0.006516456604003906,-0.012240000069141388,0.0003586113452911377
1771082350805310200,4.500310302734375,-0.00640106201171875,-0.012273512780666351,-0.0021286606788635254
1771082350815250700,4.510250732421875,-0.006290435791015625,-0.014660768210887909,-0.004472583532333374
1771082350825191200,4.520191162109375,0.0008802413940429688,-0.009840264916419983,0.0002841353416442871
1771082350835131600,4.530131591796875,0.005578041076660156,-0.00755947083234787,-0.004454314708709717
1771082350845072100,4.540072021484375,0.0007772445678710938,-0.01002529263496399,-0.004303306341171265
1771082350855012600,4.5500126953125,-0.003940582275390625,-0.01480431854724884,-0.006610989570617676
1771082350864953000,4.559953125,0.0031900405883789062,-0.012338884174823761,-0.004171639680862427
1771082350874893600,4.5698935546875,-0.001567840576171875,-0.010016441345214844,-0.004127234220504761
1771082350884834000,4.579833984375,-0.0062465667724609375,-0.01244131475687027,0.007687926292419434
1771082350894774500,4.5897744140625,-0.006138801574707031,-0.012471459805965424,-0.0018824934959411621
1771082350904715000,4.599715087890625,-0.013095855712890625,-0.014753498136997223,-0.001876235008239746
1771082350914655500,4.609655517578125,0.001251220703125,-0.014643199741840363,-0.0018700659275054932
1771082350924596000,4.619595947265625,0.0059413909912109375,-0.014534734189510345,-0.001864016056060791
1771082350934536200,4.6295361328125,-0.0059261322021484375,-0.014529980719089508,-0.001858055591583252
1771082350944476700,4.6394765625,-0.0011129379272460938,-0.016777701675891876,-0.001954108476638794
1771082350954417200,4.649417236328125,0.015389442443847656,-0.011925078928470612,-0.006655246019363403
1771082350964357600,4.659357666015625,0.005719184875488281,-0.009609527885913849,-0.008923739194869995
1771082350974298000,4.669298095703125,0.0009212493896484375,-0.011939272284507751,-0.0018391311168670654
1771082350984238600,4.679238525390625,0.005620002746582031,-0.01423017680644989,0.002773106098175049
1771082350994179000,4.689178955078125,-0.0038881301879882812,-0.00471457839012146,-0.002005547285079956
1771082351004119600,4.69911962890625,-0.0061740875244140625,-0.009582102298736572,0.002711355686187744
1771082351014060000,4.70906005859375,0.005703926086425781,-0.007200546562671661,0.0026398003101348877
1771082351024000500,4.71900048828125,0.0009012222290039062,-0.00731804221868515,0.0026725828647613525
1771082351033941000,4.72894091796875,-0.0038194656372070312,-0.009685978293418884,-0.004459977149963379
1771082351043881200,4.738881103515625,0.008021354675292969,-0.012116357684135437,0.0025502443313598633
1771082351053821700,4.74882177734375,0.007890701293945312,-0.0073382556438446045,0.0001270771026611328
1771082351063762200,4.75876220703125,-0.013425827026367188,-0.014411285519599915,-0.011672884225845337
1771082351073702700,4.76870263671875,0.007988929748535156,-0.002535209059715271,-0.004440575838088989
1771082351083643000,4.778642822265625,0.0031499862670898438,-0.009691454470157623,-0.009100258350372314
1771082351093583400,4.788583251953125,-0.003962516784667969,-0.014374136924743652,-0.0019108057022094727
1771082351103523800,4.79852392578125,0.005526542663574219,-0.014270171523094177,-0.009068846702575684
1771082351113464300,4.80846435546875,0.0077877044677734375,-0.009459331631660461,-0.006486624479293823
1771082351123404500,4.818404541015625,0.0005979537963867188,-0.011788420379161835,-0.0016962885856628418
1771082351133345000,4.828344970703125,0.000591278076171875,-0.00947514921426773,-0.001693129539489746
1771082351143285500,4.838285400390625,-0.00177001953125,-0.011909037828445435,0.0030185580253601074
1771082351153226000,4.84822607421875,-0.0064449310302734375,-0.014302358031272888,-0.006474047899246216
1771082351163166200,4.858166259765625,0.007793426513671875,-0.004782393574714661,-0.0017845630645751953
1771082351173106700,4.868106689453125,-0.001750946044921875,-0.01190117746591568,-0.0017799437046051025
1771082351183047200,4.878047119140625,0.005344390869140625,-0.01654701679944992,0.002933204174041748
1771082351192987600,4.887987548828125,-0.0065135955810546875,-0.009343944489955902,0.005213499069213867
1771082351202927900,4.897927978515625,0.0006618499755859375,-0.004717133939266205,-0.009024292230606079
1771082351212868400,4.907868408203125,-0.011116981506347656,-0.014293216168880463,-0.006544709205627441
1771082351222808800,4.917808837890625,0.0031995773315429688,-0.0165448859333992,-0.0018540620803833008
1771082351232749300,4.927749267578125,0.0007982254028320312,-0.009341835975646973,-0.006658762693405151
1771082351242689500,4.937689453125,0.012559890747070312,-0.007069341838359833,-0.006572902202606201
1771082351252630000,4.947630126953125,-0.00177001953125,-0.01179572194814682,-0.004236102104187012
1771082351262570500,4.957570556640625,0.00061798095703125,-0.009482331573963165,-0.011253505945205688
1771082351272511000,4.967510986328125,-0.001743316650390625,-0.014270402491092682,-0.006382465362548828
1771082351282451200,4.977451171875,0.0077056884765625,-0.009459562599658966,0.0007616877555847168
1771082351292391700,4.9873916015625,0.012290000915527344,-0.011893711984157562,-0.003984719514846802
1771082351302332200,4.997332275390625,0.0073795318603515625,-0.0024138912558555603,0.0007651746273040771
1771082351312272600,5.007272705078125,0.0025510787963867188,-0.01192646473646164,-0.003981292247772217
1771082351322212900,5.017212890625,-0.0021963119506835938,-0.004902318120002747,-0.0015857517719268799
1771082351332153300,5.0271533203125,0.0001983642578125,-0.012121021747589111,-0.0015844404697418213
1771082351342093800,5.03709375,-0.0068645477294921875,-0.012156516313552856,0.0007711350917816162
1771082351352034300,5.047034423828125,0.00031566619873046875,-0.009735211730003357,0.0007331669330596924
1771082351361974500,5.056974609375,0.0073757171630859375,-0.01676829904317856,0.00540316104888916
1771082351371915000,5.0669150390625,0.0025482177734375,-0.009663447737693787,-0.001774907112121582
1771082351381855500,5.07685546875,0.0001506805419921875,-0.007283695042133331,-0.0016685426235198975
1771082351401736200,5.096736083984375,-0.0021638870239257812,-0.009728841483592987,-0.0087260901927948
1771082351411676700,5.1066767578125,0.009650230407714844,-0.009804211556911469,-0.001644819974899292
1771082351421617200,5.1166171875,0.00007534027099609375,-0.012133873999118805,-0.0063498616218566895
1771082351431557600,5.1265576171875,0.0024309158325195312,-0.005007512867450714,-0.0015592873096466064
1771082351441497900,5.136497802734375,0.0000400543212890625,-0.012224473059177399,0.00315016508102417
1771082351451438300,5.146438232421875,0.0047512054443359375,-0.014510639011859894,0.0007182657718658447
1771082351461378800,5.15637890625,0.0023212432861328125,-0.007443420588970184,-0.0016731023788452148
1771082351471319300,5.1663193359375,-0.0024204254150390625,-0.005100682377815247,0.0005820393562316895
1771082351481259500,5.176259521484375,0.0023317337036132812,-0.01221417635679245,-0.004161357879638672
1771082351491200000,5.186199951171875,0.004651069641113281,-0.007539533078670502,0.0029457807540893555
1771082351501140500,5.196140380859375,-0.0001316070556640625,-0.014714300632476807,-0.006545603275299072
1771082351511081000,5.2060810546875,-0.0071887969970703125,-0.00999799370765686,0.0029555559158325195
1771082351521021400,5.216021484375,-0.0023565292358398438,-0.0053602904081344604,-0.004181712865829468
1771082351530962000,5.2259619140625,-0.0023136138916015625,-0.014925666153430939,-0.006491422653198242
1771082351540902400,5.23590234375,-0.006979942321777344,-0.012560129165649414,0.0006545484066009521
1771082351550843000,5.2458427734375,0.0025577545166015625,-0.014942608773708344,-0.006444364786148071
1771082351560783400,5.255783447265625,0.0048732757568359375,-0.010219328105449677,-0.004009068012237549
1771082351570723600,5.2657236328125,0.004796028137207031,-0.007932230830192566,0.0007412135601043701
1771082351580664000,5.2756640625,0.00001049041748046875,-0.012644238770008087,0.007766634225845337
1771082351590604500,5.2856044921875,0.009430885314941406,-0.007962420582771301,-0.004159390926361084
1771082351600545000,5.295544921875,-0.004849433898925781,-0.010319620370864868,-0.0017609000205993652
1771082351610485500,5.305485595703125,0.004651069641113281,-0.0032203420996665955,0.0029519200325012207
1771082351620426000,5.315426025390625,0.006928443908691406,-0.008112795650959015,-0.0017290711402893066
1771082351630366500,5.325366455078125,-0.012020111083984375,-0.005860812962055206,-0.008686333894729614
1771082351640307000,5.335306884765625,-0.0023984909057617188,-0.010706089437007904,0.0032035112380981445
1771082351650247400,5.345247314453125,0.009419441223144531,-0.013017572462558746,-0.004039794206619263
1771082351660188000,5.35518798828125,0.00455474853515625,-0.013034984469413757,-0.0038969814777374268
1771082351670128400,5.36512841796875,-0.007289886474609375,-0.012956507503986359,-0.0015015602111816406
1771082351680068900,5.37506884765625,0.0022525787353515625,-0.01533239334821701,-0.0015016496181488037
1771082351690009300,5.38500927734375,-0.004843711853027344,-0.010605782270431519,-0.008564621210098267
1771082351699949800,5.39494970703125,0.004657745361328125,-0.013020843267440796,0.0033244788646698
1771082351709890300,5.404890380859375,0.0069427490234375,-0.013143278658390045,-0.001566559076309204
1771082351719830800,5.414830810546875,0.0044765472412109375,-0.017873503267765045,-0.0015642642974853516
1771082351729771300,5.424771240234375,-0.0097198486328125,-0.015458844602108002,-0.0015633106231689453
1771082351739711700,5.434711669921875,-0.004845619201660156,-0.01073012501001358,-0.001562356948852539
1771082351749652200,5.44465234375,0.009365081787109375,-0.01078881323337555,0.005501449108123779
1771082351759592700,5.4545927734375,0.009209632873535156,-0.013200834393501282,-0.0015763342380523682
1771082351769533200,5.464533203125,-0.005068778991699219,-0.010864049196243286,-0.00853613018989563
1771082351779473700,5.4744736328125,-0.0026264190673828125,-0.0038576126098632812,0.0009981989860534668
1771082351789414100,5.4844140625,-0.000225067138671875,-0.018051564693450928,0.0009551644325256348
1771082351799354400,5.494354248046875,-0.000217437744140625,-0.020339377224445343,-0.0037957429885864258
1771082351809294800,5.504294921875,-0.004920005798339844,-0.006010212004184723,0.003305286169052124
1771082351819235300,5.5142353515625,0.0022296905517578125,-0.010751090943813324,-0.00394102931022644
1771082351829175800,5.52417578125,0.013968467712402344,-0.008455142378807068,-0.0015461742877960205
1771082351839116300,5.5341162109375,-0.0050945281982421875,-0.013260357081890106,-0.003899812698364258
1771082351849056800,5.544056884765625,0.004410743713378906,-0.013174965977668762,0.0032029449939727783
1771082351858997200,5.553997314453125,-0.00036525726318359375,-0.008379235863685608,-0.0016873478889465332
1771082351868937700,5.563937744140625,-0.005068778991699219,-0.008375190198421478,-0.008645296096801758
1771082351878878200,5.573878173828125,-0.00026988983154296875,-0.015434108674526215,-0.0015653669834136963
1771082351888818700,5.583818603515625,0.0067996978759765625,-0.017666779458522797,0.0007899105548858643
1771082351898759200,5.59375927734375,0.004336357116699219,-0.003484077751636505,-0.003956973552703857
1771082351918640000,5.61364013671875,-0.005137443542480469,-0.01289813220500946,0.0006914436817169189
1771082351928580600,5.62358056640625,-0.000339508056640625,-0.005857795476913452,-0.0016994774341583252
1771082351938521000,5.63352099609375,-0.0026845932006835938,-0.015414886176586151,-0.006404846906661987
1771082351948461600,5.643461669921875,0.009135246276855469,-0.017644718289375305,-0.003970205783843994
1771082351958402000,5.653402099609375,-0.0027856826782226562,-0.015233881771564484,-0.0015748441219329834
1771082351968342500,5.663342529296875,0.004323005676269531,-0.017469890415668488,-0.006180375814437866
1771082351978282800,5.67328271484375,0.004253387451171875,-0.005542851984500885,-0.003748178482055664
1771082351988223200,5.68322314453125,0.008896827697753906,-0.012645825743675232,0.003248840570449829
1771082351998163700,5.693163818359375,0.004042625427246094,-0.012570679187774658,-0.0038933157920837402
1771082352018044400,5.71304443359375,-0.012526512145996094,-0.014817662537097931,-0.0014601349830627441
1771082352037925400,5.73292529296875,-0.002960205078125,-0.014736294746398926,-0.001522660255432129
1771082352057806300,5.752806396484375,-0.0026607513427734375,-0.009809546172618866,0.003147214651107788
1771082352077687000,5.77268701171875,-0.00032806396484375,-0.009959489107131958,0.005505859851837158
1771082352087627500,5.78262744140625,0.011454582214355469,-0.019448228180408478,-0.004130125045776367
1771082352097568000,5.792568115234375,-0.007567405700683594,-0.012196816504001617,-0.006440699100494385
1771082352117448700,5.81244873046875,-0.007309913635253906,-0.00983196496963501,0.00545462965965271
1771082352137329700,5.83232958984375,-0.00011920928955078125,-0.012156829237937927,-0.0016567111015319824
1771082352147270000,5.842269775390625,-0.009531021118164062,-0.014546036720275879,-0.001654207706451416
1771082352157210400,5.85221044921875,-0.0023069381713867188,-0.012084916234016418,0.0007025301456451416
1771082352177091300,5.87209130859375,-0.004694938659667969,-0.012156523764133453,-0.006433397531509399
1771082352187031600,5.882031494140625,-0.0046138763427734375,-0.009735219180583954,-0.003996998071670532
1771082352196972000,5.891971923828125,0.00017452239990234375,-0.009708568453788757,-0.001601189374923706
1771082352206912500,5.90191259765625,-0.0068912506103515625,-0.00507567822933197,-0.001497715711593628
1771082352216853000,5.91185302734375,0.005002021789550781,-0.014645792543888092,0.0007545053958892822
1771082352226793200,5.921793212890625,0.0072765350341796875,-0.016993507742881775,-0.0039917826652526855
1771082352246674200,5.941674072265625,-0.009324073791503906,-0.014385662972927094,-0.0015336275100708008
1771082352256614700,5.95161474609375,-0.0021028518676757812,-0.009674817323684692,-0.003887474536895752
1771082352266555000,5.961554931640625,0.00264739990234375,-0.009751081466674805,-0.006304025650024414
1771082352286435800,5.981435791015625,-0.0021820068359375,-0.009697705507278442,0.0009174346923828125
1771082352296376300,5.991376220703125,0.004917144775390625,-0.007317386567592621,-0.0037296712398529053
1771082352316257000,6.011257080078125,-0.0021448135375976562,-0.014609478414058685,-0.0013411343097686768
1771082352326197500,6.021197509765625,0.0049571990966796875,-0.012147292494773865,0.0010103881359100342
1771082352346078200,6.041078125,-0.004498481750488281,-0.012135200202465057,0.003358691930770874
1771082352365959200,6.060959228515625,0.007508277893066406,-0.007412128150463104,0.003097623586654663
1771082352375899600,6.070899658203125,0.00267791748046875,-0.009880401194095612,-0.011104881763458252
1771082352385839900,6.08083984375,-0.006779670715332031,-0.0075957924127578735,0.0008252859115600586
1771082352395780400,6.0907802734375,0.000400543212890625,-0.012418471276760101,0.0007877051830291748
1771082352405720800,6.100720947265625,0.009815216064453125,-0.012449011206626892,-0.0016048252582550049
1771082352425601500,6.1206015625,0.0001583099365234375,-0.02182556688785553,-0.003995120525360107
1771082352435542000,6.1305419921875,-0.004549980163574219,-0.0168888121843338,0.0007549524307250977
1771082352445482500,6.140482421875,-0.011533737182617188,-0.01213625818490982,0.005425840616226196
1771082352455423000,6.150423095703125,0.0027866363525390625,-0.012069590389728546,-0.004106879234313965
1771082352475303700,6.1703037109375,0.0003070831298828125,-0.014176152646541595,-0.004099428653717041
1771082352495184600,6.1901845703125,-0.006604194641113281,-0.009464092552661896,-0.004052966833114624
1771082352515065300,6.2100654296875,-0.0018291473388671875,-0.00938095897436142,0.0007790327072143555
1771082352525005800,6.220005859375,-0.006503105163574219,-0.004753522574901581,-0.0016133487224578857
1771082352534946300,6.2299462890625,0.003025054931640625,-0.009518489241600037,-0.001611560583114624
1771082352554827300,6.2498271484375,0.005206108093261719,-0.009433560073375702,-0.003923177719116211
1771082352574708200,6.269708251953125,0.007434844970703125,-0.014222927391529083,-0.00855189561843872
1771082352584648700,6.279648681640625,0.004960060119628906,-0.009412884712219238,-0.003725886344909668
1771082352594589200,6.289589111328125,-0.004536628723144531,-0.0070341527462005615,-0.0013358592987060547
1771082352604529700,6.29952978515625,-0.004458427429199219,-0.009406819939613342,-0.00369301438331604
1771082352614470000,6.309469970703125,0.00032806396484375,-0.009487554430961609,-0.0036565661430358887
1771082352624410400,6.319410400390625,0.0026788711547851562,-0.0024021342396736145,0.003442138433456421
1771082352634350800,6.329350830078125,0.004994392395019531,-0.009563758969306946,-0.0014496147632598877
1771082352644291300,6.339291259765625,0.007267951965332031,-0.011894270777702332,-0.0038048624992370605
1771082352654231800,6.349231689453125,0.009504318237304688,-0.009477339684963226,0.0009420216083526611
1771082352664172300,6.35917236328125,0.0022830963134765625,-0.007202610373497009,-0.00841405987739563
1771082352674112800,6.36911279296875,-0.011877059936523438,-0.014382988214492798,-0.008298933506011963
1771082352684053200,6.37905322265625,-0.0069675445556640625,-0.009570285677909851,-0.0058314502239227295
1771082352693993700,6.38899365234375,0.0049228668212890625,-0.007188931107521057,-0.0010520517826080322
1771082352703934200,6.398934326171875,0.009554862976074219,-0.011913321912288666,-0.0035158395767211914
1771082352713874700,6.408874755859375,-0.009434700012207031,-0.004889391362667084,0.0012262463569641113
1771082352723815200,6.418815185546875,-0.0022125244140625,-0.014360696077346802,0.0011807084083557129
1771082352743696100,6.438696044921875,0.0025396347045898438,-0.014214523136615753,-0.0013246536254882812
1771082352753636600,6.44863671875,-0.002208709716796875,-0.011755764484405518,-0.003683239221572876
1771082352773517600,6.468517578125,-0.016137123107910156,-0.007023170590400696,-0.0012987256050109863
1771082352783458000,6.4784580078125,0.0029726028442382812,-0.016557656228542328,-0.008468270301818848
1771082352803339000,6.498339111328125,0.0028409957885742188,-0.01643628627061844,0.005769938230514526
1771082352813279500,6.508279541015625,-0.008975028991699219,-0.006880760192871094,-0.0014142394065856934
1771082352823220000,6.518219970703125,-0.0017576217651367188,-0.01396457850933075,0.005545169115066528
1771082352843100700,6.5381005859375,0.002899169921875,-0.011456862092018127,-0.004126876592636108
1771082352853041200,6.548041259765625,0.0052089691162109375,-0.011503428220748901,-0.0017289221286773682
1771082352862981600,6.557981689453125,0.005125999450683594,-0.013903513550758362,-0.0040795207023620605
1771082352872922000,6.567922119140625,-0.0020170211791992188,-0.011453099548816681,-0.008847147226333618
1771082352882862600,6.577862548828125,-0.0019826889038085938,-0.006584152579307556,-0.004017472267150879
1771082352892803000,6.587802978515625,0.009824752807617188,-0.01602405309677124,-0.0063311755657196045
1771082352902743600,6.59774365234375,0.0073089599609375,-0.008829697966575623,0.0008121132850646973
1771082352912684000,6.60768408203125,-0.009288787841796875,-0.011274360120296478,-0.003935128450393677
1771082352922624500,6.61762451171875,-0.0067768096923828125,-0.006615370512008667,-0.00154036283493042
1771082352932565000,6.62756494140625,0.012173652648925781,-0.011352479457855225,-0.0015385448932647705
1771082352942505500,6.63750537109375,0.00020313262939453125,-0.011400796473026276,-0.0038923025131225586
1771082352952446000,6.647446044921875,-0.006859779357910156,-0.009093992412090302,0.00791892409324646
1771082352962386400,6.657386474609375,0.0003204345703125,-0.00907803326845169,-0.0016553699970245361
1771082352972326700,6.66732666015625,-0.006749153137207031,-0.009062334895133972,0.003157585859298706
1771082352982267100,6.67726708984375,0.0004291534423828125,-0.009046897292137146,-0.0016287565231323242
1771082352992207600,6.68720751953125,0.005133628845214844,-0.004323124885559082,0.0030818581581115723
1771082353002148000,6.697148193359375,0.005053520202636719,-0.006740972399711609,-0.001805126667022705
1771082353012088300,6.70708837890625,-0.011507987976074219,-0.009118519723415375,-0.006508737802505493
1771082353022028800,6.71702880859375,0.0028123855590820312,-0.004396721720695496,-0.0017155110836029053
1771082353031969300,6.72696923828125,0.007476806640625,-0.011518783867359161,-0.011130481958389282
1771082353041909800,6.73690966796875,-0.0020618438720703125,-0.01145925372838974,-0.013325661420822144
1771082353051850000,6.74685009765625,0.0026845932006835938,-0.006797179579734802,-0.0037114620208740234
1771082353061790500,6.75679052734375,-0.0044193267822265625,-0.009173795580863953,-0.003674715757369995
1771082353071731000,6.76673095703125,-0.004342079162597656,-0.009258411824703217,-0.005992889404296875
1771082353081671400,6.77667138671875,0.0004425048828125,-0.0069841668009757996,0.0011435151100158691
1771082353101552000,6.79655224609375,0.000476837158203125,-0.01183106005191803,-0.006028711795806885
1771082353121433000,6.81643310546875,0.0005445480346679688,-0.007039569318294525,-0.008351236581802368
1771082353131373300,6.826373291015625,0.0052471160888671875,-0.009408988058567047,-0.003529846668243408
1771082353141313800,6.836313720703125,0.009869575500488281,-0.01419512927532196,0.0013130903244018555
1771082353161194800,6.85619482421875,-0.0068492889404296875,-0.011820942163467407,-0.010653525590896606
1771082353171135000,6.866135009765625,0.0026845932006835938,-0.0094052255153656,-0.003438204526901245
1771082353181075500,6.876075439453125,0.00028896331787109375,-0.007029779255390167,-0.0010517239570617676
1771082353200956400,6.895956298828125,-0.0019502639770507812,-0.014292135834693909,-0.0033818483352661133
1771082353220837000,6.915837158203125,0.0144805908203125,-0.007166899740695953,-0.0032572150230407715
1771082353240718000,6.935718017578125,-0.004589080810546875,-0.009637653827667236,-0.00316011905670166
1771082353250658300,6.945658203125,-0.00450897216796875,-0.01677742600440979,0.0015760362148284912
1771082353260598800,6.955598876953125,-0.0067844390869140625,-0.009675562381744385,0.0015259087085723877
1771082353270539300,6.965539306640625,-0.0019559860229492188,-0.012106120586395264,-0.0009808540344238281
1771082353280479700,6.975479736328125,0.002788543701171875,-0.00978756695985794,-0.0009896159172058105
1771082353290420000,6.985419921875,-0.0019636154174804688,-0.014468647539615631,0.0013560652732849121
1771082353300360400,6.9953603515625,0.00042438507080078125,-0.005047827959060669,-0.0009440481662750244
1771082353310301000,7.005301025390625,-0.0042877197265625,-0.007555507123470306,0.0014008581638336182
1771082353320241400,7.015241455078125,0.0004949569702148438,-0.009919479489326477,-0.00806477665901184
1771082353340122000,7.0351220703125,-0.0066547393798828125,-0.002755299210548401,-0.0010828077793121338
1771082353350062600,7.0450625,-0.008896827697753906,-0.012364082038402557,-0.010405153036117554
1771082353360003000,7.055003173828125,0.003025054931640625,-0.009939298033714294,0.0015146434307098389
1771082353369943300,7.064943359375,0.007686614990234375,-0.010011151432991028,-0.0008900165557861328
1771082353379883800,7.0748837890625,0.005208015441894531,-0.019499003887176514,-0.005608886480331421
1771082353389824300,7.08482421875,-0.004292488098144531,-0.012348629534244537,0.001522362232208252
1771082353399764700,7.0947646484375,0.0004940032958984375,-0.012380331754684448,-0.0009843409061431885
1771082353409705000,7.104705078125,-0.0018663406372070312,-0.007601000368595123,-0.0009930431842803955
1771082353419645400,7.1146455078125,-0.0041866302490234375,-0.009964220225811005,-0.001001596450805664
1771082353429586000,7.1245859375,0.010012626647949219,-0.01003565639257431,0.006052881479263306
1771082353439526400,7.1345263671875,0.0051364898681640625,-0.007646545767784119,-0.003389686346054077
1771082353449466600,7.144466552734375,0.0003414154052734375,-0.00765470415353775,-0.0009021162986755371
1771082353459407000,7.154406982421875,-0.0020151138305664062,-0.007764637470245361,-0.0009121894836425781
1771082353469347600,7.16434765625,-0.013747215270996094,-0.014833725988864899,-0.005732625722885132
1771082353489228300,7.184228271484375,0.0077457427978515625,-0.00770915299654007,-0.001003354787826538
1771082353499168800,7.194168701171875,0.0052661895751953125,-0.010169312357902527,-0.001013040542602539
1771082353509109200,7.204109130859375,0.00047397613525390625,-0.007883042097091675,0.0013330280780792236
1771082353519049700,7.2140498046875,-0.0042400360107421875,-0.017307601869106293,0.0012869834899902344
1771082353528990000,7.223989990234375,0.0052509307861328125,-0.007737554609775543,-0.005822479724884033
1771082353538930400,7.233930419921875,0.0028123855590820312,-0.017260141670703888,-0.0033975541591644287
1771082353548871000,7.243870849609375,-0.004294395446777344,-0.007690884172916412,-0.0033660531044006348
1771082353558811400,7.253811279296875,-0.004220008850097656,-0.005344010889530182,-0.005689352750778198
1771082353568751900,7.263751953125,0.0005626678466796875,-0.01726394146680832,0.0037975311279296875
1771082353578692400,7.2736923828125,0.00055694580078125,-0.017213717103004456,0.001354813575744629
1771082353588632800,7.2836328125,-0.0018033981323242188,-0.012455739080905914,-0.0010471642017364502
1771082353598573300,7.2935732421875,0.0029392242431640625,-0.017191082239151,-0.0034103989601135254
1771082353608513800,7.303513671875,0.0005397796630859375,-0.0194963738322258,-0.00337865948677063
1771082353618454300,7.313454345703125,-0.0018205642700195312,-0.009991742670536041,-0.003347456455230713
1771082353628394800,7.323394775390625,0.0029211044311523438,-0.005252227187156677,0.0013917982578277588
1771082353638335200,7.333335205078125,0.005230903625488281,-0.014819398522377014,-0.001010805368423462
1771082353648275500,7.343275390625,-0.0019178390502929688,-0.010203234851360321,-0.00327146053314209
1771082353658216000,7.3532158203125,-0.006591796875,-0.007814489305019379,-0.0032420456409454346
1771082353668156400,7.363156494140625,-0.004120826721191406,-0.014984644949436188,-0.005669355392456055
1771082353678097000,7.373096923828125,-0.0016946792602539062,-0.012618109583854675,-0.0055999755859375
1771082353688037400,7.383037353515625,0.007756233215332031,-0.01018909364938736,-0.005633652210235596
1771082353697977900,7.392977783203125,-0.0017871856689453125,-0.007800579071044922,0.0038523077964782715
1771082353707918300,7.40291845703125,-0.0017547607421875,-0.010160468518733978,-0.003299891948699951
1771082353717858800,7.41285888671875,-0.006430625915527344,-0.010228633880615234,0.0014385879039764404
1771082353727799300,7.42279931640625,0.0030965805053710938,-0.01725664734840393,-0.003319084644317627
1771082353737739800,7.43273974609375,0.005402565002441406,-0.01239604502916336,-0.0032888948917388916
1771082353747680300,7.44268017578125,0.0029611587524414062,-0.005364052951335907,-0.0009048879146575928
1771082353757620700,7.452620849609375,-0.015923500061035156,-0.007764555513858795,0.0015412569046020508
1771082353767561200,7.462561279296875,0.0031785964965820312,-0.012479342520236969,0.0014904439449310303
1771082353777501700,7.472501708984375,0.0007781982421875,-0.007800258696079254,0.0013386011123657227
1771082353787442200,7.482442138671875,0.005475044250488281,-0.012616358697414398,-0.0033155083656311035
1771082353797382700,7.492382568359375,-0.006382942199707031,-0.012538529932498932,0.0013200044631958008
1771082353807323100,7.5023232421875,0.0054988861083984375,-0.017275653779506683,0.0012728869915008545
1771082353817263600,7.512263671875,-0.0016527175903320312,-0.014870934188365936,-0.008190631866455078
1771082353827204000,7.5222041015625,-0.0016183853149414062,-0.012503139674663544,-0.0011195540428161621
1771082353837144600,7.53214453125,0.010186195373535156,-0.010076045989990234,0.003480672836303711
1771082353847085000,7.5420849609375,0.002956390380859375,-0.01485421508550644,-0.0013110339641571045
1771082353857025500,7.552025634765625,0.0005588531494140625,-0.010033652186393738,-0.008479118347167969
1771082353866966000,7.561966064453125,-0.008863449096679688,-0.017166830599308014,0.0010542571544647217
1771082353876906200,7.57190625,0.005414009094238281,-0.017118223011493683,-0.008405625820159912
1771082353886846700,7.5818466796875,-0.0017385482788085938,-0.007653236389160156,-0.00348016619682312
1771082353906727700,7.601727783203125,0.005389213562011719,-0.02192172408103943,-0.0057679712772369385
1771082353916668200,7.611668212890625,0.010011672973632812,-0.012376680970191956,0.0060745179653167725
1771082353936549000,7.631549072265625,0.009847640991210938,-0.01706875115633011,-0.0035774707794189453
1771082353956430000,7.65143017578125,0.00030517578125,-0.005257755517959595,0.003536790609359741
1771082353966370300,7.661370361328125,-0.0020513534545898438,-0.017182275652885437,-0.003608882427215576
1771082353976310800,7.671310791015625,0.012111663818359375,-0.009965457022190094,0.0011334419250488281
1771082353996191700,7.691191650390625,-0.006801605224609375,-0.010146357119083405,-0.005899012088775635
1771082354006132000,7.701132080078125,-0.00197601318359375,-0.010214768350124359,-0.0011172294616699219
1771082354016072400,7.711072509765625,0.007476806640625,-0.019597329199314117,0.0012305676937103271
1771082354035953400,7.730953369140625,0.005040168762207031,-0.014790475368499756,-0.008120149374008179
1771082354045893600,7.7408935546875,-0.0021038055419921875,-0.007718585431575775,-0.0033013224601745605
1771082354055834000,7.750834228515625,-0.00206756591796875,-0.0054731592535972595,-0.0008152127265930176
1771082354075715000,7.770715087890625,0.002716064453125,-0.010406069457530975,0.0015541613101959229
1771082354085655600,7.780655517578125,-0.00203704833984375,-0.01047014445066452,0.0016050338745117188
1771082354095595800,7.790595703125,-0.011417388916015625,-0.012785539031028748,-0.0008011162281036377
1771082354105536300,7.800536376953125,-0.0041599273681640625,-0.015164241194725037,0.0015414059162139893
1771082354115476700,7.810476806640625,-0.004086494445800781,-0.015145860612392426,0.0014893114566802979
1771082354125417200,7.820417236328125,-0.0016603469848632812,-0.015130937099456787,-0.0009149312973022461
1771082354145298000,7.8402978515625,0.0031099319458007812,-0.010409042239189148,0.0014198124408721924
1771082354155238400,7.85023828125,-0.0016469955444335938,-0.008118771016597748,-0.0009832680225372314
1771082354165179000,7.860178955078125,-0.00632476806640625,-0.015283860266208649,-0.008054882287979126
1771082354175119000,7.870119140625,0.0008478164672851562,-0.019972078502178192,0.0014701485633850098
1771082354195000000,7.89,0.007927894592285156,-0.005672954022884369,-0.0009433329105377197
1771082354214880800,7.909880859375,-0.0039768218994140625,-0.015216730535030365,-0.0010246038436889648
1771082354234761700,7.92976171875,0.0031442642211914062,-0.010231725871562958,-0.008026212453842163
1771082354254642400,7.949642333984375,0.0008144378662109375,-0.015190869569778442,-0.0010049641132354736
1771082354274523400,7.9695234375,-0.008668899536132812,-0.010427743196487427,0.0015348196029663086
1771082354284463900,7.9794638671875,-0.001461029052734375,-0.007933348417282104,-0.005578756332397461
1771082354294404000,7.989404052734375,0.0032777786254882812,-0.007936716079711914,-0.0032584965229034424
1771082354314285000,8.00928515625,-0.0015344619750976562,-0.01752336323261261,-0.005492210388183594
1771082354324225500,8.0192255859375,-0.006214141845703125,-0.015114501118659973,0.001637101173400879
1771082354334165800,8.029165771484376,0.0009555816650390625,-0.01264074444770813,-0.0007708966732025146
1771082354344106200,8.039106201171874,0.000942230224609375,-0.010211348533630371,-0.0007831752300262451
1771082354363987200,8.0589873046875,0.000995635986328125,-0.010360658168792725,-0.0008855760097503662
1771082354383868000,8.078867919921874,0.008032798767089844,-0.008174166083335876,-0.0056146979331970215
1771082354393808400,8.088808349609375,-0.0038728713989257812,-0.010527819395065308,0.003972858190536499
1771082354403748900,8.098748779296875,-0.0038042068481445312,-0.015298448503017426,-0.0008270740509033203
1771082354413689000,8.108689208984375,0.008032798767089844,-0.010470464825630188,-0.0008383989334106445
1771082354423629600,8.118629638671875,0.000843048095703125,-0.015242047607898712,-0.0033057332038879395
1771082354433570000,8.128570068359375,-0.001522064208984375,-0.005808323621749878,0.003787130117416382
1771082354443510500,8.138510498046875,0.0032148361206054688,-0.010555706918239594,0.003698885440826416
1771082354453450800,8.14845068359375,-0.001544952392578125,-0.012869678437709808,-0.0010964572429656982
1771082354473331700,8.168331787109375,0.003299713134765625,-0.00578974187374115,0.0012442469596862793
1771082354483272200,8.178272216796875,0.000896453857421875,-0.005828842520713806,-0.0036121010780334473
1771082354503153000,8.19815283203125,0.0007581710815429688,-0.012847177684307098,-0.00364568829536438
1771082354523033900,8.218033935546876,0.005415916442871094,-0.010575339198112488,-0.003817647695541382
1771082354542914600,8.23791455078125,0.007676124572753906,-0.015265971422195435,-0.00613480806350708
1771082354552855000,8.24785498046875,0.00519561767578125,-0.015249043703079224,-0.005955785512924194
1771082354572735700,8.26773583984375,0.005070686340332031,-0.012864850461483002,-0.001255810260772705
1771082354582676200,8.27767626953125,0.0026350021362304688,-0.008182503283023834,0.001095592975616455
1771082354602557200,8.29755712890625,0.00039196014404296875,-0.010574504733085632,0.0011899173259735107
1771082354622438100,8.317438232421875,0.0003833770751953125,-0.020031645894050598,-0.005939960479736328
1771082354642319000,8.337319091796875,0.0027341842651367188,-0.015210434794425964,-0.008406609296798706
1771082354652259600,8.347259521484375,0.005045890808105469,-0.012738235294818878,-0.0035830140113830566
1771082354662200000,8.357199951171875,0.000255584716796875,-0.007952935993671417,-0.0011941194534301758
1771082354672140500,8.367140625,0.00025463104248046875,-0.012766502797603607,0.005863547325134277
1771082354682080800,8.377080810546875,0.0002536773681640625,-0.01268932968378067,-0.003676474094390869
1771082354692021200,8.387021240234375,0.0002536773681640625,-0.012715354561805725,-0.0012860298156738281
1771082354701961700,8.396961669921875,-0.00445556640625,-0.008032344281673431,-0.003644019365310669
1771082354711902200,8.406902099609376,0.005039215087890625,-0.010490283370018005,0.0011001825332641602
1771082354721842700,8.4168427734375,-0.0021047592163085938,-0.015261560678482056,-0.003651857376098633
1771082354731783200,8.426783203125,-0.002063751220703125,-0.01043420284986496,-0.006072342395782471
1771082354741723600,8.4367236328125,-0.0020284652709960938,-0.01756071299314499,0.0035228431224823
1771082354751664000,8.4466640625,0.005072593688964844,-0.015151254832744598,0.003439009189605713
1771082354761604600,8.4566044921875,-0.004426002502441406,-0.00796828418970108,-0.00606188178062439
1771082354771545000,8.466545166015624,0.0027141571044921875,-0.010427288711071014,0.0010769367218017578
1771082354781485600,8.476485595703124,0.0026750564575195312,-0.015199616551399231,0.005640536546707153
1771082354791426000,8.486426025390625,-0.0020751953125,-0.010373294353485107,-0.0038957595825195312
1771082354801366500,8.496366455078125,-0.009099006652832031,-0.01514967530965805,-0.0015003681182861328
1771082354821247500,8.51624755859375,-0.006518363952636719,-0.017552733421325684,-0.0037922263145446777
1771082354831188000,8.52618798828125,0.0006589889526367188,-0.012684032320976257,-0.0015030503273010254
1771082354841128400,8.53612841796875,0.0006513595581054688,-0.015064433217048645,0.0008511841297149658
1771082354851069000,8.54606884765625,0.0029935836791992188,-0.005531765520572662,-0.0014405250549316406
1771082354861009400,8.556009521484375,0.0029449462890625,-0.010385669767856598,-0.0036940276622772217
1771082354870950000,8.565949951171875,-0.0041637420654296875,-0.005639590322971344,0.005759596824645996
1771082354880890400,8.575890380859375,0.00061798095703125,-0.01284915953874588,0.00093117356300354
1771082354890830800,8.585830810546875,-0.006453514099121094,-0.010620124638080597,-0.001361846923828125
1771082354900771300,8.595771240234376,0.0007181167602539062,-0.008326336741447449,0.003446221351623535
1771082354910711600,8.605711669921876,0.005417823791503906,-0.01303175836801529,-0.0036992132663726807
1771082354920652000,8.615652099609376,0.0029764175415039062,-0.01540636271238327,-0.0013083815574645996
1771082354930592500,8.625592529296876,0.0005769729614257812,-0.008324198424816132,-0.0013116896152496338
1771082354940533000,8.635532958984374,-0.0041370391845703125,-0.006068676710128784,0.0033936500549316406
1771082354950473500,8.645473388671874,0.007706642150878906,-0.015622228384017944,-0.003750920295715332
1771082354960414000,8.6554140625,-0.0018358230590820312,-0.017851755023002625,-0.0013592243194580078
1771082354970354400,8.6653544921875,-0.011219024658203125,-0.013083137571811676,0.0033469200134277344
1771082354980295000,8.675294921875,0.0007410049438476562,-0.0060396939516067505,-0.0013406872749328613
1771082354990235400,8.6852353515625,-0.011042594909667969,-0.013239435851573944,-0.0035958588123321533
1771082355010116000,8.7051162109375,-0.006157875061035156,-0.015663273632526398,-0.0036458075046539307
1771082355029997000,8.7249970703125,-0.0013189315795898438,-0.006078831851482391,0.00584334135055542
1771082355039937300,8.734937255859375,-0.0036468505859375,-0.008569315075874329,-0.0013420581817626953
1771082355049877800,8.744877685546875,-0.0012264251708984375,-0.010916389524936676,0.0032618939876556396
1771082355069758700,8.7647587890625,0.0009775161743164062,-0.010987333953380585,-0.003699779510498047
1771082355079699200,8.77469921875,0.0009641647338867188,-0.013294115662574768,-0.0013089478015899658
1771082355099580000,8.794579833984375,-0.0015325546264648438,-0.01104678213596344,-0.0014737248420715332
1771082355119460900,8.8144609375,0.000919342041015625,-0.006381407380104065,-0.001514047384262085
1771082355139341600,8.834341552734376,-0.0015802383422851562,-0.015919260680675507,-0.0013726651668548584
1771082355159222500,8.854222412109374,0.003147125244140625,-0.013447120785713196,-0.006005525588989258
1771082355169162800,8.864162841796874,-0.0016107559204101562,-0.013358600437641144,-0.005930542945861816
1771082355179103200,8.874103271484374,-0.0039348602294921875,-0.013268396258354187,0.00826767086982727
1771082355189043700,8.884043701171874,0.0008459091186523438,-0.010930456221103668,-0.00612291693687439
1771082355198984200,8.893984130859375,0.0031890869140625,-0.010985784232616425,-0.0013373792171478271
1771082355208924400,8.90392431640625,-0.003922462463378906,-0.011040188372135162,-0.006048798561096191
1771082355228805400,8.923805419921875,-0.0039014816284179688,-0.013436473906040192,-0.0013307929039001465
1771082355248686000,8.94368603515625,0.00078582763671875,-0.008574381470680237,-0.0037693679332733154
1771082355258626600,8.95362646484375,0.005480766296386719,-0.015629969537258148,0.0010788142681121826
1771082355268567000,8.963567138671875,-0.004023551940917969,-0.013252682983875275,0.003390014171600342
1771082355278507500,8.973507568359375,-0.0039539337158203125,-0.010813102126121521,-0.0014002025127410889
1771082355288447700,8.98344775390625,-0.0038824081420898438,-0.010768480598926544,-0.0038581788539886475
1771082355298388200,8.99338818359375,0.005602836608886719,-0.013183966279029846,0.000890880823135376
1771082355308328700,9.00332861328125,0.000804901123046875,-0.015556029975414276,-0.0038576722145080566
1771082355318269200,9.013269287109376,-0.010976791381835938,-0.017888560891151428,-0.0038184821605682373
1771082355328209400,9.02320947265625,-0.0084381103515625,-0.013119325041770935,0.0010305345058441162
1771082355338150000,9.03314990234375,0.0034770965576171875,-0.01784675568342209,0.003342539072036743
1771082355348090400,9.04309033203125,0.0034275054931640625,-0.022597312927246094,-0.00154876708984375
1771082355367971000,9.06297119140625,-0.008296012878417969,-0.015170931816101074,0.0008039176464080811
1771082355377911600,9.07291162109375,-0.0010919570922851562,-0.00809267908334732,-0.0015888810157775879
1771082355387852000,9.08285205078125,0.0012836456298828125,-0.012801989912986755,-0.008650392293930054
1771082355397792500,9.09279248046875,0.003620147705078125,-0.005763217806816101,-0.0014684498310089111
1771082355407732700,9.102732666015624,0.00356292724609375,-0.005802750587463379,-0.006177693605422974
1771082355417673200,9.112673095703125,0.0011539459228515625,-0.008297823369503021,0.003317326307296753
1771082355427613700,9.12261376953125,0.0034894943237304688,-0.013105615973472595,-0.0037240684032440186
1771082355437554200,9.13255419921875,-0.0012731552124023438,-0.01077038049697876,-0.0013328194618225098
1771082355447494400,9.142494384765625,0.0011081695556640625,-0.015431903302669525,-0.008501797914505005
1771082355457435000,9.152434814453125,-0.0036153793334960938,-0.010700441896915436,-0.0036779046058654785
1771082355467375400,9.162375244140625,-0.010615348815917969,-0.013008840382099152,-0.005997300148010254
1771082355477315800,9.17231591796875,0.006046295166015625,-0.017738111317157745,-0.0012138783931732178
1771082355487256000,9.182256103515625,-0.0011148452758789062,-0.017578065395355225,-0.0012187659740447998
1771082355497196500,9.192196533203125,-0.0034475326538085938,-0.010357789695262909,-0.0035778582096099854
1771082355507137000,9.202136962890625,-0.0033893585205078125,-0.012773796916007996,-0.0010884404182434082
1771082355517077500,9.212077392578125,-0.0009746551513671875,-0.00553169846534729,-0.0035516023635864258
1771082355527017700,9.222017822265625,0.006107330322265625,-0.010280527174472809,-0.003518819808959961
1771082355536958200,9.231958251953126,0.0012979507446289062,-0.007788576185703278,-0.0011309981346130371
1771082355546898700,9.241898681640626,-0.0010747909545898438,-0.010250553488731384,0.005925625562667847
1771082355556839200,9.251839111328126,0.003658294677734375,-0.015025801956653595,-0.0013630390167236328
1771082355566779400,9.261779296875,0.001247406005859375,-0.012655414640903473,-0.0037210285663604736
1771082355576720000,9.271719970703124,0.005938529968261719,-0.019744880497455597,0.003378748893737793
1771082355586660400,9.281660400390624,0.0034875869750976562,-0.01719708740711212,0.0009430348873138428
1771082355606541000,9.301541015625,0.0058135986328125,-0.012427195906639099,-0.0014935135841369629
1771082355616481500,9.3114814453125,-0.006051063537597656,-0.010103270411491394,0.005569159984588623
1771082355626422000,9.321422119140625,-0.008299827575683594,-0.012526676058769226,0.0007426440715789795
1771082355636362500,9.331362548828125,-0.0034494400024414062,-0.010201089084148407,-0.0016491413116455078
1771082355646302700,9.341302734375,-0.0010356903076171875,-0.007812365889549255,0.0007075369358062744
1771082355656243200,9.3512431640625,-0.0057277679443359375,-0.019589245319366455,-0.003936052322387695
1771082355666183700,9.36118359375,0.0014352798461914062,-0.010083042085170746,-0.0015412569046020508
1771082355676124200,9.371124267578125,-0.0009441375732421875,-0.014762341976165771,-0.0014374852180480957
1771082355686064600,9.381064697265625,0.0037841796875,-0.010045185685157776,-0.008501529693603516
1771082355696005000,9.391005126953125,-0.005692481994628906,-0.014820702373981476,-0.0013233423233032227
1771082355705945600,9.400945556640625,-0.0008859634399414062,-0.002937786281108856,0.005736500024795532
1771082355715886000,9.410885986328125,0.006195068359375,-0.010087311267852783,0.0009071826934814453
1771082355725826600,9.42082666015625,0.0013885498046875,-0.00770048052072525,-0.003943532705307007
1771082355735767000,9.43076708984375,0.00372314453125,-0.010163925588130951,-0.003902912139892578
1771082355745707500,9.44070751953125,-0.0057506561279296875,-0.00777897983789444,0.003099292516708374
1771082355755648000,9.45064794921875,-0.005652427673339844,-0.012493520975112915,-0.0016860663890838623
1771082355765588200,9.460588134765626,-0.0031995773315429688,-0.005459882318973541,-0.006391674280166626
1771082355775528700,9.47052880859375,0.0015687942504882812,-0.017377860844135284,0.0006507337093353271
1771082355785469200,9.48046923828125,0.0038995742797851562,-0.012515224516391754,-0.008802413940429688
1771082355795409700,9.49040966796875,-0.005583763122558594,-0.019505120813846588,-0.006224632263183594
1771082355805350100,9.50035009765625,-0.007841110229492188,-0.010000325739383698,-0.003791719675064087
1771082355815290600,9.51029052734375,0.001712799072265625,-0.00761810690164566,-0.0038542449474334717
1771082355825231000,9.520231201171875,0.008751869201660156,-0.002918131649494171,-0.006271302700042725
1771082355835171600,9.530171630859375,-0.0031614303588867188,-0.012521021068096161,0.0008696913719177246
1771082355845112000,9.540112060546875,-0.00310516357421875,-0.005483768880367279,-0.00152549147605896
1771082355855052500,9.550052490234375,-0.0006961822509765625,-0.012692756950855255,-0.001525193452835083
1771082355874933500,9.56993359375,0.003841400146484375,-0.01964418590068817,0.0009298920631408691
1771082355884874000,9.5798740234375,0.010844230651855469,-0.019554272294044495,0.003243565559387207
1771082355894814500,9.589814453125,-0.0011043548583984375,-0.017111554741859436,-0.006252795457839966
1771082355904755000,9.5997548828125,-0.010499000549316406,-0.012352101504802704,-0.0038206875324249268
1771082355914695400,9.6096953125,-0.000904083251953125,-0.014636121690273285,-0.003782123327255249
1771082355924636000,9.619635986328126,0.0061779022216796875,-0.012275375425815582,-0.0037442147731781006
1771082355934576400,9.629576416015626,0.001369476318359375,-0.01220637559890747,-0.0037069320678710938
1771082355944516900,9.639516845703126,-0.0010042190551757812,-0.0028232261538505554,-0.001315981149673462
1771082355954457300,9.649457275390626,0.0013713836669921875,-0.017139457166194916,-0.003673464059829712
1771082355964397800,9.659397705078124,0.0013513565063476562,-0.005217902362346649,-0.005991637706756592
1771082355974338300,9.66933837890625,0.006041526794433594,-0.012431323528289795,0.0011459887027740479
1771082355984278500,9.679278564453124,-0.008182525634765625,-0.010005421936511993,0.001101762056350708
1771082356004159500,9.699159423828124,-0.0033884048461914062,-0.014877744019031525,-0.001360476016998291
1771082356014100000,9.709099853515625,0.0037336349487304688,-0.012411072850227356,0.0009913742542266846
1771082356033981000,9.72898095703125,-0.0035638809204101562,-0.0076581984758377075,-0.008548915386199951
1771082356053862000,9.74886181640625,0.0034990310668945312,-0.00992807000875473,0.0034787654876708984
1771082356063802400,9.75880224609375,-0.0012645721435546875,-0.012354396283626556,0.0010413825511932373
1771082356073742600,9.76874267578125,0.001110076904296875,-0.005221180617809296,-0.005962073802947998
1771082356083683000,9.77868310546875,-0.0012607574462890625,-0.009978346526622772,0.005883663892745972
1771082356093623600,9.78862353515625,-0.0035905838012695312,-0.007593333721160889,0.0010519027709960938
1771082356103564000,9.79856396484375,-0.0035266876220703125,-0.012409709393978119,-0.0037006139755249023
1771082356113504300,9.808504150390625,-0.008172988891601562,-0.012440375983715057,0.001044541597366333
1771082356123444700,9.81844482421875,0.0037384033203125,-0.010116219520568848,0.0010020136833190918
1771082356133385200,9.82838525390625,0.00603485107421875,-0.01018194854259491,-0.006103992462158203
1771082356143325700,9.83832568359375,-0.010542869567871094,-0.01024974137544632,-0.008381664752960205
1771082356153266000,9.848265869140626,-0.008006095886230469,-0.0103163942694664,0.005756795406341553
1771082356173147000,9.86814697265625,0.0036830902099609375,-0.01258108764886856,0.003280133008956909
1771082356183087400,9.87808740234375,0.0012712478637695312,-0.010254591703414917,0.003200352191925049
1771082356202968000,9.897968017578124,-0.00112152099609375,-0.014955803751945496,-0.003798544406890869
1771082356212908500,9.907908447265624,-0.0034542083740234375,-0.014842130243778229,-0.008468955755233765
1771082356222849000,9.91784912109375,-0.010457038879394531,-0.012376055121421814,-0.003644317388534546
1771082356242729700,9.937729736328125,0.003948211669921875,-0.00990498811006546,-0.010995596647262573
1771082356262610700,9.957610595703125,0.006178855895996094,-0.0027677789330482483,-0.0013824701309204102
1771082356282491400,9.977491455078125,-0.001041412353515625,-0.017155393958091736,-0.0013081133365631104
1771082356302372400,9.997372314453125,-0.0011119842529296875,-0.017037615180015564,-0.006343096494674683
1771082356322253000,10.017253173828125,0.0012502670288085938,-0.012215137481689453,-0.008757144212722778
1771082356342134000,10.037134033203126,-0.010552406311035156,-0.016990981996059418,-0.006382793188095093
1771082356352074200,10.04707421875,-0.0009555816650390625,-0.016945287585258484,-0.003947228193283081
1771082356362014700,10.0570146484375,0.0061283111572265625,-0.002876460552215576,0.003156334161758423
1771082356371955200,10.066955078125,-0.001033782958984375,-0.014837510883808136,-0.0016299784183502197
1771082356381895700,10.076895751953124,-0.0010137557983398438,-0.010017208755016327,-0.0016279220581054688
1771082356401776400,10.0967763671875,0.0034999847412109375,-0.005269840359687805,0.0007696151733398438
1771082356421657300,10.1166572265625,-0.0035943984985351562,-0.012309752404689789,-0.0016206800937652588
1771082356431597600,10.12659765625,-0.0035314559936523438,-0.012237019836902618,-0.008682966232299805
1771082356451478500,10.146478515625,0.005928993225097656,-0.007673420011997223,-0.006108999252319336
1771082356471359200,10.166359130859375,-0.0011262893676757812,-0.012524068355560303,-0.005994826555252075
1771082356491240200,10.186240234375,-0.0034360885620117188,-0.012518443167209625,-0.0034921765327453613
1771082356511121000,10.206120849609375,0.0013914108276367188,-0.01232805848121643,-0.003429114818572998
1771082356531001900,10.226001953125,0.0037078857421875,-0.01924920082092285,-0.005980014801025391
1771082356540942300,10.2359423828125,-0.008122444152832031,-0.016709670424461365,0.0011574327945709229
1771082356550882600,10.245882568359375,-0.005627632141113281,-0.011858172714710236,-0.00134316086769104
1771082356560823000,10.255822998046876,0.00859832763671875,-0.011898018419742584,-0.0014477968215942383
1771082356570763500,10.265763427734376,0.006104469299316406,-0.009582899510860443,-0.003803074359893799
1771082356580704000,10.2757041015625,-0.0010595321655273438,-0.014372430741786957,-0.006015956401824951
1771082356600584700,10.295584716796874,0.0036935806274414062,-0.009702108800411224,-0.003652513027191162
1771082356620465700,10.315465576171874,0.005893707275390625,-0.009786605834960938,0.003440767526626587
1771082356640346400,10.335346435546874,0.0010366439819335938,-0.016857601702213287,-0.0013921260833740234
1771082356660227300,10.355227294921875,-0.00122833251953125,-0.014354437589645386,0.0008406639099121094
1771082356670167600,10.36516748046875,0.008212089538574219,-0.011896491050720215,-0.003907054662704468
1771082356690048500,10.385048583984375,-0.0012340545654296875,-0.009616822004318237,-0.0013962090015411377
1771082356699989000,10.394989013671875,-0.0012102127075195312,-0.011949591338634491,-0.006105393171310425
1771082356709929200,10.40492919921875,0.0035219192504882812,-0.0096336230635643,0.003388434648513794
1771082356719869700,10.41486962890625,0.008174896240234375,-0.011962957680225372,-0.006110340356826782
1771082356729810200,10.42481005859375,-0.0013751983642578125,-0.014355368912220001,-0.0013250112533569336
1771082356739750700,10.434750732421875,-0.0013494491577148438,-0.011897414922714233,-0.006036639213562012
1771082356749691000,10.44469091796875,-0.017803192138671875,-0.0025194287300109863,0.003456026315689087
1771082356769571800,10.46457177734375,0.0013837814331054688,-0.009711213409900665,-0.0011752843856811523
1771082356779512300,10.47451220703125,-0.0033445358276367188,-0.007432557642459869,-0.005889415740966797
1771082356789452800,10.484452880859376,-0.005640983581542969,-0.005089975893497467,-0.003462076187133789
1771082356799393300,10.494393310546876,0.0062274932861328125,-0.007495030760765076,-0.0010752081871032715
1771082356809333800,10.504333740234374,-0.005645751953125,-0.009860001504421234,-0.005791008472442627
1771082356819274200,10.514274169921874,0.0015153884887695312,-0.007578857243061066,-0.0010110139846801758
1771082356829214700,10.524214599609374,0.00620269775390625,-0.012398630380630493,-0.003373563289642334
1771082356839155000,10.534155029296874,-0.0009603500366210938,-0.012429475784301758,0.0037204325199127197
1771082356849095400,10.544095458984375,-0.0032949447631835938,-0.012357905507087708,-0.0010752677917480469
1771082356859036000,10.554035888671875,0.0014715194702148438,-0.005224637687206268,-0.0010824501514434814
1771082356868976400,10.563976318359375,0.0014505386352539062,-0.0100836381316185,-0.0057981014251708984
1771082356888857300,10.583857421875,0.0037631988525390625,-0.010157227516174316,0.003524214029312134
1771082356898797800,10.5937978515625,-0.0033550262451171875,-0.010222278535366058,0.0009828805923461914
1771082356918678800,10.6136787109375,0.008412361145019531,-0.015001341700553894,-0.0013142824172973633
1771082356938559700,10.633559814453125,-0.00119781494140625,-0.022012859582901,-0.0060304999351501465
1771082356958440700,10.653440673828126,0.0012035369873046875,-0.012435033917427063,0.001064211130142212
1771082356978321700,10.67332177734375,0.0058002471923828125,-0.007684521377086639,-0.001335829496383667
1771082356988262100,10.68326220703125,0.008061408996582031,-0.01250254362821579,-0.0036929845809936523
1771082356998202600,10.69320263671875,0.0032215118408203125,-0.014784060418605804,-0.003656536340713501
1771082357008143000,10.70314306640625,-0.006245613098144531,-0.01242087036371231,0.001087874174118042
1771082357028024000,10.723024169921874,-0.001522064208984375,-0.007568933069705963,-0.005903810262680054
1771082357037964500,10.732964599609375,0.0032129287719726562,-0.014539375901222229,0.0012323558330535889
1771082357047905000,10.742905029296875,-0.0015459060668945312,-0.012180261313915253,-0.001167595386505127
1771082357067785700,10.76278564453125,-0.0015268325805664062,-0.007618561387062073,-0.0035723447799682617
1771082357077726200,10.772726318359375,-0.006206512451171875,-0.014791980385780334,-0.001183629035949707
1771082357087666700,10.782666748046875,0.0033168792724609375,-0.009972445666790009,-0.005897611379623413
1771082357097607200,10.792607177734375,0.0009136199951171875,-0.007587537169456482,-0.0012177228927612305
1771082357107547600,10.802547607421875,0.00325775146484375,-0.014656409621238708,0.0010285675525665283
1771082357117488000,10.812488037109375,-0.0062103271484375,-0.009941034018993378,-0.003722280263900757
1771082357137369000,10.832369140625,-0.00156402587890625,-0.012259095907211304,-0.0012162625789642334
1771082357147309600,10.8423095703125,0.003173828125,-0.01689896732568741,-0.0035754144191741943
1771082357157250000,10.85225,-0.006291389465332031,-0.014602430164813995,-0.0011866390705108643
1771082357177130800,10.872130859375,0.0007143020629882812,-0.014565952122211456,0.0033706724643707275
1771082357187071200,10.8820712890625,-0.0063571929931640625,-0.007497794926166534,-0.003773510456085205
1771082357206952000,10.901951904296874,0.00323486328125,-0.01460210233926773,-0.0036371946334838867
1771082357226833000,10.9218330078125,-0.0014972686767578125,-0.014590464532375336,-0.003466576337814331
1771082357236773400,10.9317734375,0.007947921752929688,-0.014479726552963257,0.003627687692642212
1771082357256654000,10.951654052734375,-0.0018110275268554688,-0.01441117376089096,0.0013842284679412842
1771082357276535000,10.97153515625,-0.006495475769042969,-0.009714767336845398,-0.008065879344940186
1771082357286475300,10.981475341796875,0.0006771087646484375,-0.009790360927581787,-0.0007917881011962891
1771082357296415700,10.991415771484375,0.005377769470214844,-0.009861543774604797,0.003903597593307495
1771082357306356200,11.001356201171875,0.009999275207519531,-0.01924998313188553,-0.005603760480880737
1771082357316296700,11.011296630859375,0.00041866302490234375,-0.007290109992027283,-0.0055367350578308105
1771082357326237000,11.02123681640625,0.00041484832763671875,-0.014367103576660156,-0.005469560623168945
1771082357336177400,11.031177490234375,0.0004119873046875,-0.019073761999607086,0.0016593635082244873
1771082357346118000,11.041117919921875,-0.0043010711669921875,-0.014182865619659424,-0.0031020045280456543
1771082357356058400,11.051058349609375,0.0004825592041015625,-0.00947539508342743,-0.0007211267948150635
1771082357365998600,11.06099853515625,0.00047779083251953125,-0.011804230511188507,0.006327390670776367
1771082357375939000,11.07093896484375,-0.004235267639160156,-0.014199301600456238,-0.005574673414230347
1771082357385879600,11.080879638671876,-0.008869171142578125,-0.0071372538805007935,0.0039103031158447266
1771082357395820000,11.090820068359376,-0.004010200500488281,-0.0024452954530715942,0.0038200020790100098
1771082357405760300,11.10076025390625,0.0007686614990234375,-0.012059248983860016,0.0037312209606170654
1771082357415700700,11.11070068359375,0.0031137466430664062,-0.014450065791606903,0.0012896358966827393
1771082357425641200,11.12064111328125,0.0007114410400390625,-0.009734980762004852,-0.0034668147563934326
1771082357435581700,11.130581787109374,0.010122299194335938,-0.009708330035209656,-0.0011817514896392822
1771082357445522000,11.14052197265625,0.0028934478759765625,-0.016741864383220673,-0.001188427209854126
1771082357455462400,11.15046240234375,-0.0065708160400390625,-0.009637445211410522,-0.0010918378829956055
1771082357465403000,11.16040283203125,-0.00881195068359375,-0.01667531579732895,0.005964130163192749
1771082357475343400,11.17034326171875,0.00075531005859375,-0.009470097720623016,-0.0012232661247253418
1771082357485283600,11.18028369140625,-0.011025428771972656,-0.009546615183353424,-0.008292138576507568
1771082357495224000,11.19022412109375,0.005642890930175781,-0.00962500274181366,-0.0034704506397247314
1771082357505164500,11.20016455078125,0.000843048095703125,-0.004888430237770081,-0.003438979387283325
1771082357515105000,11.21010498046875,0.007895469665527344,-0.009753048419952393,-0.0034067928791046143
1771082357525045200,11.220045166015625,-0.0040035247802734375,-0.009824849665164948,0.0013321936130523682
1771082357534985700,11.22998583984375,0.0007753372192382812,-0.016961507499217987,0.0036391615867614746
1771082357544926200,11.23992626953125,0.005475044250488281,-0.01220773160457611,0.001199096441268921
1771082357554866700,11.24986669921875,0.00067901611328125,-0.01459607481956482,-0.005908876657485962
1771082357564807200,11.25980712890625,-0.006392478942871094,-0.0003626123070716858,0.005935966968536377
1771082357574747400,11.269747314453125,-0.003928184509277344,-0.012263663113117218,0.0034576356410980225
1771082357584687900,11.27968798828125,-0.0038633346557617188,-0.002777665853500366,0.001122504472732544
1771082357594628400,11.28962841796875,-0.008503913879394531,-0.0006145760416984558,-0.003629922866821289
1771082357604568800,11.29956884765625,0.0010557174682617188,-0.010259024798870087,0.008278846740722656
1771082357614509000,11.309509033203126,-0.0036678314208984375,-0.010223634541034698,0.0010528564453125
1771082357624449500,11.319449462890624,-0.0036077499389648438,-0.014900587499141693,-0.0012409090995788574
1771082357634390000,11.32939013671875,-0.0035448074340820312,-0.005370639264583588,0.0011089444160461426
1771082357644330500,11.33933056640625,0.0012235641479492188,-0.017290107905864716,-0.001187056303024292
1771082357654270700,11.349270751953124,0.0035610198974609375,-0.012530840933322906,-0.0011923909187316895
1771082357664211200,11.359211181640624,0.0011539459228515625,-0.0030403807759284973,-0.006008118391036987
1771082357674151700,11.369151611328125,0.0034923553466796875,-0.014998696744441986,-0.0035788118839263916
1771082357684092200,11.379092041015625,0.0034389495849609375,-0.008025221526622772,0.003518611192703247
1771082357694032400,11.389032470703125,-0.0036745071411132812,-0.005774669349193573,-0.006084233522415161
1771082357703972900,11.398972900390625,0.0034532546997070312,-0.005915917456150055,0.0034092366695404053
1771082357713913300,11.408913330078125,0.0034027099609375,-0.010763414204120636,-0.003837496042251587
1771082357723853800,11.418853759765625,0.00334930419921875,-0.010821521282196045,-0.0061529576778411865
1771082357733794000,11.4287939453125,-0.00141143798828125,-0.008524365723133087,-0.001366943120956421
1771082357743734500,11.438734619140625,0.0009708404541015625,-0.013328395783901215,0.003339320421218872
1771082357753675000,11.448675048828125,0.005669593811035156,-0.010989449918270111,-0.0039062201976776123
1771082357763615500,11.458615478515625,0.010286331176757812,-0.01329619437456131,0.005550950765609741
1771082357773555700,11.4685556640625,-0.0016546249389648438,-0.010855883359909058,-0.001629561185836792
1771082357783496200,11.47849609375,0.0007305145263671875,-0.010810546576976776,0.003081083297729492
1771082357793436700,11.488436767578126,0.00307464599609375,-0.008411668241024017,0.0006503164768218994
1771082357803377200,11.498377197265626,0.00537872314453125,-0.010863274335861206,-0.0016380250453948975
1771082357813317400,11.5083173828125,0.01470947265625,-0.013172119855880737,0.0007184445858001709
1771082357823257900,11.5182578125,0.00034236907958984375,-0.020252995193004608,0.0030356645584106445
1771082357833198300,11.5281982421875,-0.004368782043457031,-0.01063384860754013,-0.004102945327758789
1771082357843138800,11.538138916015624,0.000415802001953125,-0.015297666192054749,-0.0017066597938537598
1771082357853079000,11.5480791015625,-0.009005546569824219,-0.017532601952552795,-0.0040576159954071045
1771082357863019500,11.55801953125,-0.001789093017578125,-0.015123605728149414,0.0006935000419616699
1771082357872960000,11.5679599609375,-0.0017566680908203125,-0.0055899545550346375,0.005365431308746338
1771082357882900500,11.577900390625,-0.0017232894897460938,-0.012797191739082336,-0.001811981201171875
1771082357892840700,11.5878408203125,0.0053730010986328125,-0.008112810552120209,0.0005474090576171875
1771082357902781200,11.59778125,0.0005779266357421875,-0.010467492043972015,0.0005131661891937256
1771082357912721700,11.6077216796875,0.007634162902832031,-0.008176244795322418,-0.004229098558425903
1771082357922662100,11.617662109375,-0.004261016845703125,-0.012884177267551422,0.00758776068687439
1771082357932602400,11.627602294921875,0.0005216598510742188,-0.012805052101612091,-0.001980990171432495
1771082357942542800,11.63754296875,0.0028715133666992188,-0.012931056320667267,-0.0043273866176605225
1771082357952483300,11.6474833984375,0.012243270874023438,-0.02226833999156952,0.005136817693710327
1771082357962423800,11.657423828125,0.002628326416015625,-0.01978042721748352,0.002569854259490967
1771082357972364000,11.667364013671875,0.0025854110717773438,-0.01027107983827591,-0.004459083080291748
1771082357982304500,11.677304443359375,0.0025453567504882812,-0.007884368300437927,-0.0020543038845062256
1771082357992245000,11.687244873046875,0.004864692687988281,-0.019761987030506134,-0.004501402378082275
1771082358002185500,11.697185546875,0.0024318695068359375,-0.012505345046520233,-0.004451483488082886
1771082358012126000,11.7071259765625,0.004749298095703125,-0.007723942399024963,-0.006756693124771118
1771082358022066400,11.71706640625,0.004675865173339844,-0.014793723821640015,-0.011479705572128296
1771082358032007000,11.7270068359375,-0.004815101623535156,-0.010076090693473816,-0.004250615835189819
1771082358041947400,11.736947509765624,-0.0023756027221679688,-0.01004377007484436,-0.004306823015213013
1771082358051887900,11.746887939453124,0.00002193450927734375,-0.007657699286937714,0.00044843554496765137
1771082358061828400,11.756828369140624,-0.007038116455078125,-0.007767602801322937,0.0004158616065979004
1771082358071768800,11.766768798828124,0.0024995803833007812,-0.017190948128700256,-0.004324764013290405
1771082358081709300,11.776709228515625,-0.004601478576660156,-0.012331448495388031,-0.00898638367652893
1771082358091649800,11.78664990234375,0.0048961639404296875,-0.014717742800712585,0.0005554556846618652
1771082358101590300,11.79659033203125,0.00010967254638671875,-0.010001368820667267,-0.004187494516372681
1771082358111530800,11.80653076171875,0.00246429443359375,-0.0099702849984169,0.0029200613498687744
1771082358121471200,11.81647119140625,0.0000705718994140625,-0.005329884588718414,-0.0041159987449646
1771082358131411700,11.82641162109375,0.0024271011352539062,-0.00783286988735199,0.0029903650283813477
1771082358141352200,11.836352294921875,-0.0023193359375,-0.014900825917720795,0.0005611181259155273
1771082358151292700,11.846292724609375,0.00007724761962890625,-0.010076336562633514,-0.006537526845932007
1771082358161233200,11.856233154296875,-0.0022764205932617188,-0.012395158410072327,-0.004100680351257324
1771082358171173400,11.86617333984375,0.00011920928955078125,-0.012321017682552338,-0.0064130425453186035
1771082358181113900,11.87611376953125,-0.006945610046386719,-0.014707483351230621,0.0008335113525390625
1771082358191054300,11.886054443359376,0.0025911331176757812,-0.0123424232006073,-0.003915369510650635
1771082358200994800,11.895994873046876,-0.004511833190917969,-0.00520942360162735,0.0031876564025878906
1771082358210935300,11.905935302734376,0.004982948303222656,-0.00996679812669754,0.0007551312446594238
1771082358220875800,11.915875732421876,-0.0021600723266601562,-0.012392513453960419,0.0007174313068389893
1771082358230816300,11.925816162109374,-0.002124786376953125,-0.009967274963855743,-0.00157204270362854
1771082358240756700,11.9357568359375,0.007330894470214844,-0.007582463324069977,0.0007833540439605713
1771082358250697200,11.945697265625,0.000148773193359375,-0.012297138571739197,0.0007438957691192627
1771082358260637700,11.9556376953125,0.0025033950805664062,-0.01693638414144516,-0.0063565075397491455
1771082358270578200,11.965578125,0.0024652481079101562,-0.021600231528282166,0.0031414926052093506
1771082358280518700,11.9755185546875,0.004784584045410156,-0.004895754158496857,0.002962082624435425
1771082358290459100,11.985459228515625,-0.00235748291015625,-0.012114576995372772,-0.004073351621627808
1771082358300399600,11.995399658203125,-0.007019996643066406,-0.014504484832286835,0.0005760788917541504
1771082358310340000,12.005340087890625,0.0025177001953125,-0.007437370717525482,-0.004167228937149048
1771082358320280600,12.015280517578125,0.004834175109863281,-0.009908400475978851,-0.0017673373222351074
1771082358340161300,12.035161376953125,-0.0023050308227539062,-0.009852945804595947,-0.006544560194015503
1771082358350101800,12.045101806640625,0.007153511047363281,-0.00982433557510376,-0.001752018928527832
1771082358360042200,12.055042236328125,-0.004734039306640625,-0.009796209633350372,0.0006063580513000488
1771082358369982500,12.064982421875,-0.0070056915283203125,-0.009870462119579315,-0.00413745641708374
1771082358379923000,12.0749228515625,0.0025300979614257812,-0.010045386850833893,0.000716865062713623
1771082358389863400,12.084863525390626,-0.009280204772949219,-0.017076462507247925,-0.0016745030879974365
1771082358399804000,12.094803955078126,0.00029087066650390625,-0.014573164284229279,0.0007844865322113037
1771082358409744100,12.104744140625,0.0026454925537109375,-0.009757280349731445,0.000644385814666748
1771082358419684600,12.1146845703125,0.00025081634521484375,-0.016793161630630493,-0.004100054502487183
1771082358429625000,12.124625,0.00025272369384765625,-0.0025262460112571716,0.0005511045455932617
1771082358439565600,12.134565673828124,-0.0044574737548828125,-0.01439124345779419,0.005225390195846558
1771082358449505800,12.144505859375,0.00032806396484375,-0.011932708323001862,-0.001949697732925415
1771082358459446300,12.1544462890625,-0.0020275115966796875,-0.016781851649284363,-0.01606813073158264
1771082358469386800,12.16438671875,-0.009053230285644531,-0.007220566272735596,-0.006408244371414185
1771082358479327200,12.1743271484375,-0.006543159484863281,-0.01429872214794159,0.0006344020366668701
1771082358499208000,12.1942080078125,0.0007429122924804688,-0.016627982258796692,-0.0041449666023254395
1771082358509148400,12.2041484375,-0.006329536437988281,-0.004816867411136627,-0.004101008176803589
1771082358519089000,12.2140888671875,0.005550384521484375,-0.009577617049217224,0.0030038654804229736
1771082358529029000,12.224029052734375,0.0031070709228515625,-0.014364093542098999,-0.0017799139022827148
1771082358538969600,12.233969482421875,-0.004004478454589844,-0.004843100905418396,-0.0017753541469573975
1771082358548910000,12.24391015625,-0.003933906555175781,-0.009708479046821594,-0.00412517786026001
1771082358558850600,12.2538505859375,0.0031995773315429688,-0.01674516499042511,-0.0018291473388671875
1771082358568790800,12.263790771484375,0.0007963180541992188,-0.011994987726211548,-0.004178076982498169
1771082358578731300,12.273731201171875,0.007848739624023438,-0.016639262437820435,-0.004133552312850952
1771082358588671700,12.283671630859375,-0.0016956329345703125,-0.0024736598134040833,-0.004089772701263428
1771082358598612200,12.2936123046875,0.0053997039794921875,-0.014441438019275665,-0.004046738147735596
1771082358608552400,12.303552490234376,0.0006046295166015625,-0.012083955109119415,-0.006358712911605835
1771082358628433400,12.323433349609376,0.0005130767822265625,-0.007229045033454895,-0.001568228006362915
1771082358638374000,12.333373779296876,0.00051116943359375,-0.009700365364551544,-0.0016691386699676514
1771082358648314000,12.343314208984374,-0.0018491744995117188,-0.0167371928691864,-0.001666426658630371
1771082358658254600,12.353254638671874,-0.008876800537109375,-0.00963284820318222,-0.004018068313598633
1771082358678135600,12.373135498046874,-0.011243820190429688,-0.01197691261768341,-0.0016417205333709717
1771082358698016300,12.393016357421875,0.01495361328125,-0.01662120223045349,0.003032088279724121
1771082358717897200,12.412897216796875,0.007596015930175781,-0.009332865476608276,0.002960503101348877
1771082358727837400,12.42283740234375,0.005118370056152344,-0.014021523296833038,-0.0018225312232971191
1771082358737778000,12.43277783203125,0.00032711029052734375,-0.01156914234161377,-0.001817256212234497
1771082358757659000,12.452658935546875,-0.006897926330566406,-0.0043503716588020325,-0.001808255910873413
1771082358777539600,12.47253955078125,0.00036144256591796875,-0.011481672525405884,-0.004231065511703491
1771082358787480000,12.48247998046875,0.009776115417480469,-0.013882122933864594,0.0028772354125976562
1771082358797420500,12.492420654296875,0.004908561706542969,-0.006825380027294159,-0.006613016128540039
1771082358807361000,12.502361083984376,-0.0045871734619140625,-0.00684722512960434,0.0005349814891815186
1771082358817301200,12.51230126953125,0.004909515380859375,-0.009223006665706635,0.0005009472370147705
1771082358827241700,12.52224169921875,-0.004590034484863281,-0.020976386964321136,0.0005693733692169189
1771082358837182200,12.53218212890625,0.002552032470703125,-0.011345192790031433,-0.001819521188735962
1771082358847122700,12.542122802734376,0.0025148391723632812,-0.01364600658416748,-0.0019162297248840332
1771082358857063000,12.55206298828125,0.002475738525390625,-0.018259622156620026,-0.004264950752258301
1771082358867003400,12.56200341796875,-0.0046253204345703125,-0.008673697710037231,-0.001864701509475708
1771082358876944000,12.57194384765625,-0.0021915435791015625,-0.011015884578227997,-0.0018599927425384521
1771082358886884400,12.58188427734375,0.002552032470703125,-0.006157383322715759,-0.0041065216064453125
1771082358906765000,12.60176513671875,0.0023555755615234375,-0.006105087697505951,-0.0015878081321716309
1771082358916705500,12.61170556640625,0.0023193359375,-0.003784649074077606,0.000767827033996582
1771082358926646000,12.62164599609375,-0.004778861999511719,-0.010916918516159058,0.005437254905700684
1771082358936586200,12.631586181640625,-0.00234222412109375,-0.008516281843185425,0.0029672086238861084
1771082358956467200,12.65146728515625,0.007079124450683594,-0.020157508552074432,-0.0018107891082763672
1771082358976348000,12.671347900390625,0.004691123962402344,-0.01068030297756195,0.0005769729614257812
1771082358986288400,12.681288330078125,-0.00009441375732421875,-0.015448413789272308,0.0029984712600708008
1771082358996228900,12.691228759765625,-0.00008869171142578125,-0.01307416707277298,-0.004139512777328491
1771082359016109600,12.711109619140625,-0.00008106231689453125,-0.010834157466888428,0.0030308663845062256
1771082359026050000,12.721050048828126,-0.0071392059326171875,-0.01795084774494171,-0.004108905792236328
1771082359045931000,12.740930908203126,0.0001697540283203125,-0.005992978811264038,0.0005842447280883789
1771082359055871200,12.750871337890626,0.0001697540283203125,-0.010737299919128418,0.0005494058132171631
1771082359065811700,12.760811767578126,0.002521514892578125,-0.0037329718470573425,-0.0040915608406066895
1771082359085692700,12.780692626953124,-0.00701141357421875,-0.011000938713550568,0.002977043390274048
1771082359105573400,12.800573486328124,-0.004496574401855469,-0.011011272668838501,-0.004154324531555176
1771082359115513900,12.810513916015625,-0.011484146118164062,-0.011065267026424408,0.0007002949714660645
1771082359125454300,12.820454345703125,-0.004222869873046875,-0.01818125694990158,-0.0017926990985870361
1771082359145335000,12.8403349609375,-0.006587982177734375,-0.008751846849918365,-0.001744002103805542
1771082359155275500,12.850275634765625,0.0029458999633789062,-0.006489194929599762,-0.004196286201477051
1771082359165216000,12.860216064453125,-0.011225700378417969,-0.01593383401632309,-0.0017971694469451904
1771082359175156200,12.87015625,0.005444526672363281,-0.011095277965068817,-0.00414663553237915
1771082359195037200,12.890037109375,0.000484466552734375,-0.013514630496501923,-0.0017835795879364014
1771082359214918000,12.90991796875,0.0029458999633789062,-0.013457663357257843,-0.00412750244140625
1771082359224858400,12.9198583984375,0.000545501708984375,-0.015723273158073425,-0.004083812236785889
1771082359234798800,12.929798828125,0.007602691650390625,-0.001572936773300171,0.00302201509475708
1771082359254679600,12.949679443359376,0.0075931549072265625,-0.011230513453483582,0.000557243824005127
1771082359274560500,12.969560546875,0.004993438720703125,-0.011164315044879913,0.0029205381870269775
1771082359294441500,12.98944140625,0.007389068603515625,-0.013659879565238953,-0.004192739725112915
1771082359304382000,12.9993818359375,-0.0045013427734375,-0.013669736683368683,-0.011210858821868896
1771082359314322400,13.009322509765624,0.0026388168334960938,-0.0041603222489356995,0.0030766427516937256
1771082359324263000,13.019262939453125,0.004955291748046875,-0.011289484798908234,-0.004164576530456543
1771082359334203400,13.029203369140625,0.00016689300537109375,-0.015945523977279663,-0.0017659962177276611
1771082359344144000,13.039143798828125,0.00016689300537109375,-0.020523972809314728,0.0005926191806793213
1771082359354084400,13.04908447265625,-0.0021867752075195312,-0.008647933602333069,0.0029119253158569336
1771082359364024600,13.059024658203125,0.009624481201171875,-0.010990552604198456,-0.0018715858459472656
1771082359373965000,13.068965087890625,0.000049591064453125,-0.013294130563735962,0.005196124315261841
1771082359383905500,13.078905517578125,0.0024080276489257812,-0.01085072010755539,-0.0044359564781188965
1771082359393846000,13.088845947265625,0.0070819854736328125,-0.010808654129505157,0.00022077560424804688
1771082359403786500,13.098786376953125,0.0022592544555664062,-0.0014488473534584045,-0.0021623075008392334
1771082359413727000,13.10872705078125,-0.002483367919921875,-0.008725129067897797,-0.0045056939125061035
1771082359423667500,13.11866748046875,0.006976127624511719,-0.011174701154232025,-0.0019982457160949707
1771082359433608000,13.12860791015625,0.013926506042480469,-0.011225990951061249,-0.004344344139099121
1771082359443548400,13.13854833984375,-0.009844779968261719,-0.013633891940116882,-0.004295796155929565
1771082359453489000,13.148489013671876,-0.0002593994140625,-0.018355950713157654,-0.006602346897125244
1771082359463429400,13.158429443359376,-0.0026063919067382812,-0.011224649846553802,0.002899765968322754
1771082359473369900,13.168369873046874,-0.00020694732666015625,-0.01127510517835617,-0.0064889490604400635
1771082359483310300,13.178310302734374,-0.004909515380859375,-0.008868493139743805,-0.0016973316669464111
1771082359493250800,13.188250732421874,0.0022401809692382812,-0.00885629653930664,0.0005582273006439209
1771082359503191300,13.19819140625,-0.00250244140625,-0.013654820621013641,-0.0018304884433746338
1771082359513131800,13.2081318359375,-0.000102996826171875,-0.004145659506320953,0.0005291998386383057
1771082359523072300,13.218072265625,-0.00009632110595703125,-0.01618748903274536,-0.001859039068222046
1771082359533012700,13.2280126953125,-0.004799842834472656,-0.006738036870956421,0.0028554201126098633
1771082359552893700,13.247893798828125,0.0047435760498046875,-0.00676988810300827,0.002712458372116089
1771082359562834200,13.257834228515625,0.007021903991699219,-0.013957478106021881,-0.0020664632320404053
1771082359572774700,13.267774658203125,0.0021991729736328125,-0.006797574460506439,-0.009120017290115356
1771082359582715100,13.277715087890625,-0.00018787384033203125,-0.009276114404201508,-0.00193023681640625
1771082359592655400,13.2876552734375,0.0021715164184570312,-0.01632002741098404,0.0004311203956604004
1771082359602595800,13.297595947265625,0.004490852355957031,-0.004514075815677643,0.0005007386207580566
1771082359612536300,13.307536376953125,0.006773948669433594,-0.018802158534526825,-0.004241317510604858
1771082359622476800,13.317476806640625,-0.0003986358642578125,-0.009207203984260559,0.0075757503509521484
1771082359632417000,13.3274169921875,0.004322052001953125,-0.009189367294311523,-0.002094745635986328
1771082359642357500,13.337357421875,0.0018939971923828125,-0.009171828627586365,-0.006691604852676392
1771082359652298000,13.347298095703126,0.004220008850097656,-0.013863183557987213,-0.004250884056091309
1771082359662238500,13.357238525390626,0.0017976760864257812,-0.009059153497219086,-0.004205137491226196
1771082359672178700,13.3671787109375,-0.007645606994628906,-0.00914570689201355,-0.006514459848403931
1771082359682119200,13.377119140625,-0.005162239074707031,-0.004522219300270081,-0.0039747655391693115
1771082359692059600,13.3870595703125,-0.0027170181274414062,-0.006936758756637573,0.00302731990814209
1771082359702000000,13.397000244140624,-0.00031375885009765625,-0.00931105762720108,0.0005974471569061279
1771082359711940400,13.4069404296875,-0.007369041442871094,-0.006937190890312195,0.0005623698234558105
1771082359721880800,13.416880859375,-0.00018024444580078125,-0.016374371945858,-0.004180699586868286
1771082359731821300,13.4268212890625,-0.00017642974853515625,-0.01848946511745453,0.007635354995727539
1771082359741761800,13.43676171875,-0.007233619689941406,-0.013608328998088837,-0.0019342005252838135
1771082359751702300,13.446702392578125,-0.0024013519287109375,-0.008808545768260956,-0.0019270777702331543
1771082359761642500,13.456642578125,0.00470733642578125,-0.01115165650844574,-0.0043762922286987305
1771082359771583000,13.4665830078125,-0.0024309158325195312,-0.008849024772644043,0.0003801286220550537
1771082359781523500,13.4765234375,0.0023221969604492188,-0.006584770977497101,0.00034868717193603516
1771082359791464000,13.4864638671875,-0.00006771087646484375,-0.006607480347156525,0.002670794725418091
1771082359801404200,13.496404052734375,0.0022907257080078125,-0.009089179337024689,0.00024688243865966797
1771082359811344600,13.5063447265625,-0.009515762329101562,-0.004364721477031708,0.004926234483718872
1771082359821285000,13.51628515625,0.0024166107177734375,-0.011490486562252045,-0.006952464580535889
1771082359831225600,13.5262255859375,0.011795997619628906,-0.006725996732711792,-0.00450742244720459
1771082359841165800,13.536165771484375,-0.0048770904541015625,-0.004395216703414917,-0.004457414150238037
1771082359851106300,13.546106201171876,-0.007147789001464844,-0.013877928256988525,-0.00205269455909729
1771082359861046800,13.556046875,-0.0023174285888671875,-0.011427953839302063,0.0026649832725524902
1771082359870987300,13.5659873046875,-0.006983757019042969,-0.013829313218593597,-0.004467427730560303
1771082359880927500,13.575927490234376,-0.0068645477294921875,-0.006671540439128876,-0.004418075084686279
1771082359890868000,13.585867919921874,0.007378578186035156,-0.013758853077888489,0.0026933252811431885
1771082359900808400,13.595808349609374,0.0001964569091796875,-0.011310853064060211,-0.004439562559127808
1771082359910749000,13.6057490234375,-0.011574745178222656,-0.01606845110654831,0.0026721954345703125
1771082359920689200,13.615689208984374,-0.006671905517578125,-0.013480052351951599,0.00024825334548950195
1771082359930629600,13.625629638671874,0.0028591156005859375,-0.011036701500415802,0.004927605390548706
1771082359940570000,13.635570068359375,0.0028142929077148438,-0.008634068071842194,-0.002242535352706909
1771082359960450800,13.655450927734375,0.00504302978515625,-0.013230249285697937,0.0001360774040222168
1771082359970391300,13.665391357421875,-0.006810188293457031,-0.013145357370376587,0.004817277193069458
