time,seconds_elapsed,z,y,x
1771082346471273000,0.16627294921875,-0.0006657897611148655,-0.0002663159102667123,0.001331579522229731
1771082346481213400,0.17621337890625,-0.0006657897611148655,0.0018642114009708166,0.0023968431632965803
1771082346491154000,0.18615380859375,-0.0006657897611148655,-0.0002663159102667123,0.001331579522229731
1771082346501094100,0.19609423828125,0.0003994738799519837,-0.0002663159102667123,0.001331579522229731
1771082346511034600,0.20603466796875,0.0003994738799519837,0.0007989477599039674,0.001331579522229731
1771082346520975000,0.21597509765625,-0.0006657897611148655,0.0007989477599039674,0.0023968431632965803
1771082346530915600,0.22591552734375,0.0003994738799519837,0.0007989477599039674,0.001331579522229731
1771082346540855800,0.235855712890625,-0.0006657897611148655,0.0018642114009708166,0.0002663159102667123
1771082346550796300,0.24579638671875,-0.0006657897611148655,0.0018642114009708166,0.001331579522229731
1771082346560736800,0.25573681640625,-0.0006657897611148655,0.0007989477599039674,0.001331579522229731
1771082346570677200,0.26567724609375,-0.0006657897611148655,-0.0002663159102667123,0.0002663159102667123
1771082346580617500,0.275617431640625,-0.0006657897611148655,-0.0002663159102667123,0.001331579522229731
1771082346590558000,0.285557861328125,-0.0017310534603893757,-0.0002663159102667123,0.001331579522229731
1771082346600498400,0.29549853515625,-0.0006657897611148655,-0.0002663159102667123,0.001331579522229731
1771082346610439000,0.30543896484375,-0.0006657897611148655,0.0007989477599039674,0.001331579522229731
1771082346620379100,0.315379150390625,0.0003994738799519837,-0.001331579522229731,0.0023968431632965803
1771082346630319600,0.325319580078125,0.0003994738799519837,-0.0002663159102667123,0.001331579522229731
1771082346640260000,0.335260009765625,-0.0006657897611148655,-0.0002663159102667123,0.001331579522229731
1771082346650200600,0.34520068359375,-0.0006657897611148655,0.0007989477599039674,0.001331579522229731
1771082346660140800,0.355140869140625,-0.0006657897611148655,0.0007989477599039674,0.0023968431632965803
1771082346670081300,0.365081298828125,-0.0006657897611148655,-0.0002663159102667123,0.0023968431632965803
1771082346680021800,0.375021728515625,-0.0006657897611148655,-0.0002663159102667123,0.0023968431632965803
1771082346689962200,0.384962158203125,-0.0006657897611148655,-0.0023968431632965803,0.001331579522229731
1771082346699902500,0.39490234375,-0.0006657897611148655,-0.0002663159102667123,0.001331579522229731
1771082346709843000,0.404843017578125,-0.0017310534603893757,-0.0002663159102667123,0.001331579522229731
1771082346719783400,0.414783447265625,-0.0006657897611148655,-0.0002663159102667123,0.0023968431632965803
1771082346729724000,0.424723876953125,-0.0017310534603893757,-0.0002663159102667123,0.001331579522229731
1771082346739664400,0.434664306640625,-0.0006657897611148655,-0.0002663159102667123,0.001331579522229731
1771082346749604900,0.44460498046875,-0.0006657897611148655,-0.001331579522229731,0.0023968431632965803
1771082346759545300,0.45454541015625,-0.0006657897611148655,-0.0002663159102667123,0.0023968431632965803
1771082346769485800,0.46448583984375,-0.0006657897611148655,0.0007989477599039674,0.0023968431632965803
1771082346779426300,0.47442626953125,-0.0006657897611148655,-0.0002663159102667123,0.001331579522229731
1771082346789366800,0.48436669921875,-0.0006657897611148655,-0.0002663159102667123,0.0002663159102667123
1771082346799307300,0.494307373046875,-0.0006657897611148655,-0.0002663159102667123,0.0023968431632965803
1771082346809247700,0.504247802734375,-0.0006657897611148655,-0.0002663159102667123,0.0023968431632965803
1771082346819188200,0.514188232421875,-0.0006657897611148655,-0.001331579522229731,0.0023968431632965803
1771082346829128700,0.524128662109375,-0.0006657897611148655,-0.001331579522229731,0.0023968431632965803
1771082346839069200,0.534069091796875,-0.0006657897611148655,-0.0002663159102667123,0.001331579522229731
1771082346849009700,0.544009765625,-0.0006657897611148655,-0.0002663159102667123,0.001331579522229731
1771082346858950100,0.5539501953125,-0.0006657897611148655,-0.0002663159102667123,0.001331579522229731
1771082346868890600,0.563890625,0.0003994738799519837,-0.0002663159102667123,0.0023968431632965803
1771082346878831000,0.5738310546875,-0.0006657897611148655,-0.0002663159102667123,0.0023968431632965803
1771082346888771600,0.583771484375,-0.0006657897611148655,-0.0002663159102667123,0.001331579522229731
1771082346898712000,0.593712158203125,-0.0006657897611148655,0.0007989477599039674,0.0023968431632965803
1771082346908652300,0.60365234375,-0.0006657897611148655,-0.0002663159102667123,0.001331579522229731
1771082346918592800,0.6135927734375,-0.0006657897611148655,-0.0002663159102667123,0.001331579522229731
1771082346928533200,0.623533203125,-0.0006657897611148655,-0.0002663159102667123,0.0023968431632965803
1771082346938473700,0.6334736328125,-0.0006657897611148655,-0.0002663159102667123,0.0023968431632965803
1771082346948414200,0.643414306640625,0.0003994738799519837,-0.0002663159102667123,0.001331579522229731
1771082346958354700,0.653354736328125,-0.0006657897611148655,-0.0002663159102667123,0.0023968431632965803
1771082346968295200,0.663295166015625,-0.0006657897611148655,-0.0002663159102667123,0.0023968431632965803
1771082346978235600,0.673235595703125,-0.0017310534603893757,-0.001331579522229731,0.001331579522229731
1771082346988176100,0.683176025390625,-0.0006657897611148655,-0.0002663159102667123,0.001331579522229731
1771082346998116600,0.69311669921875,-0.0006657897611148655,0.0007989477599039674,0.0023968431632965803
1771082347008057000,0.70305712890625,-0.0006657897611148655,-0.0002663159102667123,0.0002663159102667123
1771082347017997600,0.71299755859375,-0.0006657897611148655,-0.0002663159102667123,0.001331579522229731
1771082347037878500,0.73287841796875,0.0003994738799519837,-0.0002663159102667123,0.001331579522229731
1771082347047819000,0.742819091796875,-0.0006657897611148655,-0.0002663159102667123,0.0023968431632965803
1771082347057759500,0.752759521484375,-0.0006657897611148655,-0.0002663159102667123,0.001331579522229731
1771082347067700000,0.762699951171875,-0.0006657897611148655,-0.0002663159102667123,0.0023968431632965803
1771082347077640400,0.772640380859375,-0.0006657897611148655,-0.0002663159102667123,0.0023968431632965803
1771082347087581000,0.782580810546875,-0.0006657897611148655,-0.0002663159102667123,0.001331579522229731
1771082347097521400,0.792521484375,-0.0006657897611148655,0.0007989477599039674,0.001331579522229731
1771082347107462000,0.8024619140625,0.0003994738799519837,-0.0002663159102667123,0.001331579522229731
1771082347117402400,0.81240234375,-0.0006657897611148655,-0.0002663159102667123,0.0023968431632965803
1771082347127342600,0.822342529296875,-0.0006657897611148655,-0.0002663159102667123,0.0023968431632965803
1771082347137283000,0.832282958984375,-0.0006657897611148655,-0.0002663159102667123,0.0023968431632965803
1771082347147223600,0.8422236328125,-0.0006657897611148655,-0.0002663159102667123,0.0023968431632965803
1771082347157164000,0.8521640625,-0.0006657897611148655,-0.0002663159102667123,0.001331579522229731
1771082347167104500,0.8621044921875,-0.0006657897611148655,-0.0002663159102667123,0.001331579522229731
1771082347177045000,0.872044921875,0.0003994738799519837,-0.001331579522229731,0.0023968431632965803
1771082347186985500,0.8819853515625,-0.0006657897611148655,-0.0002663159102667123,0.0023968431632965803
1771082347196926000,0.891926025390625,-0.0006657897611148655,-0.0002663159102667123,0.001331579522229731
1771082347216807000,0.911806884765625,-0.0006657897611148655,0.0007989477599039674,0.001331579522229731
1771082347226747400,0.921747314453125,-0.0006657897611148655,-0.0002663159102667123,0.0023968431632965803
1771082347236688000,0.93168798828125,0.0003994738799519837,-0.001331579522229731,0.0023968431632965803
1771082347246628400,0.94162841796875,-0.0006657897611148655,-0.0002663159102667123,0.0023968431632965803
1771082347256568800,0.95156884765625,0.0003994738799519837,-0.0002663159102667123,0.001331579522229731
1771082347266509300,0.96150927734375,-0.0006657897611148655,-0.001331579522229731,0.001331579522229731
1771082347276449800,0.97144970703125,-0.0006657897611148655,-0.0002663159102667123,0.0023968431632965803
1771082347286390300,0.981390380859375,-0.0006657897611148655,-0.0002663159102667123,0.001331579522229731
1771082347296330800,0.991330810546875,-0.0006657897611148655,-0.0002663159102667123,0.001331579522229731
1771082347306271200,1.001271240234375,-0.0006657897611148655,-0.0002663159102667123,0.001331579522229731
1771082347316211700,1.011211669921875,-0.0006657897611148655,-0.0002663159102667123,0.001331579522229731
1771082347326152200,1.021152099609375,-0.0006657897611148655,-0.0002663159102667123,0.0023968431632965803
1771082347336092700,1.0310927734375,-0.0006657897611148655,-0.0002663159102667123,0.001331579522229731
1771082347346033200,1.041033203125,-0.0006657897611148655,-0.0002663159102667123,0.001331579522229731
1771082347355973400,1.050973388671875,-0.0006657897611148655,-0.0002663159102667123,0.001331579522229731
1771082347365913900,1.060913818359375,-0.0006657897611148655,-0.001331579522229731,0.001331579522229731
1771082347375854300,1.070854248046875,-0.0006657897611148655,-0.0002663159102667123,0.001331579522229731
1771082347385794800,1.080794921875,-0.0006657897611148655,-0.0002663159102667123,0.0023968431632965803
1771082347395735300,1.0907353515625,-0.0006657897611148655,-0.0002663159102667123,0.001331579522229731
1771082347405675800,1.10067578125,-0.0006657897611148655,-0.0002663159102667123,0.001331579522229731
1771082347415616300,1.1106162109375,-0.0006657897611148655,-0.0002663159102667123,0.001331579522229731
1771082347425556700,1.120556640625,-0.0006657897611148655,0.0007989477599039674,0.0023968431632965803
1771082347435497200,1.130497314453125,0.0003994738799519837,-0.0002663159102667123,0.001331579522229731
1771082347445437700,1.140437744140625,-0.0006657897611148655,0.0007989477599039674,0.001331579522229731
1771082347455378200,1.150378173828125,-0.0017310534603893757,-0.0002663159102667123,0.0023968431632965803
1771082347465318700,1.160318603515625,-0.0006657897611148655,-0.0002663159102667123,0.001331579522229731
1771082347475259100,1.170259033203125,-0.0006657897611148655,-0.0002663159102667123,0.001331579522229731
1771082347485199600,1.18019970703125,-0.0006657897611148655,0.0007989477599039674,0.001331579522229731
1771082347495140000,1.19014013671875,-0.0006657897611148655,-0.0002663159102667123,0.001331579522229731
1771082347505080600,1.20008056640625,-0.0006657897611148655,-0.0002663159102667123,0.001331579522229731
1771082347515021000,1.21002099609375,-0.0006657897611148655,-0.0002663159102667123,0.001331579522229731
1771082347524961500,1.21996142578125,-0.0006657897611148655,0.0007989477599039674,0.0002663159102667123
1771082347534902000,1.229902099609375,0.0003994738799519837,-0.0002663159102667123,0.001331579522229731
1771082347544842500,1.239842529296875,-0.0006657897611148655,-0.001331579522229731,0.0023968431632965803
1771082347554783000,1.249782958984375,-0.0006657897611148655,-0.0002663159102667123,0.0023968431632965803
1771082347564723500,1.259723388671875,-0.0006657897611148655,-0.0002663159102667123,0.001331579522229731
1771082347574664000,1.269663818359375,-0.0006657897611148655,-0.0002663159102667123,0.001331579522229731
1771082347584604200,1.279604248046875,-0.0006657897611148655,0.0007989477599039674,0.0023968431632965803
1771082347594544600,1.289544677734375,-0.0006657897611148655,-0.001331579522229731,0.0023968431632965803
1771082347604485000,1.299485107421875,-0.0006657897611148655,-0.001331579522229731,0.001331579522229731
1771082347614425600,1.309425537109375,-0.0006657897611148655,-0.001331579522229731,0.001331579522229731
1771082347624366000,1.319365966796875,-0.0006657897611148655,-0.0002663159102667123,0.0023968431632965803
1771082347634306600,1.329306640625,-0.0017310534603893757,-0.0002663159102667123,0.001331579522229731
1771082347644247000,1.3392470703125,-0.0006657897611148655,-0.001331579522229731,0.001331579522229731
1771082347654187500,1.3491875,0.0003994738799519837,-0.0002663159102667123,0.001331579522229731
1771082347664128000,1.3591279296875,-0.0006657897611148655,-0.0002663159102667123,0.001331579522229731
1771082347674068500,1.369068359375,-0.0006657897611148655,-0.001331579522229731,0.0023968431632965803
1771082347684009000,1.379009033203125,-0.0006657897611148655,0.0007989477599039674,0.0023968431632965803
1771082347693949400,1.388949462890625,-0.0017310534603893757,-0.0002663159102667123,0.001331579522229731
1771082347703890000,1.398889892578125,-0.0006657897611148655,0.0007989477599039674,0.001331579522229731
1771082347713830400,1.408830322265625,-0.0006657897611148655,0.0007989477599039674,0.001331579522229731
1771082347723771000,1.41877099609375,-0.0006657897611148655,0.0007989477599039674,0.001331579522229731
1771082347733711400,1.42871142578125,-0.0006657897611148655,-0.0002663159102667123,0.001331579522229731
1771082347743651800,1.43865185546875,0.0003994738799519837,-0.001331579522229731,0.001331579522229731
1771082347753592300,1.44859228515625,-0.0017310534603893757,-0.0002663159102667123,0.001331579522229731
1771082347763532800,1.45853271484375,-0.0006657897611148655,-0.0002663159102667123,0.001331579522229731
1771082347773473300,1.468473388671875,-0.0006657897611148655,-0.001331579522229731,0.0023968431632965803
1771082347783413800,1.478413818359375,-0.0006657897611148655,-0.0002663159102667123,0.0023968431632965803
1771082347793354200,1.488354248046875,-0.0006657897611148655,-0.001331579522229731,0.001331579522229731
1771082347803294700,1.498294677734375,0.0003994738799519837,0.0007989477599039674,0.001331579522229731
1771082347823175400,1.518175537109375,-0.0006657897611148655,-0.001331579522229731,0.001331579522229731
1771082347843056400,1.538056396484375,-0.0006657897611148655,-0.001331579522229731,0.001331579522229731
1771082347862937300,1.557937255859375,-0.0006657897611148655,-0.0002663159102667123,0.0023968431632965803
1771082347872877800,1.5678779296875,-0.0006657897611148655,-0.0002663159102667123,0.0023968431632965803
1771082347882818300,1.577818359375,-0.0006657897611148655,-0.0002663159102667123,0.001331579522229731
1771082347892758800,1.5877587890625,-0.0006657897611148655,-0.0002663159102667123,0.0023968431632965803
1771082347902699300,1.59769921875,-0.0006657897611148655,-0.0002663159102667123,0.001331579522229731
1771082347922580200,1.617580322265625,-0.0006657897611148655,-0.0002663159102667123,0.001331579522229731
1771082347942461200,1.637461181640625,-0.0006657897611148655,-0.0002663159102667123,0.001331579522229731
1771082347952401700,1.647401611328125,-0.0006657897611148655,-0.001331579522229731,0.0023968431632965803
1771082347962342100,1.657342041015625,-0.0006657897611148655,-0.0002663159102667123,0.001331579522229731
1771082347982223000,1.67722314453125,-0.0006657897611148655,-0.0002663159102667123,0.001331579522229731
1771082347992163600,1.68716357421875,-0.0006657897611148655,0.0007989477599039674,0.001331579522229731
1771082348012044300,1.707044189453125,-0.0006657897611148655,-0.0002663159102667123,0.0034621069207787514
1771082348021984800,1.71698486328125,-0.0017310534603893757,0.0007989477599039674,0.0023968431632965803
1771082348031925200,1.72692529296875,-0.0006657897611148655,-0.0002663159102667123,0.001331579522229731
1771082348051806000,1.746805908203125,-0.0006657897611148655,0.0007989477599039674,0.0034621069207787514
1771082348071687000,1.76668701171875,-0.0006657897611148655,-0.0002663159102667123,0.001331579522229731
1771082348091567600,1.786567626953125,0.0003994738799519837,-0.0002663159102667123,0.001331579522229731
1771082348101508000,1.796508056640625,-0.0006657897611148655,-0.001331579522229731,0.0023968431632965803
1771082348121388800,1.816388916015625,-0.0006657897611148655,-0.0002663159102667123,0.001331579522229731
1771082348141269800,1.836269775390625,-0.0006657897611148655,-0.0002663159102667123,0.0023968431632965803
1771082348161150500,1.856150390625,-0.0006657897611148655,-0.0002663159102667123,0.001331579522229731
1771082348181031400,1.876031494140625,-0.0006657897611148655,-0.001331579522229731,0.001331579522229731
1771082348200912100,1.895912109375,0.0003994738799519837,-0.0002663159102667123,0.001331579522229731
1771082348220793000,1.91579296875,-0.0006657897611148655,-0.0002663159102667123,0.001331579522229731
1771082348230733600,1.925733642578125,-0.0006657897611148655,-0.0002663159102667123,0.0023968431632965803
1771082348250614300,1.9456142578125,-0.0006657897611148655,-0.0002663159102667123,0.001331579522229731
1771082348270495200,1.9654951171875,-0.0006657897611148655,0.0007989477599039674,0.0023968431632965803
1771082348280435500,1.975435546875,-0.0006657897611148655,-0.0002663159102667123,0.0023968431632965803
1771082348290376000,1.9853759765625,0.0003994738799519837,0.0007989477599039674,0.001331579522229731
1771082348310257000,2.0052568359375,-0.0006657897611148655,-0.0002663159102667123,0.0023968431632965803
1771082348330137600,2.0251376953125,-0.0006657897611148655,-0.001331579522229731,0.001331579522229731
1771082348340078000,2.035078125,-0.0006657897611148655,-0.0002663159102667123,0.001331579522229731
1771082348350018600,2.0450185546875,-0.0006657897611148655,0.0007989477599039674,0.0023968431632965803
1771082348359959000,2.054958984375,0.0003994738799519837,-0.0002663159102667123,0.0023968431632965803
1771082348379840000,2.074840087890625,-0.0006657897611148655,0.0007989477599039674,0.0023968431632965803
1771082348389780500,2.084780517578125,-0.0006657897611148655,-0.0002663159102667123,0.001331579522229731
1771082348399721000,2.094720947265625,-0.0006657897611148655,-0.0002663159102667123,0.001331579522229731
1771082348409661400,2.104661376953125,-0.0006657897611148655,-0.001331579522229731,0.001331579522229731
1771082348419602000,2.114601806640625,-0.0017310534603893757,-0.0002663159102667123,0.0023968431632965803
1771082348439483000,2.13448291015625,-0.0006657897611148655,-0.001331579522229731,0.001331579522229731
1771082348449423400,2.14442333984375,-0.0006657897611148655,0.0007989477599039674,0.001331579522229731
1771082348459363800,2.15436376953125,-0.0006657897611148655,-0.0002663159102667123,0.001331579522229731
1771082348469304300,2.16430419921875,-0.0006657897611148655,-0.0002663159102667123,0.0023968431632965803
1771082348479244800,2.174244873046875,-0.0006657897611148655,-0.0002663159102667123,0.0023968431632965803
1771082348489185300,2.184185302734375,0.0003994738799519837,-0.0002663159102667123,0.001331579522229731
1771082348499125800,2.194125732421875,-0.0006657897611148655,-0.0002663159102667123,0.001331579522229731
1771082348509066200,2.204066162109375,-0.0006657897611148655,-0.001331579522229731,0.001331579522229731
1771082348519006700,2.2140068359375,-0.0006657897611148655,-0.0002663159102667123,0.001331579522229731
1771082348528947200,2.223947265625,-0.0006657897611148655,-0.001331579522229731,0.0023968431632965803
1771082348538887700,2.2338876953125,-0.0006657897611148655,-0.0002663159102667123,0.0023968431632965803
1771082348548828000,2.243827880859375,-0.0006657897611148655,-0.0002663159102667123,0.001331579522229731
1771082348558768400,2.253768310546875,-0.0006657897611148655,-0.001331579522229731,0.001331579522229731
1771082348568708900,2.263708984375,0.0003994738799519837,-0.0002663159102667123,0.001331579522229731
1771082348578649300,2.2736494140625,-0.0006657897611148655,-0.0002663159102667123,0.001331579522229731
1771082348588589800,2.28358984375,-0.0006657897611148655,-0.001331579522229731,0.0023968431632965803
1771082348608470800,2.303470703125,-0.0006657897611148655,-0.0002663159102667123,0.0023968431632965803
1771082348618411300,2.313411376953125,-0.0006657897611148655,-0.0002663159102667123,0.0023968431632965803
1771082348628351700,2.323351806640625,-0.0006657897611148655,0.0007989477599039674,0.0023968431632965803
1771082348648232700,2.343232666015625,-0.0006657897611148655,-0.0002663159102667123,0.001331579522229731
1771082348668113700,2.36311376953125,-0.0006657897611148655,-0.0002663159102667123,0.0023968431632965803
1771082348687994600,2.38299462890625,-0.0006657897611148655,-0.0002663159102667123,0.001331579522229731
1771082348707875600,2.40287548828125,-0.0006657897611148655,-0.0002663159102667123,0.001331579522229731
1771082348717816000,2.412816162109375,-0.0006657897611148655,-0.0002663159102667123,0.001331579522229731
1771082348737697000,2.432697021484375,-0.0006657897611148655,0.0007989477599039674,0.001331579522229731
1771082348757578000,2.452577880859375,0.0003994738799519837,-0.0002663159102667123,0.0002663159102667123
1771082348767518500,2.4625185546875,-0.0006657897611148655,-0.001331579522229731,0.0023968431632965803
1771082348777458700,2.472458740234375,-0.0006657897611148655,-0.001331579522229731,0.0023968431632965803
1771082348787399200,2.482399169921875,-0.0006657897611148655,-0.0002663159102667123,0.001331579522229731
1771082348807280000,2.502280029296875,-0.0006657897611148655,-0.0002663159102667123,0.001331579522229731
1771082348827161000,2.5221611328125,-0.0006657897611148655,-0.0002663159102667123,0.0023968431632965803
1771082348847042000,2.5420419921875,-0.0006657897611148655,-0.0002663159102667123,0.0023968431632965803
1771082348856982500,2.551982421875,-0.0006657897611148655,-0.0002663159102667123,0.0023968431632965803
1771082348866923000,2.561923095703125,-0.0006657897611148655,-0.001331579522229731,0.0023968431632965803
1771082348886804000,2.581803955078125,-0.0006657897611148655,-0.0002663159102667123,0.0023968431632965803
1771082348906685000,2.601684814453125,-0.0006657897611148655,-0.0002663159102667123,0.0023968431632965803
1771082348916625400,2.61162548828125,-0.0006657897611148655,0.0007989477599039674,0.001331579522229731
1771082348936506400,2.63150634765625,-0.0006657897611148655,-0.0002663159102667123,0.0023968431632965803
1771082348946446800,2.64144677734375,-0.0017310534603893757,0.0007989477599039674,0.0023968431632965803
1771082348956387300,2.65138720703125,-0.0006657897611148655,-0.001331579522229731,0.001331579522229731
1771082348976268300,2.671268310546875,-0.0006657897611148655,0.0007989477599039674,0.0023968431632965803
1771082348986208800,2.681208740234375,-0.0006657897611148655,-0.0002663159102667123,0.0023968431632965803
1771082348996149200,2.691149169921875,-0.0006657897611148655,-0.001331579522229731,0.0023968431632965803
1771082349006089500,2.70108935546875,-0.0006657897611148655,-0.0002663159102667123,0.001331579522229731
1771082349025970400,2.720970458984375,0.0003994738799519837,-0.0002663159102667123,0.001331579522229731
1771082349045851400,2.740851318359375,-0.0006657897611148655,-0.0002663159102667123,0.001331579522229731
1771082349065732400,2.760732421875,-0.0006657897611148655,0.0007989477599039674,0.001331579522229731
1771082349085613300,2.78061328125,-0.0006657897611148655,-0.001331579522229731,0.0023968431632965803
1771082349105494300,2.800494384765625,-0.0006657897611148655,0.0007989477599039674,0.0023968431632965803
1771082349115434500,2.8104345703125,-0.0006657897611148655,-0.0002663159102667123,0.001331579522229731
1771082349125375000,2.820375,-0.0006657897611148655,-0.0002663159102667123,0.001331579522229731
1771082349135315500,2.8303154296875,-0.0006657897611148655,-0.0002663159102667123,0.0023968431632965803
1771082349145256000,2.840255859375,-0.0006657897611148655,-0.001331579522229731,0.0023968431632965803
1771082349155196200,2.850196044921875,-0.0006657897611148655,-0.001331579522229731,0.001331579522229731
1771082349165136600,2.86013671875,-0.0006657897611148655,-0.0002663159102667123,0.0023968431632965803
1771082349175077000,2.8700771484375,-0.0006657897611148655,0.0007989477599039674,0.001331579522229731
1771082349185017600,2.880017578125,-0.0006657897611148655,-0.001331579522229731,0.0023968431632965803
1771082349204898300,2.899898193359375,0.0003994738799519837,-0.0002663159102667123,0.001331579522229731
1771082349214838800,2.9098388671875,-0.0006657897611148655,0.0007989477599039674,0.001331579522229731
1771082349224779300,2.919779296875,-0.0006657897611148655,-0.0002663159102667123,0.0023968431632965803
1771082349234719500,2.929719482421875,-0.0006657897611148655,-0.0002663159102667123,0.0023968431632965803
1771082349244660000,2.939659912109375,-0.0006657897611148655,-0.001331579522229731,0.0023968431632965803
1771082349254600400,2.949600341796875,-0.0006657897611148655,-0.0002663159102667123,0.0023968431632965803
1771082349264541000,2.959541015625,-0.0006657897611148655,0.0007989477599039674,0.0023968431632965803
1771082349274481200,2.969481201171875,-0.0006657897611148655,-0.001331579522229731,0.001331579522229731
1771082349284421600,2.979421630859375,-0.0006657897611148655,-0.0002663159102667123,0.001331579522229731
1771082349294362000,2.989362060546875,-0.0006657897611148655,-0.0002663159102667123,0.0023968431632965803
1771082349304302600,2.999302490234375,-0.0006657897611148655,-0.0002663159102667123,0.0023968431632965803
1771082349314242800,3.009242919921875,-0.0006657897611148655,-0.0002663159102667123,0.0023968431632965803
1771082349324183300,3.019183349609375,-0.0006657897611148655,0.0007989477599039674,0.001331579522229731
1771082349334123800,3.029123779296875,-0.0006657897611148655,-0.0002663159102667123,0.0023968431632965803
1771082349344064300,3.039064208984375,-0.0006657897611148655,-0.001331579522229731,0.001331579522229731
1771082349354004500,3.04900439453125,-0.0006657897611148655,-0.0002663159102667123,0.001331579522229731
1771082349363945000,3.058945068359375,-0.0006657897611148655,0.0007989477599039674,0.001331579522229731
1771082349373885400,3.068885498046875,-0.0006657897611148655,-0.001331579522229731,0.001331579522229731
1771082349383826000,3.078825927734375,-0.0006657897611148655,-0.0002663159102667123,0.001331579522229731
1771082349393766100,3.08876611328125,-0.0006657897611148655,-0.0002663159102667123,0.001331579522229731
1771082349403706600,3.09870654296875,-0.0006657897611148655,-0.0002663159102667123,0.0023968431632965803
1771082349413647000,3.108647216796875,-0.0006657897611148655,-0.0002663159102667123,0.0023968431632965803
1771082349423587600,3.118587646484375,-0.0006657897611148655,-0.0002663159102667123,0.0023968431632965803
1771082349433527800,3.12852783203125,-0.0006657897611148655,-0.0002663159102667123,0.0023968431632965803
1771082349443468300,3.13846826171875,-0.0006657897611148655,-0.0002663159102667123,0.001331579522229731
1771082349453408800,3.14840869140625,-0.0006657897611148655,-0.0002663159102667123,0.0023968431632965803
1771082349463349200,3.158349365234375,-0.0006657897611148655,-0.0002663159102667123,0.0023968431632965803
1771082349473289700,3.168289794921875,-0.0006657897611148655,-0.0002663159102667123,0.001331579522229731
1771082349483230200,3.178230224609375,-0.0006657897611148655,-0.0002663159102667123,0.0023968431632965803
1771082349493170700,3.188170654296875,-0.0006657897611148655,-0.0002663159102667123,0.001331579522229731
1771082349503111200,3.198111083984375,-0.0006657897611148655,0.0007989477599039674,0.0023968431632965803
1771082349513051600,3.2080517578125,-0.0006657897611148655,-0.0002663159102667123,0.001331579522229731
1771082349522991900,3.217991943359375,-0.0006657897611148655,-0.001331579522229731,0.0023968431632965803
1771082349532932400,3.227932373046875,-0.0006657897611148655,-0.0002663159102667123,0.0023968431632965803
1771082349542872800,3.237872802734375,-0.0006657897611148655,-0.0002663159102667123,0.001331579522229731
1771082349552813300,3.247813232421875,-0.0006657897611148655,-0.0002663159102667123,0.0023968431632965803
1771082349562753800,3.25775390625,-0.0006657897611148655,-0.0002663159102667123,0.001331579522229731
1771082349572694300,3.2676943359375,-0.0006657897611148655,-0.0002663159102667123,0.0023968431632965803
1771082349582634800,3.277634765625,-0.0006657897611148655,-0.0002663159102667123,0.001331579522229731
1771082349592575200,3.2875751953125,-0.0006657897611148655,-0.0002663159102667123,0.001331579522229731
1771082349602515700,3.297515625,0.0003994738799519837,-0.0002663159102667123,0.001331579522229731
1771082349612456200,3.307456298828125,-0.0006657897611148655,-0.0002663159102667123,0.0023968431632965803
1771082349622396700,3.317396728515625,-0.0006657897611148655,-0.001331579522229731,0.0023968431632965803
1771082349632337200,3.327337158203125,-0.0006657897611148655,-0.0002663159102667123,0.0023968431632965803
1771082349642277600,3.337277587890625,-0.0006657897611148655,-0.0002663159102667123,0.0023968431632965803
1771082349652218000,3.347218017578125,-0.0006657897611148655,-0.001331579522229731,0.0023968431632965803
1771082349662158600,3.35715869140625,-0.0006657897611148655,-0.0002663159102667123,0.001331579522229731
1771082349672099000,3.36709912109375,-0.0006657897611148655,-0.0002663159102667123,0.0023968431632965803
1771082349682039600,3.37703955078125,-0.0017310534603893757,-0.0002663159102667123,0.0002663159102667123
1771082349691980000,3.38697998046875,-0.0006657897611148655,-0.0002663159102667123,0.001331579522229731
1771082349701920500,3.39692041015625,-0.0006657897611148655,-0.0002663159102667123,0.001331579522229731
1771082349711861000,3.406861083984375,0.0003994738799519837,-0.001331579522229731,0.001331579522229731
1771082349721801500,3.416801513671875,-0.0006657897611148655,-0.0002663159102667123,0.0023968431632965803
1771082349741682200,3.43668212890625,0.0003994738799519837,-0.001331579522229731,0.0023968431632965803
1771082349761563100,3.456563232421875,-0.0006657897611148655,-0.0002663159102667123,0.0023968431632965803
1771082349771503600,3.466503662109375,-0.0006657897611148655,-0.0002663159102667123,0.001331579522229731
1771082349791384600,3.486384521484375,-0.0017310534603893757,0.0007989477599039674,0.0023968431632965803
1771082349801325000,3.496324951171875,0.0003994738799519837,-0.001331579522229731,0.0023968431632965803
1771082349811265500,3.506265625,0.0003994738799519837,-0.0002663159102667123,0.001331579522229731
1771082349821206000,3.5162060546875,-0.0006657897611148655,-0.001331579522229731,0.0034621069207787514
1771082349841087000,3.5360869140625,-0.0006657897611148655,-0.0002663159102667123,0.001331579522229731
1771082349860968000,3.555968017578125,-0.0006657897611148655,-0.0002663159102667123,0.001331579522229731
1771082349880849000,3.575848876953125,0.0003994738799519837,-0.0002663159102667123,0.0023968431632965803
1771082349900729900,3.595729736328125,-0.0006657897611148655,-0.001331579522229731,0.001331579522229731
1771082349920610800,3.61561083984375,-0.0006657897611148655,-0.0002663159102667123,0.0034621069207787514
1771082349930551300,3.62555126953125,-0.0006657897611148655,-0.001331579522229731,0.001331579522229731
1771082349950432300,3.645432373046875,-0.0006657897611148655,0.0007989477599039674,0.0023968431632965803
1771082349970313000,3.66531298828125,-0.0017310534603893757,0.0007989477599039674,0.001331579522229731
1771082349990194000,3.68519384765625,-0.0006657897611148655,-0.0002663159102667123,0.001331579522229731
1771082350000134400,3.695134521484375,-0.0006657897611148655,-0.001331579522229731,0.001331579522229731
1771082350010075000,3.705074951171875,0.0003994738799519837,-0.0002663159102667123,0.001331579522229731
1771082350020015400,3.715015380859375,0.0003994738799519837,-0.0002663159102667123,0.0023968431632965803
1771082350039896300,3.734896240234375,-0.0017310534603893757,-0.0002663159102667123,0.0023968431632965803
1771082350049836800,3.7448369140625,-0.0006657897611148655,-0.0002663159102667123,0.001331579522229731
1771082350059777300,3.75477734375,-0.0006657897611148655,-0.0002663159102667123,0.0023968431632965803
1771082350079658200,3.774658203125,-0.0017310534603893757,-0.001331579522229731,0.0023968431632965803
1771082350099539000,3.7945390625,-0.0006657897611148655,-0.0002663159102667123,0.0023968431632965803
1771082350109479400,3.8044794921875,-0.0006657897611148655,-0.0002663159102667123,0.0002663159102667123
1771082350129360400,3.8243603515625,-0.0006657897611148655,-0.0002663159102667123,0.0023968431632965803
1771082350139300600,3.834300537109375,0.0003994738799519837,-0.0002663159102667123,0.001331579522229731
1771082350159181600,3.854181640625,0.0003994738799519837,-0.0002663159102667123,0.001331579522229731
1771082350179062300,3.874062255859375,0.0003994738799519837,-0.001331579522229731,0.0023968431632965803
1771082350198943200,3.893943115234375,0.0003994738799519837,-0.0002663159102667123,0.001331579522229731
1771082350218824000,3.913823974609375,-0.0006657897611148655,0.0007989477599039674,0.001331579522229731
1771082350228764400,3.923764404296875,-0.0006657897611148655,-0.001331579522229731,0.001331579522229731
1771082350238705000,3.933704833984375,-0.0006657897611148655,-0.0002663159102667123,0.0023968431632965803
1771082350248645400,3.943645263671875,-0.0006657897611148655,-0.0002663159102667123,0.0023968431632965803
1771082350258585600,3.953585693359375,-0.0006657897611148655,-0.0002663159102667123,0.001331579522229731
1771082350268526000,3.963526123046875,-0.0006657897611148655,-0.0002663159102667123,0.0023968431632965803
1771082350278466600,3.973466552734375,-0.0006657897611148655,-0.0002663159102667123,0.0023968431632965803
1771082350288407000,3.983406982421875,-0.0006657897611148655,-0.0002663159102667123,0.001331579522229731
1771082350298347300,3.99334716796875,-0.0017310534603893757,0.0007989477599039674,0.0023968431632965803
1771082350308287700,4.003287841796875,-0.0006657897611148655,0.0007989477599039674,0.001331579522229731
1771082350318228200,4.013228271484375,-0.0006657897611148655,-0.0002663159102667123,0.001331579522229731
1771082350328168700,4.023168701171875,-0.0006657897611148655,-0.0002663159102667123,0.001331579522229731
1771082350338109000,4.03310888671875,-0.0006657897611148655,-0.0002663159102667123,0.001331579522229731
1771082350348049400,4.04304931640625,-0.0006657897611148655,-0.0002663159102667123,0.001331579522229731
1771082350357990000,4.052989990234375,-0.0006657897611148655,-0.001331579522229731,0.0023968431632965803
1771082350367930400,4.062930419921875,-0.0006657897611148655,-0.0002663159102667123,0.0023968431632965803
1771082350377870600,4.07287060546875,0.0003994738799519837,-0.001331579522229731,0.0023968431632965803
1771082350387811000,4.08281103515625,-0.0006657897611148655,-0.0002663159102667123,0.0023968431632965803
1771082350397751600,4.09275146484375,-0.0006657897611148655,-0.001331579522229731,0.0023968431632965803
1771082350407692000,4.102692138671875,-0.0006657897611148655,-0.0002663159102667123,0.001331579522229731
1771082350417632300,4.11263232421875,-0.0006657897611148655,0.0007989477599039674,0.001331579522229731
1771082350427572700,4.12257275390625,-0.0006657897611148655,-0.001331579522229731,0.0023968431632965803
1771082350437513200,4.13251318359375,-0.0006657897611148655,-0.001331579522229731,0.001331579522229731
1771082350447453700,4.14245361328125,-0.0006657897611148655,0.0007989477599039674,0.0023968431632965803
1771082350457394000,4.152393798828125,-0.0006657897611148655,-0.0002663159102667123,0.0023968431632965803
1771082350467334400,4.16233447265625,-0.0006657897611148655,-0.0002663159102667123,0.0023968431632965803
1771082350477275000,4.17227490234375,-0.0006657897611148655,-0.0002663159102667123,0.0023968431632965803
1771082350487215400,4.18221533203125,-0.0006657897611148655,-0.0002663159102667123,0.0023968431632965803
1771082350497155600,4.192155517578125,0.0003994738799519837,-0.0002663159102667123,0.0023968431632965803
1771082350507096000,4.202095947265625,-0.0006657897611148655,-0.0002663159102667123,0.001331579522229731
1771082350517036500,4.21203662109375,-0.0006657897611148655,-0.001331579522229731,0.001331579522229731
1771082350526977000,4.22197705078125,-0.0006657897611148655,-0.001331579522229731,0.0023968431632965803
1771082350536917500,4.23191748046875,-0.0006657897611148655,-0.0002663159102667123,0.0023968431632965803
1771082350546858000,4.24185791015625,-0.0006657897611148655,-0.0002663159102667123,0.0023968431632965803
1771082350556798500,4.251798583984375,-0.0006657897611148655,-0.0002663159102667123,0.0023968431632965803
1771082350566739000,4.261739013671875,-0.0006657897611148655,-0.0002663159102667123,0.0023968431632965803
1771082350576679400,4.271679443359375,-0.0006657897611148655,0.0007989477599039674,0.0023968431632965803
1771082350586620000,4.281619873046875,-0.0006657897611148655,-0.0002663159102667123,0.0023968431632965803
1771082350596560400,4.291560302734375,-0.0006657897611148655,-0.0002663159102667123,0.0023968431632965803
1771082350606500900,4.3015009765625,-0.0006657897611148655,-0.0002663159102667123,0.0023968431632965803
1771082350616441300,4.31144140625,-0.0006657897611148655,-0.0002663159102667123,0.001331579522229731
1771082350626381800,4.3213818359375,-0.0006657897611148655,-0.0002663159102667123,0.0023968431632965803
1771082350636322300,4.331322265625,-0.0006657897611148655,-0.0002663159102667123,0.001331579522229731
1771082350646262800,4.3412626953125,-0.0006657897611148655,-0.0002663159102667123,0.001331579522229731
1771082350656203300,4.351203369140625,-0.0006657897611148655,-0.0002663159102667123,0.0023968431632965803
1771082350666143700,4.361143798828125,-0.0006657897611148655,-0.001331579522229731,0.0023968431632965803
1771082350676084200,4.371084228515625,-0.0006657897611148655,-0.001331579522229731,0.001331579522229731
1771082350686024700,4.381024658203125,-0.0006657897611148655,-0.0002663159102667123,0.001331579522229731
1771082350695965200,4.390965087890625,-0.0006657897611148655,-0.0002663159102667123,0.0023968431632965803
1771082350705905400,4.400905517578125,-0.0006657897611148655,-0.0002663159102667123,0.001331579522229731
1771082350715846000,4.410845947265625,-0.0006657897611148655,-0.001331579522229731,0.001331579522229731
1771082350725786400,4.420786376953125,0.0003994738799519837,-0.0002663159102667123,0.001331579522229731
1771082350735726800,4.430726806640625,-0.0006657897611148655,-0.0002663159102667123,0.0023968431632965803
1771082350745667300,4.440667236328125,-0.0006657897611148655,-0.0002663159102667123,0.0023968431632965803
1771082350755607800,4.45060791015625,-0.0006657897611148655,-0.0002663159102667123,0.0023968431632965803
1771082350765548300,4.46054833984375,-0.0006657897611148655,-0.001331579522229731,0.001331579522229731
1771082350775488800,4.47048876953125,-0.0006657897611148655,-0.0002663159102667123,0.001331579522229731
1771082350785429200,4.48042919921875,-0.0006657897611148655,-0.0002663159102667123,0.001331579522229731
1771082350795369700,4.49036962890625,-0.0006657897611148655,0.0007989477599039674,0.001331579522229731
1771082350805310200,4.500310302734375,-0.0006657897611148655,-0.001331579522229731,0.0023968431632965803
1771082350815250700,4.510250732421875,-0.0006657897611148655,-0.0002663159102667123,0.0023968431632965803
1771082350825191200,4.520191162109375,0.0003994738799519837,-0.0002663159102667123,0.001331579522229731
1771082350835131600,4.530131591796875,-0.0006657897611148655,-0.0002663159102667123,0.0023968431632965803
1771082350845072100,4.540072021484375,-0.0006657897611148655,0.0007989477599039674,0.0023968431632965803
1771082350855012600,4.5500126953125,-0.0006657897611148655,-0.0002663159102667123,0.0023968431632965803
1771082350864953000,4.559953125,-0.0006657897611148655,-0.0002663159102667123,0.001331579522229731
1771082350874893600,4.5698935546875,-0.0006657897611148655,-0.0002663159102667123,0.0023968431632965803
1771082350884834000,4.579833984375,-0.0006657897611148655,-0.0002663159102667123,0.0023968431632965803
1771082350894774500,4.5897744140625,-0.0006657897611148655,-0.0002663159102667123,0.0023968431632965803
1771082350904715000,4.599715087890625,-0.0006657897611148655,-0.0002663159102667123,0.001331579522229731
1771082350914655500,4.609655517578125,-0.0006657897611148655,-0.0002663159102667123,0.001331579522229731
1771082350924596000,4.619595947265625,-0.0006657897611148655,-0.0002663159102667123,0.001331579522229731
1771082350934536200,4.6295361328125,-0.0006657897611148655,-0.0002663159102667123,0.0023968431632965803
1771082350944476700,4.6394765625,-0.0006657897611148655,-0.001331579522229731,0.001331579522229731
1771082350954417200,4.649417236328125,-0.0006657897611148655,-0.0002663159102667123,0.001331579522229731
1771082350964357600,4.659357666015625,-0.0006657897611148655,-0.0002663159102667123,0.0023968431632965803
1771082350974298000,4.669298095703125,-0.0006657897611148655,-0.001331579522229731,0.001331579522229731
1771082350984238600,4.679238525390625,-0.0006657897611148655,-0.001331579522229731,0.001331579522229731
1771082350994179000,4.689178955078125,-0.0017310534603893757,-0.0002663159102667123,0.001331579522229731
1771082351004119600,4.69911962890625,-0.0006657897611148655,-0.0002663159102667123,0.0023968431632965803
1771082351014060000,4.70906005859375,0.0003994738799519837,-0.0002663159102667123,0.001331579522229731
1771082351024000500,4.71900048828125,-0.0006657897611148655,0.0007989477599039674,0.0023968431632965803
1771082351033941000,4.72894091796875,-0.0006657897611148655,-0.0002663159102667123,0.001331579522229731
1771082351043881200,4.738881103515625,-0.0006657897611148655,-0.001331579522229731,0.0023968431632965803
1771082351053821700,4.74882177734375,0.0003994738799519837,-0.0002663159102667123,0.001331579522229731
1771082351063762200,4.75876220703125,0.0003994738799519837,-0.0002663159102667123,0.001331579522229731
1771082351073702700,4.76870263671875,-0.0006657897611148655,-0.0002663159102667123,0.001331579522229731
1771082351083643000,4.778642822265625,-0.0006657897611148655,-0.0002663159102667123,0.001331579522229731
1771082351093583400,4.788583251953125,-0.0006657897611148655,-0.0002663159102667123,0.001331579522229731
1771082351103523800,4.79852392578125,-0.0006657897611148655,-0.001331579522229731,0.001331579522229731
1771082351113464300,4.80846435546875,-0.0006657897611148655,0.0007989477599039674,0.001331579522229731
1771082351123404500,4.818404541015625,0.0003994738799519837,-0.0002663159102667123,0.001331579522229731
1771082351133345000,4.828344970703125,-0.0006657897611148655,-0.0002663159102667123,0.0023968431632965803
1771082351143285500,4.838285400390625,-0.0006657897611148655,-0.0002663159102667123,0.0023968431632965803
1771082351153226000,4.84822607421875,-0.0006657897611148655,-0.0002663159102667123,0.0023968431632965803
1771082351163166200,4.858166259765625,-0.0006657897611148655,-0.001331579522229731,0.001331579522229731
1771082351173106700,4.868106689453125,-0.0006657897611148655,-0.0002663159102667123,0.001331579522229731
1771082351183047200,4.878047119140625,-0.0006657897611148655,-0.0002663159102667123,0.001331579522229731
1771082351192987600,4.887987548828125,-0.0006657897611148655,-0.0002663159102667123,0.001331579522229731
1771082351202927900,4.897927978515625,-0.0006657897611148655,-0.0002663159102667123,0.0023968431632965803
1771082351212868400,4.907868408203125,-0.0006657897611148655,-0.0002663159102667123,0.0023968431632965803
1771082351222808800,4.917808837890625,-0.0006657897611148655,-0.001331579522229731,0.001331579522229731
1771082351232749300,4.927749267578125,-0.0006657897611148655,-0.001331579522229731,0.001331579522229731
1771082351242689500,4.937689453125,-0.0006657897611148655,-0.0002663159102667123,0.0023968431632965803
1771082351252630000,4.947630126953125,-0.0006657897611148655,-0.001331579522229731,0.001331579522229731
1771082351262570500,4.957570556640625,-0.0006657897611148655,-0.0002663159102667123,0.0023968431632965803
1771082351272511000,4.967510986328125,-0.0006657897611148655,-0.0002663159102667123,0.0023968431632965803
1771082351282451200,4.977451171875,-0.0006657897611148655,-0.0002663159102667123,0.001331579522229731
1771082351292391700,4.9873916015625,-0.0006657897611148655,-0.0002663159102667123,0.0023968431632965803
1771082351302332200,4.997332275390625,-0.0006657897611148655,-0.0002663159102667123,0.001331579522229731
1771082351312272600,5.007272705078125,-0.0006657897611148655,-0.0002663159102667123,0.001331579522229731
1771082351322212900,5.017212890625,-0.0006657897611148655,-0.0002663159102667123,0.0023968431632965803
1771082351332153300,5.0271533203125,-0.0006657897611148655,-0.0002663159102667123,0.0023968431632965803
1771082351342093800,5.03709375,-0.0006657897611148655,-0.0002663159102667123,0.0023968431632965803
1771082351352034300,5.047034423828125,-0.0006657897611148655,-0.0002663159102667123,0.001331579522229731
1771082351361974500,5.056974609375,0.0003994738799519837,-0.0002663159102667123,0.001331579522229731
1771082351371915000,5.0669150390625,-0.0006657897611148655,-0.0002663159102667123,0.0023968431632965803
1771082351381855500,5.07685546875,-0.0006657897611148655,0.0007989477599039674,0.001331579522229731
1771082351391796000,5.0867958984375,-0.0006657897611148655,-0.0002663159102667123,0.001331579522229731
1771082351401736200,5.096736083984375,-0.0006657897611148655,-0.0002663159102667123,0.0023968431632965803
1771082351411676700,5.1066767578125,-0.0006657897611148655,-0.001331579522229731,0.0023968431632965803
1771082351421617200,5.1166171875,-0.0017310534603893757,-0.0002663159102667123,0.001331579522229731
1771082351431557600,5.1265576171875,-0.0017310534603893757,-0.0002663159102667123,0.001331579522229731
1771082351441497900,5.136497802734375,-0.0006657897611148655,-0.0002663159102667123,0.0023968431632965803
1771082351451438300,5.146438232421875,-0.0006657897611148655,-0.0002663159102667123,0.001331579522229731
1771082351461378800,5.15637890625,-0.0006657897611148655,-0.0002663159102667123,0.0023968431632965803
1771082351471319300,5.1663193359375,-0.0006657897611148655,-0.001331579522229731,0.001331579522229731
1771082351481259500,5.176259521484375,-0.0006657897611148655,-0.0002663159102667123,0.001331579522229731
1771082351491200000,5.186199951171875,-0.0006657897611148655,-0.0002663159102667123,0.0023968431632965803
1771082351501140500,5.196140380859375,-0.0006657897611148655,-0.0002663159102667123,0.0023968431632965803
1771082351511081000,5.2060810546875,-0.0006657897611148655,-0.0002663159102667123,0.0023968431632965803
1771082351521021400,5.216021484375,-0.0006657897611148655,-0.0002663159102667123,0.0023968431632965803
1771082351530962000,5.2259619140625,-0.0006657897611148655,-0.0002663159102667123,0.0023968431632965803
1771082351540902400,5.23590234375,-0.0006657897611148655,-0.0002663159102667123,0.0023968431632965803
1771082351550843000,5.2458427734375,-0.0006657897611148655,-0.0002663159102667123,0.0023968431632965803
1771082351560783400,5.255783447265625,0.0003994738799519837,-0.0002663159102667123,0.0023968431632965803
1771082351570723600,5.2657236328125,-0.0006657897611148655,-0.0002663159102667123,0.0023968431632965803
1771082351580664000,5.2756640625,-0.0006657897611148655,-0.0002663159102667123,0.001331579522229731
1771082351590604500,5.2856044921875,-0.0006657897611148655,-0.0002663159102667123,0.0023968431632965803
1771082351600545000,5.295544921875,-0.0006657897611148655,-0.0002663159102667123,0.001331579522229731
1771082351610485500,5.305485595703125,-0.0006657897611148655,-0.0002663159102667123,0.001331579522229731
1771082351620426000,5.315426025390625,-0.0006657897611148655,0.0007989477599039674,0.0023968431632965803
1771082351630366500,5.325366455078125,-0.0006657897611148655,0.0007989477599039674,0.0023968431632965803
1771082351640307000,5.335306884765625,0.0003994738799519837,-0.0002663159102667123,0.0023968431632965803
1771082351650247400,5.345247314453125,-0.0006657897611148655,-0.001331579522229731,0.001331579522229731
1771082351660188000,5.35518798828125,0.0003994738799519837,0.0007989477599039674,0.0023968431632965803
1771082351670128400,5.36512841796875,-0.0017310534603893757,-0.0002663159102667123,0.001331579522229731
1771082351680068900,5.37506884765625,-0.0006657897611148655,-0.0002663159102667123,0.0023968431632965803
1771082351690009300,5.38500927734375,-0.0006657897611148655,-0.0002663159102667123,0.0023968431632965803
1771082351699949800,5.39494970703125,-0.0006657897611148655,-0.0002663159102667123,0.0023968431632965803
1771082351709890300,5.404890380859375,-0.0006657897611148655,-0.001331579522229731,0.0034621069207787514
1771082351719830800,5.414830810546875,-0.0017310534603893757,-0.0002663159102667123,0.0023968431632965803
1771082351729771300,5.424771240234375,-0.0006657897611148655,-0.0002663159102667123,0.0023968431632965803
1771082351739711700,5.434711669921875,-0.0006657897611148655,-0.0002663159102667123,0.0023968431632965803
1771082351749652200,5.44465234375,-0.0006657897611148655,-0.0002663159102667123,0.0023968431632965803
1771082351759592700,5.4545927734375,-0.0006657897611148655,0.0007989477599039674,0.0023968431632965803
1771082351769533200,5.464533203125,-0.0006657897611148655,0.0007989477599039674,0.0023968431632965803
1771082351779473700,5.4744736328125,-0.0006657897611148655,-0.0002663159102667123,0.0023968431632965803
1771082351789414100,5.4844140625,0.0003994738799519837,-0.0002663159102667123,0.001331579522229731
1771082351799354400,5.494354248046875,0.0003994738799519837,-0.0002663159102667123,0.0023968431632965803
1771082351809294800,5.504294921875,-0.0006657897611148655,-0.0002663159102667123,0.001331579522229731
1771082351819235300,5.5142353515625,0.0003994738799519837,-0.001331579522229731,0.001331579522229731
1771082351829175800,5.52417578125,-0.0006657897611148655,-0.0002663159102667123,0.0023968431632965803
1771082351839116300,5.5341162109375,-0.0006657897611148655,-0.0002663159102667123,0.0023968431632965803
1771082351849056800,5.544056884765625,-0.0006657897611148655,-0.0002663159102667123,0.001331579522229731
1771082351858997200,5.553997314453125,0.0003994738799519837,-0.001331579522229731,0.001331579522229731
1771082351868937700,5.563937744140625,-0.0006657897611148655,0.0007989477599039674,0.001331579522229731
1771082351878878200,5.573878173828125,-0.0006657897611148655,-0.001331579522229731,0.001331579522229731
1771082351888818700,5.583818603515625,-0.0006657897611148655,-0.0002663159102667123,0.001331579522229731
1771082351898759200,5.59375927734375,-0.0006657897611148655,-0.0002663159102667123,0.0023968431632965803
1771082351918640000,5.61364013671875,-0.0006657897611148655,-0.001331579522229731,0.001331579522229731
1771082351928580600,5.62358056640625,-0.0006657897611148655,-0.0002663159102667123,0.0023968431632965803
1771082351938521000,5.63352099609375,-0.0006657897611148655,-0.0002663159102667123,0.0023968431632965803
1771082351948461600,5.643461669921875,0.0003994738799519837,-0.0002663159102667123,0.001331579522229731
1771082351968342500,5.663342529296875,-0.0006657897611148655,0.0007989477599039674,0.001331579522229731
1771082351978282800,5.67328271484375,-0.0006657897611148655,-0.0002663159102667123,0.001331579522229731
1771082351988223200,5.68322314453125,0.0003994738799519837,-0.001331579522229731,0.001331579522229731
1771082351998163700,5.693163818359375,-0.0006657897611148655,-0.0002663159102667123,0.001331579522229731
1771082352018044400,5.71304443359375,-0.0006657897611148655,-0.0002663159102667123,0.001331579522229731
1771082352037925400,5.73292529296875,-0.0006657897611148655,-0.0002663159102667123,0.001331579522229731
1771082352057806300,5.752806396484375,-0.0006657897611148655,-0.0002663159102667123,0.001331579522229731
1771082352077687000,5.77268701171875,-0.0006657897611148655,-0.0002663159102667123,0.0023968431632965803
1771082352087627500,5.78262744140625,-0.0006657897611148655,-0.001331579522229731,0.0023968431632965803
1771082352097568000,5.792568115234375,-0.0006657897611148655,-0.0002663159102667123,0.001331579522229731
1771082352117448700,5.81244873046875,-0.0006657897611148655,-0.0002663159102667123,0.0023968431632965803
1771082352137329700,5.83232958984375,-0.0017310534603893757,0.0007989477599039674,0.0023968431632965803
1771082352147270000,5.842269775390625,-0.0006657897611148655,-0.0002663159102667123,0.0023968431632965803
1771082352157210400,5.85221044921875,-0.0006657897611148655,-0.0002663159102667123,0.001331579522229731
1771082352177091300,5.87209130859375,-0.0006657897611148655,-0.0002663159102667123,0.0023968431632965803
1771082352187031600,5.882031494140625,-0.0006657897611148655,-0.0002663159102667123,0.001331579522229731
1771082352196972000,5.891971923828125,-0.0006657897611148655,-0.0002663159102667123,0.001331579522229731
1771082352206912500,5.90191259765625,-0.0006657897611148655,0.0007989477599039674,0.0023968431632965803
1771082352216853000,5.91185302734375,-0.0006657897611148655,-0.001331579522229731,0.0023968431632965803
1771082352226793200,5.921793212890625,-0.0006657897611148655,-0.0002663159102667123,0.0023968431632965803
1771082352246674200,5.941674072265625,-0.0006657897611148655,-0.0002663159102667123,0.001331579522229731
1771082352256614700,5.95161474609375,-0.0006657897611148655,-0.0002663159102667123,0.0023968431632965803
1771082352266555000,5.961554931640625,-0.0006657897611148655,-0.001331579522229731,0.0023968431632965803
1771082352286435800,5.981435791015625,-0.0006657897611148655,-0.0002663159102667123,0.001331579522229731
1771082352296376300,5.991376220703125,-0.0006657897611148655,0.0007989477599039674,0.001331579522229731
1771082352316257000,6.011257080078125,-0.0006657897611148655,-0.0002663159102667123,0.0023968431632965803
1771082352326197500,6.021197509765625,-0.0006657897611148655,-0.0002663159102667123,0.001331579522229731
1771082352346078200,6.041078125,0.0003994738799519837,-0.0002663159102667123,0.0023968431632965803
1771082352365959200,6.060959228515625,-0.0006657897611148655,-0.0002663159102667123,0.001331579522229731
1771082352375899600,6.070899658203125,-0.0006657897611148655,-0.0002663159102667123,0.0023968431632965803
1771082352385839900,6.08083984375,0.0003994738799519837,-0.0002663159102667123,0.0023968431632965803
1771082352395780400,6.0907802734375,-0.0017310534603893757,-0.0002663159102667123,0.0023968431632965803
1771082352415661300,6.110661376953125,-0.0006657897611148655,-0.0002663159102667123,0.001331579522229731
1771082352425601500,6.1206015625,-0.0006657897611148655,-0.0002663159102667123,0.0023968431632965803
1771082352435542000,6.1305419921875,-0.0006657897611148655,-0.0002663159102667123,0.001331579522229731
1771082352445482500,6.140482421875,-0.0006657897611148655,-0.0002663159102667123,0.0023968431632965803
1771082352455423000,6.150423095703125,-0.0006657897611148655,-0.0002663159102667123,0.001331579522229731
1771082352475303700,6.1703037109375,-0.0006657897611148655,-0.0002663159102667123,0.001331579522229731
1771082352495184600,6.1901845703125,-0.0006657897611148655,-0.0002663159102667123,0.001331579522229731
1771082352505124900,6.200124755859375,-0.0006657897611148655,-0.0002663159102667123,0.001331579522229731
1771082352515065300,6.2100654296875,-0.0006657897611148655,-0.0002663159102667123,0.001331579522229731
1771082352525005800,6.220005859375,-0.0006657897611148655,-0.0002663159102667123,0.0023968431632965803
1771082352534946300,6.2299462890625,-0.0006657897611148655,-0.0002663159102667123,0.001331579522229731
1771082352554827300,6.2498271484375,-0.0006657897611148655,-0.0002663159102667123,0.001331579522229731
1771082352574708200,6.269708251953125,-0.0006657897611148655,-0.0002663159102667123,0.0023968431632965803
1771082352584648700,6.279648681640625,-0.0006657897611148655,-0.0002663159102667123,0.001331579522229731
1771082352594589200,6.289589111328125,0.0003994738799519837,-0.0002663159102667123,0.001331579522229731
1771082352604529700,6.29952978515625,-0.0006657897611148655,-0.0002663159102667123,0.001331579522229731
1771082352614470000,6.309469970703125,-0.0006657897611148655,-0.0002663159102667123,0.0023968431632965803
1771082352624410400,6.319410400390625,-0.0006657897611148655,-0.0002663159102667123,0.001331579522229731
1771082352634350800,6.329350830078125,-0.0017310534603893757,-0.001331579522229731,0.001331579522229731
1771082352644291300,6.339291259765625,-0.0006657897611148655,-0.0002663159102667123,0.001331579522229731
1771082352654231800,6.349231689453125,-0.0006657897611148655,-0.0002663159102667123,0.001331579522229731
1771082352664172300,6.35917236328125,-0.0006657897611148655,0.0007989477599039674,0.0023968431632965803
1771082352674112800,6.36911279296875,-0.0006657897611148655,-0.0002663159102667123,0.0023968431632965803
1771082352684053200,6.37905322265625,-0.0006657897611148655,-0.0002663159102667123,0.001331579522229731
1771082352693993700,6.38899365234375,0.0003994738799519837,-0.0002663159102667123,0.001331579522229731
1771082352703934200,6.398934326171875,-0.0006657897611148655,-0.001331579522229731,0.001331579522229731
1771082352713874700,6.408874755859375,-0.0006657897611148655,-0.0002663159102667123,0.0023968431632965803
1771082352723815200,6.418815185546875,-0.0006657897611148655,-0.0002663159102667123,0.001331579522229731
1771082352743696100,6.438696044921875,-0.0006657897611148655,-0.0002663159102667123,0.0023968431632965803
1771082352753636600,6.44863671875,0.0003994738799519837,-0.0002663159102667123,0.001331579522229731
1771082352773517600,6.468517578125,0.0003994738799519837,-0.0002663159102667123,0.0023968431632965803
1771082352783458000,6.4784580078125,0.0003994738799519837,-0.001331579522229731,0.0023968431632965803
1771082352803339000,6.498339111328125,-0.0017310534603893757,-0.0002663159102667123,0.001331579522229731
1771082352823220000,6.518219970703125,-0.0006657897611148655,-0.001331579522229731,0.001331579522229731
1771082352843100700,6.5381005859375,-0.0006657897611148655,-0.0002663159102667123,0.001331579522229731
1771082352853041200,6.548041259765625,-0.0006657897611148655,-0.0002663159102667123,0.0023968431632965803
1771082352862981600,6.557981689453125,-0.0006657897611148655,-0.0002663159102667123,0.0023968431632965803
1771082352872922000,6.567922119140625,-0.0006657897611148655,-0.001331579522229731,0.001331579522229731
1771082352882862600,6.577862548828125,0.0003994738799519837,-0.0002663159102667123,0.0002663159102667123
1771082352892803000,6.587802978515625,0.0003994738799519837,-0.0002663159102667123,0.001331579522229731
1771082352902743600,6.59774365234375,-0.0006657897611148655,-0.0002663159102667123,0.001331579522229731
1771082352912684000,6.60768408203125,-0.0006657897611148655,-0.0002663159102667123,0.0023968431632965803
1771082352922624500,6.61762451171875,-0.0006657897611148655,-0.0002663159102667123,0.0023968431632965803
1771082352932565000,6.62756494140625,-0.0017310534603893757,-0.0002663159102667123,0.001331579522229731
1771082352942505500,6.63750537109375,-0.0006657897611148655,-0.0002663159102667123,0.0023968431632965803
1771082352952446000,6.647446044921875,-0.0006657897611148655,-0.0002663159102667123,0.0023968431632965803
1771082352962386400,6.657386474609375,-0.0006657897611148655,-0.0002663159102667123,0.001331579522229731
1771082352972326700,6.66732666015625,-0.0006657897611148655,0.0007989477599039674,0.001331579522229731
1771082352982267100,6.67726708984375,-0.0006657897611148655,-0.0002663159102667123,0.001331579522229731
1771082352992207600,6.68720751953125,-0.0006657897611148655,-0.0002663159102667123,0.001331579522229731
1771082353002148000,6.697148193359375,-0.0006657897611148655,-0.001331579522229731,0.001331579522229731
1771082353012088300,6.70708837890625,-0.0006657897611148655,-0.0002663159102667123,0.001331579522229731
1771082353022028800,6.71702880859375,-0.0017310534603893757,-0.0002663159102667123,0.001331579522229731
1771082353031969300,6.72696923828125,0.0003994738799519837,-0.0002663159102667123,0.001331579522229731
1771082353041909800,6.73690966796875,0.0003994738799519837,-0.0002663159102667123,0.001331579522229731
1771082353051850000,6.74685009765625,-0.0006657897611148655,-0.0002663159102667123,0.0023968431632965803
1771082353061790500,6.75679052734375,-0.0006657897611148655,-0.0002663159102667123,0.001331579522229731
1771082353071731000,6.76673095703125,-0.0006657897611148655,-0.0002663159102667123,0.0023968431632965803
1771082353081671400,6.77667138671875,0.0003994738799519837,-0.0002663159102667123,0.0023968431632965803
1771082353101552000,6.79655224609375,-0.0006657897611148655,-0.0002663159102667123,0.001331579522229731
1771082353121433000,6.81643310546875,-0.0006657897611148655,-0.0002663159102667123,0.001331579522229731
1771082353131373300,6.826373291015625,0.0003994738799519837,-0.0002663159102667123,0.001331579522229731
1771082353141313800,6.836313720703125,0.0003994738799519837,0.0007989477599039674,0.0023968431632965803
1771082353161194800,6.85619482421875,-0.0006657897611148655,-0.001331579522229731,0.0023968431632965803
1771082353171135000,6.866135009765625,-0.0006657897611148655,-0.0002663159102667123,0.001331579522229731
1771082353181075500,6.876075439453125,-0.0006657897611148655,-0.0002663159102667123,0.001331579522229731
1771082353200956400,6.895956298828125,-0.0006657897611148655,-0.0002663159102667123,0.0023968431632965803
1771082353220837000,6.915837158203125,-0.0006657897611148655,0.0007989477599039674,0.0023968431632965803
1771082353230777600,6.925777587890625,-0.0006657897611148655,-0.0002663159102667123,0.0023968431632965803
1771082353240718000,6.935718017578125,-0.0006657897611148655,-0.0002663159102667123,0.0023968431632965803
1771082353250658300,6.945658203125,-0.0006657897611148655,-0.0002663159102667123,0.0023968431632965803
1771082353260598800,6.955598876953125,-0.0017310534603893757,-0.0002663159102667123,0.0023968431632965803
1771082353270539300,6.965539306640625,-0.0006657897611148655,-0.001331579522229731,0.0023968431632965803
1771082353280479700,6.975479736328125,-0.0006657897611148655,-0.0002663159102667123,0.0023968431632965803
1771082353290420000,6.985419921875,-0.0006657897611148655,-0.0002663159102667123,0.001331579522229731
1771082353300360400,6.9953603515625,-0.0006657897611148655,0.0007989477599039674,0.0023968431632965803
1771082353310301000,7.005301025390625,-0.0006657897611148655,-0.0002663159102667123,0.0023968431632965803
1771082353320241400,7.015241455078125,-0.0006657897611148655,-0.0002663159102667123,0.001331579522229731
1771082353330181600,7.025181640625,0.0003994738799519837,-0.001331579522229731,0.001331579522229731
1771082353340122000,7.0351220703125,-0.0006657897611148655,-0.0002663159102667123,0.001331579522229731
1771082353350062600,7.0450625,-0.0006657897611148655,0.0007989477599039674,0.0023968431632965803
1771082353360003000,7.055003173828125,-0.0006657897611148655,-0.0002663159102667123,0.001331579522229731
1771082353369943300,7.064943359375,-0.0006657897611148655,-0.0002663159102667123,0.0023968431632965803
1771082353379883800,7.0748837890625,-0.0006657897611148655,-0.0002663159102667123,0.0023968431632965803
1771082353389824300,7.08482421875,-0.0006657897611148655,-0.0002663159102667123,0.0023968431632965803
1771082353399764700,7.0947646484375,-0.0006657897611148655,-0.001331579522229731,0.0023968431632965803
1771082353409705000,7.104705078125,-0.0006657897611148655,-0.0002663159102667123,0.001331579522229731
1771082353419645400,7.1146455078125,-0.0006657897611148655,-0.0002663159102667123,0.001331579522229731
1771082353429586000,7.1245859375,-0.0006657897611148655,-0.0002663159102667123,0.0023968431632965803
1771082353439526400,7.1345263671875,0.0003994738799519837,0.0007989477599039674,0.001331579522229731
1771082353449466600,7.144466552734375,-0.0006657897611148655,0.0007989477599039674,0.001331579522229731
1771082353459407000,7.154406982421875,-0.0006657897611148655,-0.0002663159102667123,0.0023968431632965803
1771082353469347600,7.16434765625,-0.0006657897611148655,-0.001331579522229731,0.001331579522229731
1771082353489228300,7.184228271484375,0.0003994738799519837,-0.0002663159102667123,0.0023968431632965803
1771082353499168800,7.194168701171875,0.0003994738799519837,-0.0002663159102667123,0.0023968431632965803
1771082353509109200,7.204109130859375,-0.0006657897611148655,-0.0002663159102667123,0.0023968431632965803
1771082353519049700,7.2140498046875,-0.0017310534603893757,-0.0002663159102667123,0.001331579522229731
1771082353528990000,7.223989990234375,-0.0006657897611148655,-0.0002663159102667123,0.001331579522229731
1771082353538930400,7.233930419921875,0.0003994738799519837,-0.0002663159102667123,0.0023968431632965803
1771082353548871000,7.243870849609375,-0.0006657897611148655,-0.0002663159102667123,0.001331579522229731
1771082353558811400,7.253811279296875,-0.0006657897611148655,-0.0002663159102667123,0.001331579522229731
1771082353568751900,7.263751953125,-0.0006657897611148655,-0.0002663159102667123,0.0023968431632965803
1771082353578692400,7.2736923828125,-0.0006657897611148655,-0.0002663159102667123,0.0023968431632965803
1771082353588632800,7.2836328125,-0.0006657897611148655,-0.0002663159102667123,0.0023968431632965803
1771082353598573300,7.2935732421875,0.0003994738799519837,-0.0002663159102667123,0.0023968431632965803
1771082353608513800,7.303513671875,-0.0006657897611148655,-0.0002663159102667123,0.0023968431632965803
1771082353618454300,7.313454345703125,-0.0006657897611148655,-0.0002663159102667123,0.0023968431632965803
1771082353628394800,7.323394775390625,-0.0006657897611148655,-0.0002663159102667123,0.001331579522229731
1771082353638335200,7.333335205078125,-0.0006657897611148655,-0.0002663159102667123,0.0023968431632965803
1771082353648275500,7.343275390625,-0.0006657897611148655,0.0007989477599039674,0.0034621069207787514
1771082353658216000,7.3532158203125,-0.0006657897611148655,-0.0002663159102667123,0.001331579522229731
1771082353668156400,7.363156494140625,-0.0006657897611148655,-0.001331579522229731,0.0023968431632965803
1771082353678097000,7.373096923828125,-0.0006657897611148655,-0.0002663159102667123,0.0023968431632965803
1771082353688037400,7.383037353515625,-0.0006657897611148655,-0.001331579522229731,0.001331579522229731
1771082353697977900,7.392977783203125,-0.0006657897611148655,-0.0002663159102667123,0.001331579522229731
1771082353717858800,7.41285888671875,-0.0006657897611148655,-0.0002663159102667123,0.0023968431632965803
1771082353727799300,7.42279931640625,-0.0006657897611148655,-0.0002663159102667123,0.001331579522229731
1771082353737739800,7.43273974609375,-0.0006657897611148655,-0.0002663159102667123,0.001331579522229731
1771082353747680300,7.44268017578125,-0.0006657897611148655,-0.0002663159102667123,0.0023968431632965803
1771082353757620700,7.452620849609375,-0.0006657897611148655,0.0007989477599039674,0.001331579522229731
1771082353767561200,7.462561279296875,-0.0006657897611148655,-0.0002663159102667123,0.001331579522229731
1771082353777501700,7.472501708984375,-0.0006657897611148655,-0.001331579522229731,0.0023968431632965803
1771082353787442200,7.482442138671875,-0.0006657897611148655,0.0007989477599039674,0.0023968431632965803
1771082353797382700,7.492382568359375,0.0003994738799519837,-0.001331579522229731,0.001331579522229731
1771082353807323100,7.5023232421875,-0.0006657897611148655,-0.0002663159102667123,0.0023968431632965803
1771082353817263600,7.512263671875,-0.0006657897611148655,-0.0002663159102667123,0.0023968431632965803
1771082353827204000,7.5222041015625,0.0003994738799519837,-0.001331579522229731,0.0023968431632965803
1771082353837144600,7.53214453125,-0.0006657897611148655,-0.001331579522229731,0.001331579522229731
1771082353847085000,7.5420849609375,-0.0006657897611148655,-0.0002663159102667123,0.0023968431632965803
1771082353857025500,7.552025634765625,-0.0006657897611148655,-0.001331579522229731,0.001331579522229731
1771082353866966000,7.561966064453125,-0.0006657897611148655,-0.0002663159102667123,0.0023968431632965803
1771082353876906200,7.57190625,-0.0006657897611148655,-0.0002663159102667123,0.0023968431632965803
1771082353886846700,7.5818466796875,-0.0006657897611148655,0.0007989477599039674,0.0023968431632965803
1771082353906727700,7.601727783203125,-0.0006657897611148655,-0.0002663159102667123,0.0023968431632965803
1771082353916668200,7.611668212890625,-0.0006657897611148655,-0.0002663159102667123,0.0023968431632965803
1771082353936549000,7.631549072265625,-0.0006657897611148655,-0.001331579522229731,0.0023968431632965803
1771082353956430000,7.65143017578125,-0.0006657897611148655,0.0007989477599039674,0.0023968431632965803
1771082353966370300,7.661370361328125,-0.0017310534603893757,-0.0002663159102667123,0.0023968431632965803
1771082353976310800,7.671310791015625,0.0003994738799519837,-0.0002663159102667123,0.001331579522229731
1771082353996191700,7.691191650390625,-0.0006657897611148655,-0.0002663159102667123,0.0023968431632965803
1771082354006132000,7.701132080078125,-0.0006657897611148655,-0.0002663159102667123,0.0023968431632965803
1771082354016072400,7.711072509765625,-0.0006657897611148655,-0.0002663159102667123,0.001331579522229731
1771082354035953400,7.730953369140625,-0.0006657897611148655,-0.0002663159102667123,0.0023968431632965803
1771082354045893600,7.7408935546875,-0.0006657897611148655,-0.0002663159102667123,0.0023968431632965803
1771082354065774600,7.760774658203125,-0.0006657897611148655,-0.0002663159102667123,0.0023968431632965803
1771082354075715000,7.770715087890625,0.0003994738799519837,-0.0002663159102667123,0.001331579522229731
1771082354085655600,7.780655517578125,-0.0006657897611148655,0.0007989477599039674,0.0023968431632965803
1771082354095595800,7.790595703125,-0.0006657897611148655,-0.0002663159102667123,0.001331579522229731
1771082354105536300,7.800536376953125,-0.0006657897611148655,-0.0002663159102667123,0.0023968431632965803
1771082354115476700,7.810476806640625,0.0003994738799519837,-0.0002663159102667123,0.0023968431632965803
1771082354135357400,7.830357421875,-0.0006657897611148655,-0.0002663159102667123,0.0023968431632965803
1771082354145298000,7.8402978515625,-0.0006657897611148655,-0.0002663159102667123,0.001331579522229731
1771082354155238400,7.85023828125,-0.0006657897611148655,-0.0002663159102667123,0.0023968431632965803
1771082354165179000,7.860178955078125,-0.0006657897611148655,-0.0002663159102667123,0.0023968431632965803
1771082354175119000,7.870119140625,0.0003994738799519837,-0.0002663159102667123,0.0023968431632965803
1771082354195000000,7.89,-0.0006657897611148655,-0.0002663159102667123,0.001331579522229731
1771082354204940500,7.8999404296875,-0.0006657897611148655,-0.0002663159102667123,0.0023968431632965803
1771082354214880800,7.909880859375,-0.0006657897611148655,-0.001331579522229731,0.0023968431632965803
1771082354234761700,7.92976171875,-0.0006657897611148655,-0.0002663159102667123,0.001331579522229731
1771082354254642400,7.949642333984375,-0.0006657897611148655,-0.0002663159102667123,0.0023968431632965803
1771082354274523400,7.9695234375,-0.0006657897611148655,0.0007989477599039674,0.001331579522229731
1771082354284463900,7.9794638671875,-0.0006657897611148655,-0.0002663159102667123,0.0002663159102667123
1771082354294404000,7.989404052734375,-0.0006657897611148655,-0.001331579522229731,0.001331579522229731
1771082354314285000,8.00928515625,-0.0006657897611148655,0.0007989477599039674,0.0023968431632965803
1771082354324225500,8.0192255859375,-0.0006657897611148655,-0.0002663159102667123,0.0023968431632965803
1771082354334165800,8.029165771484376,0.0003994738799519837,-0.0002663159102667123,0.001331579522229731
1771082354344106200,8.039106201171874,-0.0006657897611148655,-0.0002663159102667123,0.001331579522229731
1771082354363987200,8.0589873046875,-0.0006657897611148655,-0.0002663159102667123,0.001331579522229731
1771082354383868000,8.078867919921874,-0.0006657897611148655,-0.0002663159102667123,0.0023968431632965803
1771082354393808400,8.088808349609375,-0.0006657897611148655,0.0007989477599039674,0.001331579522229731
1771082354403748900,8.098748779296875,-0.0006657897611148655,-0.0002663159102667123,0.0023968431632965803
1771082354413689000,8.108689208984375,-0.0006657897611148655,-0.0002663159102667123,0.001331579522229731
1771082354423629600,8.118629638671875,-0.0006657897611148655,-0.001331579522229731,0.0023968431632965803
1771082354433570000,8.128570068359375,-0.0006657897611148655,-0.0002663159102667123,0.0023968431632965803
1771082354443510500,8.138510498046875,-0.0006657897611148655,-0.0002663159102667123,0.001331579522229731
1771082354453450800,8.14845068359375,-0.0006657897611148655,-0.0002663159102667123,0.001331579522229731
1771082354473331700,8.168331787109375,-0.0006657897611148655,-0.0002663159102667123,0.001331579522229731
1771082354483272200,8.178272216796875,-0.0006657897611148655,-0.001331579522229731,0.001331579522229731
1771082354503153000,8.19815283203125,-0.0006657897611148655,-0.001331579522229731,0.001331579522229731
1771082354523033900,8.218033935546876,0.0003994738799519837,-0.001331579522229731,0.0023968431632965803
1771082354542914600,8.23791455078125,-0.0006657897611148655,-0.0002663159102667123,0.0023968431632965803
1771082354552855000,8.24785498046875,-0.0006657897611148655,0.0007989477599039674,0.0023968431632965803
1771082354572735700,8.26773583984375,-0.0006657897611148655,-0.0002663159102667123,0.0023968431632965803
1771082354582676200,8.27767626953125,-0.0017310534603893757,-0.0002663159102667123,0.0023968431632965803
1771082354602557200,8.29755712890625,-0.0006657897611148655,0.0007989477599039674,0.001331579522229731
1771082354622438100,8.317438232421875,-0.0006657897611148655,0.0007989477599039674,0.0023968431632965803
1771082354642319000,8.337319091796875,-0.0006657897611148655,-0.001331579522229731,0.0023968431632965803
1771082354652259600,8.347259521484375,-0.0006657897611148655,-0.0002663159102667123,0.001331579522229731
1771082354662200000,8.357199951171875,-0.0006657897611148655,-0.0002663159102667123,0.001331579522229731
1771082354672140500,8.367140625,-0.0006657897611148655,-0.0002663159102667123,0.0023968431632965803
1771082354682080800,8.377080810546875,-0.0006657897611148655,-0.0002663159102667123,0.001331579522229731
1771082354692021200,8.387021240234375,-0.0006657897611148655,-0.0002663159102667123,0.0023968431632965803
1771082354701961700,8.396961669921875,-0.0006657897611148655,-0.0002663159102667123,0.0023968431632965803
1771082354711902200,8.406902099609376,-0.0006657897611148655,-0.0002663159102667123,0.0023968431632965803
1771082354721842700,8.4168427734375,-0.0006657897611148655,-0.0002663159102667123,0.0023968431632965803
1771082354731783200,8.426783203125,-0.0006657897611148655,-0.001331579522229731,0.001331579522229731
1771082354741723600,8.4367236328125,-0.0006657897611148655,0.0007989477599039674,0.0023968431632965803
1771082354751664000,8.4466640625,-0.0006657897611148655,-0.0002663159102667123,0.0023968431632965803
1771082354761604600,8.4566044921875,0.0003994738799519837,-0.0002663159102667123,0.001331579522229731
1771082354771545000,8.466545166015624,-0.0006657897611148655,-0.0002663159102667123,0.0023968431632965803
1771082354781485600,8.476485595703124,-0.0006657897611148655,-0.001331579522229731,0.0023968431632965803
1771082354791426000,8.486426025390625,-0.0006657897611148655,-0.0002663159102667123,0.001331579522229731
1771082354801366500,8.496366455078125,-0.0017310534603893757,-0.0002663159102667123,0.0023968431632965803
1771082354821247500,8.51624755859375,-0.0006657897611148655,0.0007989477599039674,0.0023968431632965803
1771082354831188000,8.52618798828125,0.0003994738799519837,-0.001331579522229731,0.001331579522229731
1771082354841128400,8.53612841796875,-0.0006657897611148655,-0.0002663159102667123,0.0023968431632965803
1771082354851069000,8.54606884765625,-0.0006657897611148655,0.0007989477599039674,0.001331579522229731
1771082354861009400,8.556009521484375,-0.0006657897611148655,0.0007989477599039674,0.0023968431632965803
1771082354870950000,8.565949951171875,-0.0006657897611148655,-0.0002663159102667123,0.001331579522229731
1771082354880890400,8.575890380859375,-0.0017310534603893757,-0.0002663159102667123,0.0023968431632965803
1771082354890830800,8.585830810546875,-0.0006657897611148655,0.0007989477599039674,0.0034621069207787514
1771082354900771300,8.595771240234376,-0.0006657897611148655,0.0007989477599039674,0.0023968431632965803
1771082354910711600,8.605711669921876,-0.0006657897611148655,-0.0002663159102667123,0.001331579522229731
1771082354920652000,8.615652099609376,-0.0006657897611148655,-0.0002663159102667123,0.0023968431632965803
1771082354930592500,8.625592529296876,-0.0006657897611148655,-0.0002663159102667123,0.0023968431632965803
1771082354940533000,8.635532958984374,-0.0006657897611148655,-0.0002663159102667123,0.0023968431632965803
1771082354950473500,8.645473388671874,-0.0006657897611148655,-0.0002663159102667123,0.0023968431632965803
1771082354960414000,8.6554140625,-0.0006657897611148655,-0.0002663159102667123,0.001331579522229731
1771082354970354400,8.6653544921875,-0.0006657897611148655,-0.0002663159102667123,0.0023968431632965803
1771082354980295000,8.675294921875,-0.0006657897611148655,0.0007989477599039674,0.0023968431632965803
1771082354990235400,8.6852353515625,-0.0006657897611148655,0.0007989477599039674,0.0023968431632965803
1771082355010116000,8.7051162109375,-0.0006657897611148655,-0.0002663159102667123,0.0023968431632965803
1771082355029997000,8.7249970703125,-0.0006657897611148655,-0.0002663159102667123,0.001331579522229731
1771082355039937300,8.734937255859375,-0.0006657897611148655,-0.0002663159102667123,0.0023968431632965803
1771082355049877800,8.744877685546875,-0.0006657897611148655,-0.001331579522229731,0.001331579522229731
1771082355069758700,8.7647587890625,-0.0006657897611148655,0.0007989477599039674,0.0023968431632965803
1771082355079699200,8.77469921875,-0.0006657897611148655,-0.0002663159102667123,0.001331579522229731
1771082355099580000,8.794579833984375,-0.0006657897611148655,-0.0002663159102667123,0.0023968431632965803
1771082355119460900,8.8144609375,-0.0006657897611148655,-0.0002663159102667123,0.001331579522229731
1771082355139341600,8.834341552734376,-0.0006657897611148655,0.0007989477599039674,0.0023968431632965803
1771082355159222500,8.854222412109374,-0.0006657897611148655,0.0007989477599039674,0.001331579522229731
1771082355169162800,8.864162841796874,-0.0006657897611148655,-0.0002663159102667123,0.001331579522229731
1771082355179103200,8.874103271484374,0.0003994738799519837,-0.0002663159102667123,0.001331579522229731
1771082355189043700,8.884043701171874,-0.0006657897611148655,-0.001331579522229731,0.0023968431632965803
1771082355198984200,8.893984130859375,-0.0006657897611148655,-0.0002663159102667123,0.0023968431632965803
1771082355208924400,8.90392431640625,-0.0006657897611148655,-0.0002663159102667123,0.0023968431632965803
1771082355228805400,8.923805419921875,0.0003994738799519837,-0.0002663159102667123,0.0023968431632965803
1771082355248686000,8.94368603515625,-0.0006657897611148655,-0.0002663159102667123,0.001331579522229731
1771082355258626600,8.95362646484375,-0.0006657897611148655,0.0007989477599039674,0.001331579522229731
1771082355268567000,8.963567138671875,-0.0006657897611148655,-0.0002663159102667123,0.0023968431632965803
1771082355278507500,8.973507568359375,-0.0006657897611148655,-0.0002663159102667123,0.001331579522229731
1771082355288447700,8.98344775390625,-0.0006657897611148655,-0.001331579522229731,0.001331579522229731
1771082355298388200,8.99338818359375,-0.0017310534603893757,-0.0002663159102667123,0.0023968431632965803
1771082355308328700,9.00332861328125,-0.0006657897611148655,-0.0002663159102667123,0.0023968431632965803
1771082355318269200,9.013269287109376,-0.0006657897611148655,-0.0002663159102667123,0.0023968431632965803
1771082355328209400,9.02320947265625,-0.0006657897611148655,0.0007989477599039674,0.0023968431632965803
1771082355338150000,9.03314990234375,-0.0006657897611148655,-0.0002663159102667123,0.0023968431632965803
1771082355348090400,9.04309033203125,-0.0006657897611148655,-0.001331579522229731,0.0034621069207787514
1771082355367971000,9.06297119140625,0.0003994738799519837,-0.001331579522229731,0.001331579522229731
1771082355377911600,9.07291162109375,-0.0006657897611148655,-0.0002663159102667123,0.0023968431632965803
1771082355387852000,9.08285205078125,-0.0006657897611148655,-0.0002663159102667123,0.001331579522229731
1771082355397792500,9.09279248046875,-0.0006657897611148655,-0.0002663159102667123,0.0023968431632965803
1771082355407732700,9.102732666015624,-0.0006657897611148655,-0.0002663159102667123,0.001331579522229731
1771082355417673200,9.112673095703125,-0.0006657897611148655,-0.0002663159102667123,0.0023968431632965803
1771082355427613700,9.12261376953125,-0.0006657897611148655,0.0007989477599039674,0.0023968431632965803
1771082355437554200,9.13255419921875,-0.0006657897611148655,-0.0002663159102667123,0.0023968431632965803
1771082355447494400,9.142494384765625,0.0003994738799519837,-0.001331579522229731,0.001331579522229731
1771082355457435000,9.152434814453125,0.0003994738799519837,-0.0002663159102667123,0.0023968431632965803
1771082355467375400,9.162375244140625,0.0003994738799519837,-0.0002663159102667123,0.001331579522229731
1771082355477315800,9.17231591796875,-0.0006657897611148655,-0.0002663159102667123,0.0023968431632965803
1771082355487256000,9.182256103515625,-0.0006657897611148655,-0.0002663159102667123,0.001331579522229731
1771082355497196500,9.192196533203125,-0.0006657897611148655,-0.0002663159102667123,0.001331579522229731
1771082355507137000,9.202136962890625,0.0003994738799519837,0.0007989477599039674,0.0023968431632965803
1771082355517077500,9.212077392578125,-0.0006657897611148655,-0.001331579522229731,0.0002663159102667123
1771082355527017700,9.222017822265625,0.0003994738799519837,-0.0002663159102667123,0.001331579522229731
1771082355536958200,9.231958251953126,-0.0006657897611148655,-0.0002663159102667123,0.0002663159102667123
1771082355546898700,9.241898681640626,-0.0006657897611148655,-0.0002663159102667123,0.0023968431632965803
1771082355556839200,9.251839111328126,-0.0006657897611148655,-0.001331579522229731,0.0023968431632965803
1771082355566779400,9.261779296875,0.0003994738799519837,-0.0002663159102667123,0.0023968431632965803
1771082355576720000,9.271719970703124,-0.0006657897611148655,-0.0002663159102667123,0.0023968431632965803
1771082355586660400,9.281660400390624,-0.0006657897611148655,-0.0002663159102667123,0.001331579522229731
1771082355606541000,9.301541015625,-0.0006657897611148655,-0.0002663159102667123,0.0023968431632965803
1771082355616481500,9.3114814453125,-0.0006657897611148655,-0.0002663159102667123,0.0023968431632965803
1771082355626422000,9.321422119140625,-0.0006657897611148655,-0.0002663159102667123,0.0023968431632965803
1771082355636362500,9.331362548828125,-0.0006657897611148655,-0.0002663159102667123,0.0023968431632965803
1771082355646302700,9.341302734375,-0.0006657897611148655,-0.0002663159102667123,0.001331579522229731
1771082355656243200,9.3512431640625,-0.0006657897611148655,0.0007989477599039674,0.001331579522229731
1771082355666183700,9.36118359375,-0.0006657897611148655,-0.0002663159102667123,0.0023968431632965803
1771082355676124200,9.371124267578125,-0.0017310534603893757,0.0007989477599039674,0.001331579522229731
1771082355686064600,9.381064697265625,-0.0006657897611148655,-0.0002663159102667123,0.0023968431632965803
1771082355696005000,9.391005126953125,0.0003994738799519837,-0.0002663159102667123,0.0023968431632965803
1771082355705945600,9.400945556640625,-0.0006657897611148655,-0.0002663159102667123,0.001331579522229731
1771082355715886000,9.410885986328125,-0.0006657897611148655,-0.0002663159102667123,0.001331579522229731
1771082355725826600,9.42082666015625,-0.0006657897611148655,-0.001331579522229731,0.001331579522229731
1771082355735767000,9.43076708984375,-0.0006657897611148655,-0.0002663159102667123,0.0023968431632965803
1771082355745707500,9.44070751953125,-0.0017310534603893757,-0.001331579522229731,0.001331579522229731
1771082355755648000,9.45064794921875,-0.0006657897611148655,-0.0002663159102667123,0.001331579522229731
1771082355765588200,9.460588134765626,-0.0006657897611148655,-0.0002663159102667123,0.0023968431632965803
1771082355775528700,9.47052880859375,-0.0006657897611148655,-0.001331579522229731,0.0023968431632965803
1771082355785469200,9.48046923828125,-0.0006657897611148655,-0.0002663159102667123,0.001331579522229731
1771082355795409700,9.49040966796875,-0.0006657897611148655,0.0007989477599039674,0.001331579522229731
1771082355805350100,9.50035009765625,-0.0006657897611148655,-0.0002663159102667123,0.0023968431632965803
1771082355815290600,9.51029052734375,-0.0017310534603893757,-0.001331579522229731,0.001331579522229731
1771082355825231000,9.520231201171875,-0.0006657897611148655,-0.001331579522229731,0.001331579522229731
1771082355835171600,9.530171630859375,0.0003994738799519837,-0.0002663159102667123,0.0023968431632965803
1771082355845112000,9.540112060546875,0.0003994738799519837,-0.0002663159102667123,0.0023968431632965803
1771082355855052500,9.550052490234375,-0.0006657897611148655,-0.0002663159102667123,0.0023968431632965803
1771082355874933500,9.56993359375,0.0003994738799519837,-0.0002663159102667123,0.001331579522229731
1771082355884874000,9.5798740234375,-0.0006657897611148655,-0.0002663159102667123,0.0023968431632965803
1771082355894814500,9.589814453125,-0.0006657897611148655,-0.0002663159102667123,0.0023968431632965803
1771082355904755000,9.5997548828125,0.0003994738799519837,-0.0002663159102667123,0.0023968431632965803
1771082355914695400,9.6096953125,-0.0006657897611148655,-0.0002663159102667123,0.001331579522229731
1771082355924636000,9.619635986328126,-0.0006657897611148655,-0.0002663159102667123,0.0023968431632965803
1771082355934576400,9.629576416015626,-0.0006657897611148655,-0.0002663159102667123,0.001331579522229731
1771082355944516900,9.639516845703126,-0.0006657897611148655,-0.0002663159102667123,0.0023968431632965803
1771082355954457300,9.649457275390626,-0.0006657897611148655,-0.0002663159102667123,0.0023968431632965803
1771082355964397800,9.659397705078124,-0.0006657897611148655,-0.0002663159102667123,0.001331579522229731
1771082355974338300,9.66933837890625,-0.0006657897611148655,-0.0002663159102667123,0.0023968431632965803
1771082355984278500,9.679278564453124,-0.0006657897611148655,-0.0002663159102667123,0.001331579522229731
1771082356004159500,9.699159423828124,-0.0006657897611148655,-0.0002663159102667123,0.0034621069207787514
1771082356014100000,9.709099853515625,-0.0006657897611148655,-0.0002663159102667123,0.001331579522229731
1771082356033981000,9.72898095703125,0.0003994738799519837,-0.0002663159102667123,0.001331579522229731
1771082356053862000,9.74886181640625,-0.0006657897611148655,0.0007989477599039674,0.001331579522229731
1771082356063802400,9.75880224609375,-0.0006657897611148655,-0.0002663159102667123,0.0023968431632965803
1771082356073742600,9.76874267578125,-0.0006657897611148655,0.0007989477599039674,0.001331579522229731
1771082356083683000,9.77868310546875,-0.0006657897611148655,-0.0002663159102667123,0.001331579522229731
1771082356093623600,9.78862353515625,-0.0006657897611148655,-0.0002663159102667123,0.001331579522229731
1771082356103564000,9.79856396484375,0.0003994738799519837,-0.0002663159102667123,0.0023968431632965803
1771082356113504300,9.808504150390625,-0.0006657897611148655,-0.0002663159102667123,0.0023968431632965803
1771082356123444700,9.81844482421875,-0.0006657897611148655,-0.0002663159102667123,0.0023968431632965803
1771082356133385200,9.82838525390625,0.0003994738799519837,-0.0002663159102667123,0.0023968431632965803
1771082356143325700,9.83832568359375,-0.0006657897611148655,-0.0002663159102667123,0.0023968431632965803
1771082356153266000,9.848265869140626,-0.0006657897611148655,-0.001331579522229731,0.0023968431632965803
1771082356173147000,9.86814697265625,-0.0006657897611148655,-0.0002663159102667123,0.001331579522229731
1771082356183087400,9.87808740234375,-0.0006657897611148655,-0.0002663159102667123,0.0023968431632965803
1771082356202968000,9.897968017578124,-0.0006657897611148655,0.0007989477599039674,0.0023968431632965803
1771082356212908500,9.907908447265624,-0.0006657897611148655,-0.0002663159102667123,0.001331579522229731
1771082356222849000,9.91784912109375,-0.0006657897611148655,-0.0002663159102667123,0.001331579522229731
1771082356242729700,9.937729736328125,-0.0006657897611148655,-0.001331579522229731,0.0023968431632965803
1771082356262610700,9.957610595703125,-0.0006657897611148655,-0.0002663159102667123,0.0023968431632965803
1771082356282491400,9.977491455078125,-0.0006657897611148655,-0.0002663159102667123,0.0023968431632965803
1771082356302372400,9.997372314453125,-0.0006657897611148655,-0.001331579522229731,0.0023968431632965803
1771082356322253000,10.017253173828125,-0.0006657897611148655,-0.001331579522229731,0.0023968431632965803
1771082356342134000,10.037134033203126,-0.0006657897611148655,-0.001331579522229731,0.0023968431632965803
1771082356352074200,10.04707421875,-0.0006657897611148655,-0.0002663159102667123,0.0023968431632965803
1771082356362014700,10.0570146484375,-0.0006657897611148655,-0.0002663159102667123,0.0034621069207787514
1771082356371955200,10.066955078125,-0.0006657897611148655,-0.0002663159102667123,0.0023968431632965803
1771082356381895700,10.076895751953124,-0.0006657897611148655,-0.0002663159102667123,0.001331579522229731
1771082356401776400,10.0967763671875,-0.0006657897611148655,-0.0002663159102667123,0.0023968431632965803
1771082356421657300,10.1166572265625,-0.0006657897611148655,-0.0002663159102667123,0.001331579522229731
1771082356431597600,10.12659765625,0.0003994738799519837,-0.0002663159102667123,0.001331579522229731
1771082356451478500,10.146478515625,-0.0006657897611148655,-0.0002663159102667123,0.0023968431632965803
1771082356471359200,10.166359130859375,-0.0017310534603893757,-0.0002663159102667123,0.0023968431632965803
1771082356491240200,10.186240234375,-0.0006657897611148655,-0.0002663159102667123,0.001331579522229731
1771082356511121000,10.206120849609375,0.0003994738799519837,-0.0002663159102667123,0.001331579522229731
1771082356531001900,10.226001953125,0.0003994738799519837,-0.001331579522229731,0.001331579522229731
1771082356540942300,10.2359423828125,-0.0006657897611148655,-0.0002663159102667123,0.001331579522229731
1771082356550882600,10.245882568359375,-0.0006657897611148655,-0.001331579522229731,0.001331579522229731
1771082356560823000,10.255822998046876,-0.0006657897611148655,-0.001331579522229731,0.0023968431632965803
1771082356570763500,10.265763427734376,-0.0006657897611148655,-0.0002663159102667123,0.0023968431632965803
1771082356580704000,10.2757041015625,-0.0017310534603893757,0.0007989477599039674,0.0023968431632965803
1771082356600584700,10.295584716796874,-0.0006657897611148655,-0.001331579522229731,0.0023968431632965803
1771082356620465700,10.315465576171874,0.0003994738799519837,-0.0002663159102667123,0.001331579522229731
1771082356640346400,10.335346435546874,-0.0006657897611148655,-0.0002663159102667123,0.0023968431632965803
1771082356660227300,10.355227294921875,-0.0006657897611148655,-0.0002663159102667123,0.001331579522229731
1771082356670167600,10.36516748046875,-0.0006657897611148655,-0.0002663159102667123,0.001331579522229731
1771082356690048500,10.385048583984375,0.0003994738799519837,-0.0002663159102667123,0.0023968431632965803
1771082356699989000,10.394989013671875,-0.0017310534603893757,-0.0002663159102667123,0.001331579522229731
1771082356709929200,10.40492919921875,-0.0006657897611148655,-0.0002663159102667123,0.0023968431632965803
1771082356719869700,10.41486962890625,-0.0006657897611148655,-0.0002663159102667123,0.001331579522229731
1771082356729810200,10.42481005859375,-0.0006657897611148655,-0.0002663159102667123,0.0023968431632965803
1771082356739750700,10.434750732421875,-0.0006657897611148655,-0.0002663159102667123,0.001331579522229731
1771082356749691000,10.44469091796875,-0.0006657897611148655,-0.0002663159102667123,0.0023968431632965803
1771082356769571800,10.46457177734375,-0.0006657897611148655,0.0007989477599039674,0.001331579522229731
1771082356779512300,10.47451220703125,-0.0006657897611148655,-0.0002663159102667123,0.0023968431632965803
1771082356789452800,10.484452880859376,-0.0006657897611148655,-0.0002663159102667123,0.001331579522229731
1771082356799393300,10.494393310546876,-0.0006657897611148655,-0.0002663159102667123,0.001331579522229731
1771082356809333800,10.504333740234374,-0.0006657897611148655,-0.0002663159102667123,0.001331579522229731
1771082356819274200,10.514274169921874,-0.0006657897611148655,-0.0002663159102667123,0.0023968431632965803
1771082356829214700,10.524214599609374,-0.0006657897611148655,-0.0002663159102667123,0.0023968431632965803
1771082356839155000,10.534155029296874,-0.0006657897611148655,-0.0002663159102667123,0.0023968431632965803
1771082356849095400,10.544095458984375,-0.0006657897611148655,-0.0002663159102667123,0.001331579522229731
1771082356859036000,10.554035888671875,-0.0006657897611148655,-0.0002663159102667123,0.001331579522229731
1771082356868976400,10.563976318359375,-0.0006657897611148655,-0.0002663159102667123,0.0023968431632965803
1771082356888857300,10.583857421875,0.0003994738799519837,-0.0002663159102667123,0.0023968431632965803
1771082356898797800,10.5937978515625,0.0003994738799519837,-0.001331579522229731,0.0023968431632965803
1771082356918678800,10.6136787109375,-0.0006657897611148655,-0.0002663159102667123,0.001331579522229731
1771082356938559700,10.633559814453125,-0.0006657897611148655,-0.0002663159102667123,0.001331579522229731
1771082356958440700,10.653440673828126,-0.0006657897611148655,-0.0002663159102667123,0.0023968431632965803
1771082356978321700,10.67332177734375,-0.0006657897611148655,-0.0002663159102667123,0.001331579522229731
1771082356988262100,10.68326220703125,-0.0006657897611148655,-0.0002663159102667123,0.0023968431632965803
1771082356998202600,10.69320263671875,-0.0006657897611148655,-0.0002663159102667123,0.001331579522229731
1771082357008143000,10.70314306640625,-0.0006657897611148655,-0.0002663159102667123,0.0023968431632965803
1771082357028024000,10.723024169921874,-0.0006657897611148655,-0.0002663159102667123,0.0002663159102667123
1771082357037964500,10.732964599609375,-0.0006657897611148655,-0.0002663159102667123,0.0002663159102667123
1771082357047905000,10.742905029296875,-0.0006657897611148655,-0.0002663159102667123,0.0023968431632965803
1771082357067785700,10.76278564453125,-0.0006657897611148655,-0.0002663159102667123,0.0023968431632965803
1771082357077726200,10.772726318359375,-0.0006657897611148655,-0.0002663159102667123,0.0023968431632965803
1771082357087666700,10.782666748046875,-0.0006657897611148655,-0.0002663159102667123,0.001331579522229731
1771082357097607200,10.792607177734375,-0.0006657897611148655,-0.001331579522229731,0.001331579522229731
1771082357107547600,10.802547607421875,0.0003994738799519837,-0.001331579522229731,0.001331579522229731
1771082357117488000,10.812488037109375,-0.0006657897611148655,-0.0002663159102667123,0.0023968431632965803
1771082357137369000,10.832369140625,-0.0006657897611148655,-0.0002663159102667123,0.0023968431632965803
1771082357147309600,10.8423095703125,-0.0006657897611148655,-0.0002663159102667123,0.001331579522229731
1771082357157250000,10.85225,-0.0006657897611148655,-0.0002663159102667123,0.0034621069207787514
1771082357177130800,10.872130859375,-0.0006657897611148655,-0.0002663159102667123,0.0023968431632965803
1771082357187071200,10.8820712890625,-0.0006657897611148655,-0.0002663159102667123,0.0023968431632965803
1771082357206952000,10.901951904296874,-0.0006657897611148655,0.0007989477599039674,0.0023968431632965803
1771082357226833000,10.9218330078125,-0.0006657897611148655,-0.0002663159102667123,0.0023968431632965803
1771082357236773400,10.9317734375,0.0003994738799519837,-0.0002663159102667123,0.001331579522229731
1771082357256654000,10.951654052734375,-0.0006657897611148655,0.0007989477599039674,0.0023968431632965803
1771082357276535000,10.97153515625,-0.0006657897611148655,0.0007989477599039674,0.0023968431632965803
1771082357286475300,10.981475341796875,-0.0006657897611148655,0.0007989477599039674,0.0023968431632965803
1771082357296415700,10.991415771484375,0.0003994738799519837,-0.0002663159102667123,0.0023968431632965803
1771082357306356200,11.001356201171875,-0.0006657897611148655,-0.0002663159102667123,0.001331579522229731
1771082357316296700,11.011296630859375,0.0003994738799519837,-0.0002663159102667123,0.001331579522229731
1771082357326237000,11.02123681640625,-0.0006657897611148655,-0.0002663159102667123,0.001331579522229731
1771082357336177400,11.031177490234375,-0.0006657897611148655,-0.0002663159102667123,0.0023968431632965803
1771082357346118000,11.041117919921875,-0.0006657897611148655,-0.0002663159102667123,0.001331579522229731
1771082357356058400,11.051058349609375,-0.0006657897611148655,-0.0002663159102667123,0.0023968431632965803
1771082357365998600,11.06099853515625,0.0003994738799519837,-0.0002663159102667123,0.001331579522229731
1771082357375939000,11.07093896484375,-0.0006657897611148655,-0.0002663159102667123,0.0023968431632965803
1771082357385879600,11.080879638671876,-0.0006657897611148655,-0.0002663159102667123,0.0023968431632965803
1771082357395820000,11.090820068359376,-0.0006657897611148655,-0.0002663159102667123,0.001331579522229731
1771082357405760300,11.10076025390625,-0.0006657897611148655,-0.0002663159102667123,0.0023968431632965803
1771082357415700700,11.11070068359375,-0.0006657897611148655,-0.0002663159102667123,0.0023968431632965803
1771082357425641200,11.12064111328125,0.0003994738799519837,-0.0002663159102667123,0.0023968431632965803
1771082357435581700,11.130581787109374,-0.0006657897611148655,-0.001331579522229731,0.001331579522229731
1771082357445522000,11.14052197265625,0.0003994738799519837,-0.0002663159102667123,0.001331579522229731
1771082357455462400,11.15046240234375,-0.0006657897611148655,0.0007989477599039674,0.0023968431632965803
1771082357465403000,11.16040283203125,-0.0006657897611148655,-0.0002663159102667123,0.001331579522229731
1771082357475343400,11.17034326171875,-0.0006657897611148655,-0.0002663159102667123,0.001331579522229731
1771082357485283600,11.18028369140625,0.0003994738799519837,-0.0002663159102667123,0.0023968431632965803
1771082357495224000,11.19022412109375,-0.0006657897611148655,-0.0002663159102667123,0.0023968431632965803
1771082357505164500,11.20016455078125,0.0003994738799519837,-0.0002663159102667123,0.001331579522229731
1771082357515105000,11.21010498046875,-0.0006657897611148655,-0.0002663159102667123,0.0023968431632965803
1771082357525045200,11.220045166015625,0.0003994738799519837,-0.0002663159102667123,0.0023968431632965803
1771082357534985700,11.22998583984375,-0.0006657897611148655,-0.0002663159102667123,0.0023968431632965803
1771082357544926200,11.23992626953125,-0.0006657897611148655,-0.0002663159102667123,0.0023968431632965803
1771082357554866700,11.24986669921875,-0.0006657897611148655,-0.0002663159102667123,0.0023968431632965803
1771082357564807200,11.25980712890625,-0.0006657897611148655,-0.0002663159102667123,0.001331579522229731
1771082357574747400,11.269747314453125,-0.0006657897611148655,-0.0002663159102667123,0.001331579522229731
1771082357584687900,11.27968798828125,-0.0006657897611148655,0.0007989477599039674,0.001331579522229731
1771082357594628400,11.28962841796875,-0.0006657897611148655,-0.0002663159102667123,0.0023968431632965803
1771082357604568800,11.29956884765625,-0.0006657897611148655,0.0007989477599039674,0.0023968431632965803
1771082357614509000,11.309509033203126,-0.0006657897611148655,-0.0002663159102667123,0.001331579522229731
1771082357624449500,11.319449462890624,-0.0017310534603893757,0.0007989477599039674,0.001331579522229731
1771082357634390000,11.32939013671875,-0.0006657897611148655,-0.0002663159102667123,0.001331579522229731
1771082357644330500,11.33933056640625,-0.0006657897611148655,0.0007989477599039674,0.0023968431632965803
1771082357654270700,11.349270751953124,-0.0006657897611148655,-0.0002663159102667123,0.0023968431632965803
1771082357664211200,11.359211181640624,-0.0006657897611148655,-0.001331579522229731,0.001331579522229731
1771082357674151700,11.369151611328125,-0.0006657897611148655,-0.0002663159102667123,0.0023968431632965803
1771082357684092200,11.379092041015625,-0.0006657897611148655,-0.0002663159102667123,0.0034621069207787514
1771082357694032400,11.389032470703125,-0.0006657897611148655,-0.001331579522229731,0.0023968431632965803
1771082357703972900,11.398972900390625,-0.0006657897611148655,-0.0002663159102667123,0.0023968431632965803
1771082357713913300,11.408913330078125,-0.0006657897611148655,-0.001331579522229731,0.0023968431632965803
1771082357723853800,11.418853759765625,-0.0006657897611148655,-0.0002663159102667123,0.0023968431632965803
1771082357733794000,11.4287939453125,-0.0006657897611148655,-0.0002663159102667123,0.0023968431632965803
1771082357743734500,11.438734619140625,-0.0006657897611148655,-0.0002663159102667123,0.0023968431632965803
1771082357753675000,11.448675048828125,-0.0006657897611148655,-0.001331579522229731,0.0023968431632965803
1771082357763615500,11.458615478515625,-0.0006657897611148655,-0.0002663159102667123,0.001331579522229731
1771082357773555700,11.4685556640625,-0.0006657897611148655,-0.0002663159102667123,0.001331579522229731
1771082357783496200,11.47849609375,-0.0006657897611148655,-0.0002663159102667123,0.001331579522229731
1771082357793436700,11.488436767578126,-0.0006657897611148655,-0.0002663159102667123,0.001331579522229731
1771082357803377200,11.498377197265626,-0.0006657897611148655,0.0007989477599039674,0.0023968431632965803
1771082357813317400,11.5083173828125,-0.0006657897611148655,-0.0002663159102667123,0.001331579522229731
1771082357823257900,11.5182578125,-0.0006657897611148655,-0.0002663159102667123,0.0023968431632965803
1771082357833198300,11.5281982421875,-0.0006657897611148655,-0.0002663159102667123,0.001331579522229731
1771082357843138800,11.538138916015624,0.0003994738799519837,-0.0002663159102667123,0.001331579522229731
1771082357853079000,11.5480791015625,-0.0006657897611148655,-0.0002663159102667123,0.001331579522229731
1771082357863019500,11.55801953125,-0.0006657897611148655,-0.0002663159102667123,0.0023968431632965803
1771082357872960000,11.5679599609375,-0.0006657897611148655,-0.0002663159102667123,0.001331579522229731
1771082357882900500,11.577900390625,-0.0006657897611148655,-0.0002663159102667123,0.0023968431632965803
1771082357892840700,11.5878408203125,-0.0006657897611148655,-0.0002663159102667123,0.0023968431632965803
1771082357902781200,11.59778125,-0.0006657897611148655,-0.0002663159102667123,0.001331579522229731
1771082357912721700,11.6077216796875,-0.0006657897611148655,-0.0002663159102667123,0.0023968431632965803
1771082357922662100,11.617662109375,-0.0006657897611148655,-0.0002663159102667123,0.001331579522229731
1771082357932602400,11.627602294921875,-0.0006657897611148655,-0.0002663159102667123,0.001331579522229731
1771082357942542800,11.63754296875,-0.0006657897611148655,-0.0002663159102667123,0.0034621069207787514
1771082357952483300,11.6474833984375,-0.0006657897611148655,-0.0002663159102667123,0.001331579522229731
1771082357962423800,11.657423828125,-0.0006657897611148655,-0.001331579522229731,0.0023968431632965803
1771082357972364000,11.667364013671875,-0.0006657897611148655,0.0007989477599039674,0.0023968431632965803
1771082357982304500,11.677304443359375,-0.0017310534603893757,-0.0002663159102667123,0.001331579522229731
1771082357992245000,11.687244873046875,-0.0006657897611148655,-0.001331579522229731,0.0023968431632965803
1771082358002185500,11.697185546875,-0.0006657897611148655,-0.0002663159102667123,0.001331579522229731
1771082358012126000,11.7071259765625,-0.0006657897611148655,-0.0002663159102667123,0.001331579522229731
1771082358022066400,11.71706640625,-0.0006657897611148655,-0.001331579522229731,0.001331579522229731
1771082358032007000,11.7270068359375,-0.0006657897611148655,-0.0002663159102667123,0.0023968431632965803
1771082358041947400,11.736947509765624,-0.0006657897611148655,-0.001331579522229731,0.001331579522229731
1771082358051887900,11.746887939453124,-0.0006657897611148655,-0.0002663159102667123,0.001331579522229731
1771082358061828400,11.756828369140624,-0.0006657897611148655,-0.0002663159102667123,0.0023968431632965803
1771082358071768800,11.766768798828124,-0.0006657897611148655,-0.0002663159102667123,0.001331579522229731
1771082358081709300,11.776709228515625,-0.0006657897611148655,-0.0002663159102667123,0.001331579522229731
1771082358091649800,11.78664990234375,-0.0006657897611148655,-0.0002663159102667123,0.0023968431632965803
1771082358101590300,11.79659033203125,-0.0006657897611148655,-0.0002663159102667123,0.0023968431632965803
1771082358111530800,11.80653076171875,-0.0006657897611148655,-0.0002663159102667123,0.001331579522229731
1771082358121471200,11.81647119140625,0.0003994738799519837,0.0007989477599039674,0.0023968431632965803
1771082358131411700,11.82641162109375,-0.0006657897611148655,-0.0002663159102667123,0.0023968431632965803
1771082358141352200,11.836352294921875,-0.0006657897611148655,-0.0002663159102667123,0.001331579522229731
1771082358151292700,11.846292724609375,0.0003994738799519837,-0.0002663159102667123,0.001331579522229731
1771082358161233200,11.856233154296875,0.0003994738799519837,-0.0002663159102667123,0.001331579522229731
1771082358171173400,11.86617333984375,0.0003994738799519837,-0.0002663159102667123,0.001331579522229731
1771082358181113900,11.87611376953125,-0.0006657897611148655,0.0007989477599039674,0.0023968431632965803
1771082358191054300,11.886054443359376,0.0003994738799519837,-0.0002663159102667123,0.0023968431632965803
1771082358200994800,11.895994873046876,-0.0006657897611148655,-0.0002663159102667123,0.001331579522229731
1771082358210935300,11.905935302734376,-0.0006657897611148655,-0.0002663159102667123,0.001331579522229731
1771082358220875800,11.915875732421876,-0.0006657897611148655,-0.0002663159102667123,0.0023968431632965803
1771082358230816300,11.925816162109374,-0.0006657897611148655,0.0007989477599039674,0.001331579522229731
1771082358240756700,11.9357568359375,-0.0006657897611148655,-0.0002663159102667123,0.001331579522229731
1771082358250697200,11.945697265625,0.0003994738799519837,-0.0002663159102667123,0.001331579522229731
1771082358260637700,11.9556376953125,-0.0006657897611148655,-0.0002663159102667123,0.001331579522229731
1771082358270578200,11.965578125,-0.0006657897611148655,-0.0002663159102667123,0.0023968431632965803
1771082358280518700,11.9755185546875,-0.0006657897611148655,-0.001331579522229731,0.001331579522229731
1771082358290459100,11.985459228515625,-0.0006657897611148655,0.0007989477599039674,0.0023968431632965803
1771082358300399600,11.995399658203125,-0.0006657897611148655,-0.001331579522229731,0.0023968431632965803
1771082358310340000,12.005340087890625,-0.0006657897611148655,-0.0002663159102667123,0.0023968431632965803
1771082358320280600,12.015280517578125,-0.0017310534603893757,-0.0002663159102667123,0.0023968431632965803
1771082358340161300,12.035161376953125,-0.0006657897611148655,-0.0002663159102667123,0.001331579522229731
1771082358350101800,12.045101806640625,-0.0006657897611148655,-0.0002663159102667123,0.001331579522229731
1771082358360042200,12.055042236328125,-0.0006657897611148655,-0.0002663159102667123,0.001331579522229731
1771082358369982500,12.064982421875,-0.0006657897611148655,-0.0002663159102667123,0.0023968431632965803
1771082358379923000,12.0749228515625,-0.0006657897611148655,0.0007989477599039674,0.0034621069207787514
1771082358389863400,12.084863525390626,-0.0006657897611148655,-0.0002663159102667123,0.001331579522229731
1771082358399804000,12.094803955078126,-0.0006657897611148655,0.0007989477599039674,0.001331579522229731
1771082358409744100,12.104744140625,-0.0006657897611148655,-0.001331579522229731,0.001331579522229731
1771082358419684600,12.1146845703125,-0.0006657897611148655,-0.0002663159102667123,0.001331579522229731
1771082358429625000,12.124625,-0.0017310534603893757,-0.001331579522229731,0.001331579522229731
1771082358439565600,12.134565673828124,-0.0006657897611148655,-0.0002663159102667123,0.001331579522229731
1771082358449505800,12.144505859375,-0.0006657897611148655,-0.0002663159102667123,0.001331579522229731
1771082358459446300,12.1544462890625,-0.0006657897611148655,-0.0002663159102667123,0.0034621069207787514
1771082358469386800,12.16438671875,-0.0006657897611148655,-0.0002663159102667123,0.001331579522229731
1771082358479327200,12.1743271484375,-0.0006657897611148655,-0.001331579522229731,0.001331579522229731
1771082358499208000,12.1942080078125,-0.0006657897611148655,-0.0002663159102667123,0.001331579522229731
1771082358509148400,12.2041484375,-0.0006657897611148655,-0.0002663159102667123,0.0023968431632965803
1771082358519089000,12.2140888671875,0.0003994738799519837,-0.0002663159102667123,0.001331579522229731
1771082358529029000,12.224029052734375,-0.0006657897611148655,-0.0002663159102667123,0.0023968431632965803
1771082358538969600,12.233969482421875,-0.0006657897611148655,-0.0002663159102667123,0.001331579522229731
1771082358548910000,12.24391015625,-0.0006657897611148655,-0.0002663159102667123,0.0023968431632965803
1771082358558850600,12.2538505859375,-0.0006657897611148655,-0.001331579522229731,0.001331579522229731
1771082358568790800,12.263790771484375,-0.0006657897611148655,-0.0002663159102667123,0.0023968431632965803
1771082358578731300,12.273731201171875,-0.0006657897611148655,-0.0002663159102667123,0.001331579522229731
1771082358588671700,12.283671630859375,-0.0006657897611148655,-0.0002663159102667123,0.0023968431632965803
1771082358598612200,12.2936123046875,-0.0006657897611148655,-0.0002663159102667123,0.0023968431632965803
1771082358608552400,12.303552490234376,-0.0006657897611148655,-0.0002663159102667123,0.0023968431632965803
1771082358628433400,12.323433349609376,-0.0006657897611148655,-0.0002663159102667123,0.0023968431632965803
1771082358638374000,12.333373779296876,-0.0006657897611148655,-0.001331579522229731,0.0023968431632965803
1771082358648314000,12.343314208984374,-0.0006657897611148655,-0.0002663159102667123,0.001331579522229731
1771082358658254600,12.353254638671874,-0.0006657897611148655,-0.0002663159102667123,0.0023968431632965803
1771082358678135600,12.373135498046874,-0.0006657897611148655,-0.0002663159102667123,0.001331579522229731
1771082358698016300,12.393016357421875,-0.0006657897611148655,-0.0002663159102667123,0.0023968431632965803
1771082358717897200,12.412897216796875,-0.0006657897611148655,-0.0002663159102667123,0.0002663159102667123
1771082358727837400,12.42283740234375,-0.0006657897611148655,-0.0002663159102667123,0.001331579522229731
1771082358737778000,12.43277783203125,-0.0006657897611148655,-0.0002663159102667123,0.001331579522229731
1771082358757659000,12.452658935546875,0.0003994738799519837,-0.0002663159102667123,0.001331579522229731
1771082358777539600,12.47253955078125,-0.0006657897611148655,-0.0002663159102667123,0.001331579522229731
1771082358787480000,12.48247998046875,-0.0006657897611148655,-0.0002663159102667123,0.0023968431632965803
1771082358797420500,12.492420654296875,-0.0006657897611148655,-0.0002663159102667123,0.0023968431632965803
1771082358807361000,12.502361083984376,-0.0006657897611148655,-0.0002663159102667123,0.001331579522229731
1771082358817301200,12.51230126953125,-0.0006657897611148655,-0.0002663159102667123,0.001331579522229731
1771082358827241700,12.52224169921875,-0.0006657897611148655,0.0007989477599039674,0.001331579522229731
1771082358837182200,12.53218212890625,-0.0006657897611148655,-0.0002663159102667123,0.001331579522229731
1771082358847122700,12.542122802734376,-0.0006657897611148655,-0.001331579522229731,0.001331579522229731
1771082358857063000,12.55206298828125,0.0003994738799519837,-0.0002663159102667123,0.001331579522229731
1771082358867003400,12.56200341796875,-0.0006657897611148655,-0.0002663159102667123,0.001331579522229731
1771082358876944000,12.57194384765625,0.0003994738799519837,-0.0002663159102667123,0.001331579522229731
1771082358886884400,12.58188427734375,-0.0006657897611148655,0.0007989477599039674,0.0002663159102667123
1771082358906765000,12.60176513671875,-0.0006657897611148655,-0.0002663159102667123,0.001331579522229731
1771082358916705500,12.61170556640625,-0.0006657897611148655,-0.0002663159102667123,0.001331579522229731
1771082358926646000,12.62164599609375,0.0003994738799519837,-0.0002663159102667123,0.001331579522229731
1771082358936586200,12.631586181640625,-0.0006657897611148655,-0.0002663159102667123,0.001331579522229731
1771082358956467200,12.65146728515625,-0.0006657897611148655,-0.0002663159102667123,0.001331579522229731
1771082358976348000,12.671347900390625,-0.0006657897611148655,0.0007989477599039674,0.0023968431632965803
1771082358986288400,12.681288330078125,-0.0006657897611148655,0.0007989477599039674,0.0023968431632965803
1771082358996228900,12.691228759765625,-0.0006657897611148655,-0.0002663159102667123,0.0023968431632965803
1771082359016109600,12.711109619140625,-0.0006657897611148655,-0.0002663159102667123,0.0023968431632965803
1771082359026050000,12.721050048828126,0.0003994738799519837,-0.0002663159102667123,0.0023968431632965803
1771082359045931000,12.740930908203126,-0.0006657897611148655,-0.0002663159102667123,0.0023968431632965803
1771082359055871200,12.750871337890626,-0.0006657897611148655,-0.0002663159102667123,0.001331579522229731
1771082359065811700,12.760811767578126,-0.0006657897611148655,0.0007989477599039674,0.0023968431632965803
1771082359085692700,12.780692626953124,0.0003994738799519837,-0.0002663159102667123,0.0023968431632965803
1771082359105573400,12.800573486328124,-0.0006657897611148655,-0.0002663159102667123,0.0023968431632965803
1771082359115513900,12.810513916015625,-0.0006657897611148655,0.0007989477599039674,0.0023968431632965803
1771082359125454300,12.820454345703125,-0.0006657897611148655,-0.001331579522229731,0.0023968431632965803
1771082359145335000,12.8403349609375,-0.0006657897611148655,-0.0002663159102667123,0.0023968431632965803
1771082359155275500,12.850275634765625,-0.0006657897611148655,-0.001331579522229731,0.0023968431632965803
1771082359165216000,12.860216064453125,-0.0006657897611148655,-0.0002663159102667123,0.001331579522229731
1771082359175156200,12.87015625,-0.0006657897611148655,-0.0002663159102667123,0.001331579522229731
1771082359195037200,12.890037109375,-0.0006657897611148655,-0.0002663159102667123,0.0023968431632965803
1771082359214918000,12.90991796875,-0.0006657897611148655,-0.0002663159102667123,0.001331579522229731
1771082359224858400,12.9198583984375,-0.0006657897611148655,-0.0002663159102667123,0.001331579522229731
1771082359234798800,12.929798828125,-0.0006657897611148655,-0.0002663159102667123,0.0023968431632965803
1771082359254679600,12.949679443359376,-0.0006657897611148655,-0.0002663159102667123,0.0023968431632965803
1771082359264620000,12.9596201171875,-0.0006657897611148655,-0.0002663159102667123,0.001331579522229731
1771082359274560500,12.969560546875,0.0003994738799519837,-0.0002663159102667123,0.001331579522229731
1771082359294441500,12.98944140625,-0.0006657897611148655,-0.0002663159102667123,0.0023968431632965803
1771082359304382000,12.9993818359375,-0.0006657897611148655,-0.0002663159102667123,0.0023968431632965803
1771082359314322400,13.009322509765624,-0.0006657897611148655,-0.0002663159102667123,0.001331579522229731
1771082359324263000,13.019262939453125,-0.0006657897611148655,-0.001331579522229731,0.001331579522229731
1771082359334203400,13.029203369140625,-0.0006657897611148655,-0.0002663159102667123,0.001331579522229731
1771082359344144000,13.039143798828125,-0.0006657897611148655,-0.0002663159102667123,0.001331579522229731
1771082359354084400,13.04908447265625,-0.0006657897611148655,-0.0002663159102667123,0.0023968431632965803
1771082359364024600,13.059024658203125,0.0003994738799519837,-0.0002663159102667123,0.001331579522229731
1771082359373965000,13.068965087890625,0.0003994738799519837,-0.0002663159102667123,0.001331579522229731
1771082359383905500,13.078905517578125,0.0003994738799519837,-0.001331579522229731,0.001331579522229731
1771082359393846000,13.088845947265625,-0.0017310534603893757,-0.001331579522229731,0.001331579522229731
1771082359403786500,13.098786376953125,-0.0006657897611148655,-0.0002663159102667123,0.0023968431632965803
1771082359413727000,13.10872705078125,-0.0006657897611148655,-0.0002663159102667123,0.0023968431632965803
1771082359423667500,13.11866748046875,-0.0017310534603893757,0.0007989477599039674,0.0023968431632965803
1771082359433608000,13.12860791015625,-0.0006657897611148655,-0.0002663159102667123,0.0023968431632965803
1771082359443548400,13.13854833984375,-0.0017310534603893757,-0.0002663159102667123,0.0023968431632965803
1771082359453489000,13.148489013671876,-0.0017310534603893757,-0.0002663159102667123,0.0023968431632965803
1771082359463429400,13.158429443359376,-0.0006657897611148655,-0.0002663159102667123,0.0023968431632965803
1771082359473369900,13.168369873046874,-0.0006657897611148655,0.0007989477599039674,0.0023968431632965803
1771082359483310300,13.178310302734374,-0.0006657897611148655,-0.0002663159102667123,0.001331579522229731
1771082359493250800,13.188250732421874,-0.0006657897611148655,-0.001331579522229731,0.001331579522229731
1771082359503191300,13.19819140625,-0.0006657897611148655,-0.0002663159102667123,0.0023968431632965803
1771082359513131800,13.2081318359375,-0.0006657897611148655,-0.0002663159102667123,0.001331579522229731
1771082359523072300,13.218072265625,-0.0006657897611148655,-0.0002663159102667123,0.0034621069207787514
1771082359533012700,13.2280126953125,-0.0006657897611148655,-0.0002663159102667123,0.0023968431632965803
1771082359552893700,13.247893798828125,-0.0006657897611148655,-0.0002663159102667123,0.001331579522229731
1771082359562834200,13.257834228515625,-0.0006657897611148655,-0.0002663159102667123,0.0023968431632965803
1771082359572774700,13.267774658203125,-0.0006657897611148655,-0.0002663159102667123,0.001331579522229731
1771082359582715100,13.277715087890625,-0.0006657897611148655,-0.0002663159102667123,0.0023968431632965803
1771082359592655400,13.2876552734375,-0.0006657897611148655,-0.0002663159102667123,0.001331579522229731
1771082359602595800,13.297595947265625,-0.0006657897611148655,0.0007989477599039674,0.0023968431632965803
1771082359612536300,13.307536376953125,-0.0006657897611148655,-0.0002663159102667123,0.0023968431632965803
1771082359622476800,13.317476806640625,-0.0006657897611148655,-0.0002663159102667123,0.001331579522229731
1771082359632417000,13.3274169921875,-0.0006657897611148655,-0.001331579522229731,0.001331579522229731
1771082359642357500,13.337357421875,-0.0006657897611148655,0.0007989477599039674,0.001331579522229731
1771082359652298000,13.347298095703126,-0.0006657897611148655,-0.0002663159102667123,0.001331579522229731
1771082359662238500,13.357238525390626,-0.0006657897611148655,-0.0002663159102667123,0.001331579522229731
1771082359672178700,13.3671787109375,-0.0006657897611148655,-0.0002663159102667123,0.0023968431632965803
1771082359682119200,13.377119140625,-0.0006657897611148655,0.0007989477599039674,0.0023968431632965803
1771082359692059600,13.3870595703125,-0.0006657897611148655,-0.001331579522229731,0.001331579522229731
1771082359702000000,13.397000244140624,-0.0006657897611148655,-0.0002663159102667123,0.001331579522229731
1771082359711940400,13.4069404296875,-0.0006657897611148655,-0.0002663159102667123,0.001331579522229731
1771082359721880800,13.416880859375,-0.0006657897611148655,-0.0002663159102667123,0.001331579522229731
1771082359731821300,13.4268212890625,-0.0006657897611148655,-0.0002663159102667123,0.0002663159102667123
1771082359741761800,13.43676171875,-0.0006657897611148655,-0.0002663159102667123,0.001331579522229731
