time,seconds_elapsed,z,y,x
1771073341647234600,0.103234619140625,0,0,0
1771073341657160700,0.11316064453125,-0.038292884826660156,-0.013283491134643555,-0.03381931036710739
1771073341667088000,0.123087890625,-0.09485721588134766,-0.014783859252929688,-0.055872492492198944
1771073341686947600,0.142947509765625,0.05975532531738281,-0.005795717239379883,-0.10872931778430939
1771073341696880400,0.15288037109375,0.2203350067138672,-0.007304191589355469,-0.06263269484043121
1771073341706815700,0.162815673828125,0.27620506286621094,0.011389732360839844,0.02998928725719452
1771073341716753400,0.17275341796875,0.30403614044189453,0.035208702087402344,0.09457351267337799
1771073341726694000,0.18269384765625,0.33414363861083984,0.04477691650390625,0.1268828809261322
1771073341736636400,0.192636474609375,0.21300983428955078,0.039374589920043945,0.14906179904937744
1771073341746581200,0.202581298828125,-0.027538299560546875,0.027847766876220703,0.1743803769350052
1771073341756527900,0.21252783203125,-0.12790679931640625,0.06034994125366211,0.15769913792610168
1771073341766476300,0.222476318359375,-0.016336441040039062,0.1208963394165039,0.12864603102207184
1771073341776425500,0.232425537109375,0.07599258422851562,0.15586471557617188,0.12537480890750885
1771073341786375700,0.242375732421875,0.09113216400146484,0.1533808708190918,0.14846491813659668
1771073341796326100,0.252326171875,0.12839508056640625,0.13990259170532227,0.139968603849411
1771073341806273300,0.262273193359375,0.1577138900756836,0.13525676727294922,0.17157268524169922
1771073341816213200,0.272213134765625,-0.05574798583984375,0.13297104835510254,0.20846092700958252
1771073341826153200,0.2821533203125,-0.1995391845703125,0.17113304138183594,0.18730516731739044
1771073341836093200,0.29209326171875,-0.2599372863769531,0.21448087692260742,0.1491769552230835
1771073341846033200,0.302033203125,-0.23201274871826172,0.24915623664855957,0.13917092978954315
1771073341855972900,0.311972900390625,-0.1261434555053711,0.2883749008178711,0.1599133163690567
1771073341865912800,0.321912841796875,-0.0019865036010742188,0.31209850311279297,0.19394543766975403
1771073341875852800,0.331852783203125,0.07854461669921875,0.32460856437683105,0.2019978016614914
1771073341885792500,0.34179248046875,0.04425048828125,0.3253343105316162,0.1697046160697937
1771073341895732500,0.351732421875,-0.1168222427368164,0.32193875312805176,0.13182836771011353
1771073341905672400,0.36167236328125,-0.2879037857055664,0.3733398914337158,0.12823960185050964
1771073341915612400,0.3716123046875,-0.4073629379272461,0.48635411262512207,0.13055863976478577
1771073341925552000,0.38155224609375,-0.3111715316772461,0.6209101676940918,0.17109206318855286
1771073341935492000,0.3914921875,-0.17976856231689453,0.7048327922821045,0.2536506652832031
1771073341945432000,0.40143212890625,-0.15064525604248047,0.6888701915740967,0.3405780792236328
1771073341955372000,0.4113720703125,-0.06741142272949219,0.6361265182495117,0.3660753667354584
1771073341965311700,0.421311767578125,0.13369369506835938,0.5792646408081055,0.32645609974861145
1771073341975251700,0.431251708984375,0.46880245208740234,0.48840808868408203,0.2216787338256836
1771073341985191700,0.441191650390625,0.7772979736328125,0.4247779846191406,0.1643981635570526
1771073341995131400,0.45113134765625,0.7651510238647461,0.37254953384399414,0.14577937126159668
1771073342005071400,0.4610712890625,0.5406818389892578,0.3327646255493164,0.11789187788963318
1771073342015011300,0.47101123046875,0.4139566421508789,0.3345797061920166,0.08619210124015808
1771073342024951300,0.480951416015625,0.29773807525634766,0.38092899322509766,0.040484338998794556
1771073342034891000,0.49089111328125,0.26346874237060547,0.4138801097869873,-0.024398505687713623
1771073342044831000,0.5008310546875,0.34868621826171875,0.394533634185791,-0.0537114143371582
1771073342054771000,0.51077099609375,0.45276546478271484,0.37905383110046387,-0.07782703638076782
1771073342064710700,0.520710693359375,0.6413259506225586,0.36551976203918457,-0.05672702193260193
1771073342074650600,0.530650634765625,0.7610330581665039,0.3384361267089844,0.019404172897338867
1771073342084590600,0.540590576171875,0.8206043243408203,0.2840752601623535,0.10430717468261719
1771073342094530600,0.550530517578125,1.0394220352172852,0.242537260055542,0.08160963654518127
1771073342104470300,0.56047021484375,1.0750131607055664,0.11194539070129395,-0.05449351668357849
1771073342114410200,0.57041015625,0.7437324523925781,-0.10109353065490723,-0.2197456955909729
1771073342124350200,0.58035009765625,0.07788753509521484,-0.278043270111084,-0.2866762578487396
1771073342134290000,0.5902900390625,-0.5564861297607422,-0.33325743675231934,-0.2179555892944336
1771073342144230000,0.60022998046875,-1.107954978942871,-0.3469717502593994,-0.14083540439605713
1771073342154169900,0.610169921875,-1.5070762634277344,-0.3446967601776123,-0.0770488977432251
1771073342164109800,0.62010986328125,-1.5022015571594238,-0.22032642364501953,-0.010376811027526855
1771073342174049500,0.630049560546875,-0.953526496887207,-0.12183618545532227,-0.00445103645324707
1771073342183989500,0.639989501953125,-0.00644683837890625,-0.12165474891662598,0.029364347457885742
1771073342193929500,0.649929443359375,1.0425739288330078,-0.19078993797302246,-0.0063340067863464355
1771073342203869400,0.659869384765625,2.199347496032715,-0.3621222972869873,-0.17267340421676636
1771073342213809400,0.669809326171875,2.947561264038086,-0.6931207180023193,-0.24218213558197021
1771073342223749400,0.679749267578125,3.27719783782959,-1.1431009769439697,-0.2880849242210388
1771073342233689300,0.689689453125,3.55850887298584,-1.5332865715026855,-0.3809192180633545
1771073342243629300,0.69962939453125,3.8587265014648438,-1.7475687265396118,-0.6137098073959351
1771073342253569300,0.7095693359375,4.166646957397461,-1.902371883392334,-0.9493909478187561
1771073342263509200,0.71950927734375,4.134398460388184,-2.0094656944274902,-1.2832794189453125
1771073342273449200,0.72944921875,3.682781219482422,-2.1374566555023193,-1.5615586042404175
1771073342283389000,0.739388916015625,3.2444839477539062,-2.416719913482666,-1.9070842266082764
1771073342293329000,0.749328857421875,3.2654247283935547,-2.949411392211914,-2.4547040462493896
1771073342303268900,0.759268798828125,2.8970232009887695,-3.6434617042541504,-3.1669762134552
1771073342313208800,0.769208740234375,2.6060190200805664,-4.053388595581055,-3.6332361698150635
1771073342323148800,0.779148681640625,3.1451034545898438,-1.5059950351715088,-1.5397920608520508
1771073342333088800,0.7890888671875,2.0588741302490234,-0.6940118074417114,-0.9529345035552979
1771073342343028700,0.79902880859375,1.9407215118408203,1.5557992458343506,0.41478943824768066
1771073342352968700,0.80896875,2.2773399353027344,2.5531673431396484,0.6114187240600586
1771073342362908700,0.81890869140625,1.6844892501831055,2.3060741424560547,0.14927935600280762
1771073342372848600,0.8288486328125,0.5116176605224609,1.9191787242889404,0.2594566345214844
1771073342382788600,0.83878857421875,-0.2896547317504883,0.8584692478179932,-0.2786288261413574
1771073342392728600,0.848728515625,-0.6766910552978516,-0.18299198150634766,-0.9422142505645752
1771073342402668500,0.85866845703125,-0.21135616302490234,0.02807605266571045,-0.5643172264099121
1771073342412608300,0.868608154296875,0.5131864547729492,0.1412142515182495,-0.45065999031066895
1771073342422548200,0.87854833984375,0.8456602096557617,0.193223237991333,-0.525393009185791
1771073342432488200,0.88848828125,0.7003078460693359,0.17455077171325684,-0.7826781272888184
1771073342442428200,0.89842822265625,0.21829605102539062,-0.029861927032470703,-0.7861254215240479
1771073342452368100,0.9083681640625,-0.42049217224121094,-0.44212985038757324,-0.5919837951660156
1771073342462308000,0.91830810546875,-1.1293659210205078,-0.8668222427368164,-0.415956974029541
1771073342472248000,0.928248046875,-1.582219123840332,-1.288886308670044,-0.4826653003692627
1771073342482188000,0.93818798828125,-1.7392911911010742,-1.6787629127502441,-0.5233635902404785
1771073342492128000,0.9481279296875,-1.9629731178283691,-2.0257034301757812,-0.4235067367553711
1771073342502068000,0.95806787109375,-2.6865644454956055,-2.2662925720214844,-0.10640501976013184
1771073342512008000,0.968008056640625,-7.058868408203125,-0.5562303066253662,2.569453001022339
1771073342521948000,0.977947998046875,-5.366016864776611,-2.86515474319458,1.9496073722839355
1771073342531887600,0.9878876953125,-4.56958532333374,-3.0061144828796387,2.5543410778045654
1771073342541827600,0.99782763671875,-3.6564626693725586,-3.1741886138916016,3.565401077270508
1771073342551767600,1.007767578125,-2.581259250640869,-3.0287692546844482,3.5012049674987793
1771073342561707500,1.01770751953125,-1.3270821571350098,-2.2538068294525146,2.5503463745117188
1771073342571647500,1.0276474609375,-0.7897520065307617,-1.6116503477096558,1.4740962982177734
1771073342581587500,1.03758740234375,-1.2378554344177246,-1.1148219108581543,0.5204275250434875
1771073342591527400,1.04752734375,-2.0607681274414062,-1.1138606071472168,-0.5500675439834595
1771073342601467400,1.05746728515625,-2.9552555084228516,-1.5455894470214844,-1.1639388799667358
1771073342611407400,1.067407470703125,-3.4409871101379395,-2.384084463119507,-1.183895468711853
1771073342621347300,1.077347412109375,-3.76509952545166,-3.2680745124816895,-0.7373460531234741
1771073342631287300,1.087287353515625,-4.207017421722412,-3.5220072269439697,-0.11912310123443604
1771073342641227300,1.097227294921875,-5.311244487762451,-3.2352147102355957,0.561797022819519
1771073342651167200,1.107167236328125,-6.44890022277832,-2.649897575378418,1.3292664289474487
1771073342661107000,1.11710693359375,-4.379526615142822,-1.9982819557189941,1.8934197425842285
1771073342671047000,1.127046875,1.9624748229980469,-1.833397626876831,2.213200569152832
1771073342680987000,1.13698681640625,-5.8080244064331055,-3.0005016326904297,0.610024094581604
1771073342690926800,1.1469267578125,-2.4412760734558105,-3.2394590377807617,0.2825468182563782
1771073342700866800,1.15686669921875,-1.6454310417175293,-2.6532998085021973,-0.20763731002807617
1771073342710806800,1.166806884765625,-3.148468017578125,-2.209534168243408,-0.6023736000061035
1771073342720746800,1.176746826171875,-3.1041016578674316,-1.167585849761963,-0.10427391529083252
1771073342730686700,1.186686767578125,-2.1827282905578613,0.527064323425293,0.6157357692718506
1771073342740626700,1.196626708984375,-0.2786140441894531,1.9370532035827637,1.1810487508773804
1771073342750566700,1.206566650390625,2.0046091079711914,2.5682873725891113,1.528700351715088
1771073342760506600,1.216506591796875,4.572922706604004,2.476985454559326,1.8681195974349976
1771073342770446600,1.226446533203125,6.951663970947266,1.9498450756072998,2.1389732360839844
1771073342780386600,1.236386474609375,8.584274291992188,1.2765100002288818,2.155515193939209
1771073342790326300,1.246326171875,9.065195083618164,0.7719724178314209,1.9482206106185913
1771073342800266200,1.256266357421875,8.464547157287598,0.5877001285552979,1.5161064863204956
1771073342810206200,1.266206298828125,7.652997970581055,0.6596333980560303,0.9013499617576599
1771073342820146200,1.276146240234375,6.9017438888549805,0.8753335475921631,0.4495157301425934
1771073342830086100,1.286086181640625,5.872002601623535,1.1866121292114258,0.3858265280723572
1771073342840026000,1.296026123046875,4.98484992980957,1.5617008209228516,0.4731784462928772
1771073342849966000,1.305966064453125,4.352383613586426,1.840980052947998,0.53867107629776
1771073342859906000,1.315906005859375,3.717733383178711,1.8749144077301025,0.5295978784561157
1771073342869846000,1.325845947265625,2.9814376831054688,1.714695930480957,0.41158998012542725
1771073342879786000,1.335785888671875,2.1543102264404297,1.5383055210113525,0.44869282841682434
1771073342889726000,1.345725830078125,1.586512565612793,1.4908766746520996,0.7103351354598999
1771073342899665700,1.355665771484375,1.5798587799072266,1.766268253326416,1.0258173942565918
1771073342909605600,1.365605712890625,1.6254119873046875,2.225346326828003,1.3022699356079102
1771073342919545600,1.375545654296875,1.6735811233520508,2.4531655311584473,1.4869215488433838
1771073342929485600,1.385485595703125,1.5036191940307617,2.2762346267700195,1.4281773567199707
1771073342939425300,1.39542529296875,0.9745016098022461,1.7516664266586304,1.0921339988708496
1771073342949365200,1.405365234375,0.07187747955322266,0.8287969827651978,0.3991377055644989
1771073342959305200,1.41530517578125,-1.4301319122314453,-0.39606642723083496,-0.751584529876709
1771073342969245000,1.425244873046875,-1.9568758010864258,0.7101790904998779,-0.6239839196205139
1771073342979185000,1.435184814453125,-3.499387264251709,0.5715140104293823,-0.9442450404167175
1771073342989124900,1.445124755859375,-4.844773769378662,0.43086516857147217,-1.4378548860549927
1771073342999064800,1.45506494140625,-5.466733455657959,0.7609535455703735,-1.751306176185608
1771073343009004500,1.465004638671875,-5.4571123123168945,1.1330400705337524,-1.6606464385986328
1771073343018944500,1.474944580078125,-5.307633399963379,1.1456295251846313,-1.3904210329055786
1771073343028884500,1.484884521484375,-5.099632263183594,1.0438660383224487,-0.9756659269332886
1771073343038824200,1.49482421875,-4.923397064208984,0.8269245624542236,-0.6114622354507446
1771073343048764200,1.50476416015625,-4.837618827819824,0.5739060640335083,-0.21245306730270386
1771073343058704100,1.5147041015625,-4.82230281829834,0.26216113567352295,0.16517527401447296
1771073343068644000,1.52464404296875,-4.479616165161133,0.18170535564422607,0.5263658761978149
1771073343078583800,1.534583740234375,-4.144545555114746,0.25922954082489014,0.7225130200386047
1771073343088523800,1.544523681640625,-3.7292914390563965,0.28828394412994385,0.5930328965187073
1771073343098463700,1.554463623046875,-3.586641788482666,0.03592348098754883,0.2262386679649353
1771073343108403500,1.564403564453125,-3.2154970169067383,-0.41626471281051636,-0.3761732876300812
1771073343118343400,1.574343505859375,-2.4553866386413574,-1.0392611026763916,-1.185293197631836
1771073343128283400,1.584283447265625,-1.6910552978515625,-1.542168140411377,-2.229236602783203
1771073343138223400,1.594223388671875,-1.6140637397766113,-1.9345285892486572,-3.479403018951416
1771073343148163000,1.6041630859375,-1.6469998359680176,-2.012460708618164,-4.725774765014648
1771073343158103000,1.61410302734375,-1.9356975555419922,-1.6494855880737305,-5.985903739929199
1771073343168043000,1.62404296875,-1.7146296501159668,-0.8301065564155579,-7.25661039352417
1771073343177982700,1.633982666015625,-1.1293954849243164,0.43259692192077637,-8.032318115234375
1771073343187922700,1.643922607421875,-0.7676296234130859,1.5232312679290771,-7.513243675231934
1771073343197862700,1.653862548828125,0.6109495162963867,1.0181046724319458,-6.279344081878662
1771073343207802600,1.663802734375,3.6740264892578125,-0.11730790138244629,-3.9933676719665527
1771073343217742300,1.673742431640625,7.197020530700684,-0.5034623146057129,-1.1557157039642334
1771073343227682300,1.683682373046875,9.225266456604004,-0.17337751388549805,0.7337778210639954
1771073343237622300,1.693622314453125,9.487934112548828,0.5620311498641968,1.94758939743042
1771073343247562200,1.703562255859375,9.840681076049805,1.0164752006530762,2.4857161045074463
1771073343257502000,1.713501953125,10.064069747924805,0.6430995464324951,1.865523099899292
1771073343267442000,1.72344189453125,9.363883972167969,-0.29653239250183105,0.5484761595726013
1771073343277382000,1.7333818359375,7.586745262145996,-1.4368096590042114,-0.9396576285362244
1771073343287321900,1.74332177734375,5.379183769226074,-2.57140851020813,-2.406226396560669
1771073343297261800,1.75326171875,3.441680908203125,-3.1794662475585938,-3.450727701187134
1771073343307201800,1.763201904296875,2.512814521789551,-2.9747066497802734,-3.7462644577026367
1771073343317141800,1.773141845703125,1.9810810089111328,-2.1529979705810547,-3.3418965339660645
1771073343327081500,1.78308154296875,0.7004756927490234,-1.4108822345733643,-2.0246572494506836
1771073343337021400,1.793021484375,-0.42762279510498047,-1.0269854068756104,-0.5594119429588318
1771073343346961400,1.80296142578125,-1.0712270736694336,-0.7675201892852783,0.599892258644104
1771073343356901400,1.8129013671875,-1.4279117584228516,-0.6186165809631348,1.1252472400665283
1771073343366841300,1.82284130859375,-1.8842649459838867,-0.428570032119751,1.566892147064209
1771073343376781300,1.83278125,-2.3940954208374023,-0.3958169221878052,1.95894193649292
1771073343386721300,1.84272119140625,-2.931365489959717,-0.31021881103515625,2.2693228721618652
1771073343396661200,1.8526611328125,-3.236800193786621,-0.7124369144439697,2.0139622688293457
1771073343406601200,1.862601318359375,-3.914057731628418,-1.5196973085403442,1.2211626768112183
1771073343416541200,1.872541259765625,-4.756866455078125,-2.065185546875,1.1513116359710693
1771073343426481200,1.882481201171875,-5.356215476989746,-2.073131561279297,1.5995206832885742
1771073343436421000,1.892421142578125,-5.103469371795654,-1.6460649967193604,2.0472874641418457
1771073343446361000,1.902361083984375,-3.5412492752075195,-1.385749340057373,2.367243766784668
1771073343456300800,1.91230078125,-1.6457796096801758,-1.5654938220977783,2.4601869583129883
1771073343466240800,1.92224072265625,-0.17862701416015625,-2.0783538818359375,2.2697536945343018
1771073343476180700,1.9321806640625,1.0622062683105469,-2.6269278526306152,1.9673305749893188
1771073343486120700,1.94212060546875,1.7704477310180664,-3.1985011100769043,1.5592257976531982
1771073343496060700,1.952060791015625,1.142873764038086,-3.393332004547119,1.1748557090759277
1771073343506000600,1.962000732421875,-0.3759727478027344,-3.1423468589782715,0.8459149599075317
1771073343515940600,1.971940673828125,-1.9783663749694824,-2.534104824066162,1.3126883506774902
1771073343525880600,1.981880615234375,-3.339651107788086,-2.0718395709991455,1.678235650062561
1771073343535820500,1.991820556640625,-4.051663398742676,-1.6592329740524292,2.0575249195098877
1771073343545760500,2.001760498046875,-3.042966842651367,-1.2273167371749878,1.9796465635299683
1771073343555700500,2.011700439453125,-0.6685304641723633,-0.6892391443252563,0.6384874582290649
1771073343565640400,2.021640380859375,1.6061687469482422,-0.3465723991394043,0.24683129787445068
1771073343575580400,2.031580322265625,2.3368606567382812,-0.061525821685791016,1.3335838317871094
1771073343585520000,2.04152001953125,1.3075265884399414,0.5725610256195068,1.952040195465088
1771073343595460000,2.051460205078125,-0.5085687637329102,1.4691476821899414,2.0825164318084717
1771073343605400000,2.061400146484375,-0.4535846710205078,1.9850795269012451,2.000661849975586
1771073343615340000,2.071340087890625,1.9410390853881836,1.8282015323638916,2.3613648414611816
1771073343625280000,2.081280029296875,3.8292360305786133,0.9464871883392334,2.4877800941467285
1771073343635220000,2.091219970703125,4.151777267456055,-0.16671395301818848,2.0478947162628174
1771073343645160000,2.101159912109375,3.57668399810791,-0.8760329484939575,1.3617488145828247
1771073343655100000,2.111099853515625,3.9176692962646484,-1.2842475175857544,0.5449199676513672
1771073343665040000,2.121039794921875,5.051392555236816,-1.6170705556869507,-0.14557531476020813
1771073343674979800,2.130979736328125,5.679543495178223,-1.9672882556915283,-0.8219950199127197
1771073343684919800,2.140919921875,5.5451250076293945,-2.1966142654418945,-1.4973496198654175
1771073343694859800,2.15085986328125,4.588171005249023,-2.1609842777252197,-1.9785130023956299
1771073343704799700,2.1607998046875,3.2977542877197266,-1.722902774810791,-2.069486141204834
1771073343714739500,2.170739501953125,1.8545560836791992,-1.182035207748413,-1.895052433013916
1771073343724679400,2.180679443359375,0.5571508407592773,-0.6875114440917969,-1.5259662866592407
1771073343734619400,2.190619384765625,-0.5494537353515625,-0.23935604095458984,-1.0903106927871704
1771073343744559400,2.200559326171875,-1.3025436401367188,0.14134716987609863,-0.7182362675666809
1771073343754499300,2.210499267578125,-1.784576416015625,0.4898660182952881,-0.26927128434181213
1771073343764439300,2.220439208984375,-2.074896812438965,0.8480150699615479,0.16213279962539673
1771073343774379300,2.230379150390625,-2.1851582527160645,1.067323923110962,0.36845239996910095
1771073343784319200,2.2403193359375,-2.164635181427002,1.170240879058838,0.4593757390975952
1771073343794259200,2.25025927734375,-2.0405664443969727,1.187708854675293,0.32611513137817383
1771073343804199200,2.26019921875,-2.419132709503174,1.0108296871185303,-0.10905921459197998
1771073343814139100,2.27013916015625,-3.6164937019348145,0.7457714080810547,-0.31206047534942627
1771073343824079000,2.2800791015625,-4.94038200378418,0.3970203399658203,-0.30126774311065674
1771073343834018800,2.290018798828125,-6.259502410888672,-0.13199472427368164,-0.5612366795539856
1771073343843958800,2.299958740234375,-7.488381862640381,-0.6519228219985962,-0.6608927249908447
1771073343853898800,2.309898681640625,-8.481060028076172,-0.8935675621032715,-0.015418767929077148
1771073343863838700,2.319838623046875,-9.35904312133789,-0.7073701620101929,1.3072022199630737
1771073343873778700,2.32977880859375,-10.317005157470703,-0.6706715822219849,1.4036444425582886
1771073343883718700,2.33971875,-10.195446968078613,-0.7127766609191895,0.5106171369552612
1771073343903598600,2.3595986328125,-4.414957523345947,-1.3894987106323242,0.04194283485412598
1771073343913538600,2.36953857421875,0.16988754272460938,-1.9703402519226074,-1.6003223657608032
1771073343923478500,2.379478515625,5.166116714477539,-2.4713830947875977,-2.6808929443359375
1771073343933418500,2.38941845703125,9.220710754394531,-3.093449592590332,-2.898699998855591
1771073343943358500,2.3993583984375,10.359835624694824,-3.672605514526367,-2.7183713912963867
1771073343953298400,2.40929833984375,7.554422378540039,-3.592137575149536,-2.4277634620666504
1771073343963238100,2.419238037109375,3.1821374893188477,-2.470461845397949,-2.115658760070801
1771073343973178000,2.42917822265625,-0.234619140625,-0.45895421504974365,-1.5052003860473633
1771073343983118000,2.4391181640625,-1.5340023040771484,1.3195815086364746,-1.0790740251541138
1771073343993057800,2.449057861328125,-1.2689247131347656,2.674147844314575,-1.507895827293396
1771073344002997800,2.458997802734375,-1.2924766540527344,3.2886481285095215,-1.89511239528656
1771073344012937700,2.468937744140625,-2.5608034133911133,2.990100383758545,-2.175260543823242
1771073344022877700,2.478877685546875,-1.9698781967163086,2.2511799335479736,-1.9933043718338013
1771073344032817400,2.4888173828125,1.461359977722168,1.5902290344238281,-0.5202653408050537
1771073344042757400,2.49875732421875,5.361546516418457,1.232525110244751,1.3368170261383057
1771073344052697300,2.508697265625,8.276894569396973,1.2744429111480713,2.9936623573303223
1771073344062637000,2.518636962890625,9.301549911499023,1.2508020401000977,3.6042163372039795
1771073344072577000,2.528576904296875,7.923967361450195,0.6245028972625732,2.7172458171844482
1771073344082517000,2.53851708984375,5.472028732299805,-0.5541789531707764,0.8583459854125977
1771073344092457000,2.54845703125,3.310953140258789,-1.6122167110443115,-0.893536388874054
1771073344102396700,2.558396728515625,1.8329639434814453,-2.0170297622680664,-1.884891152381897
1771073344112336600,2.568336669921875,0.8699254989624023,-1.8874518871307373,-2.2959706783294678
1771073344122276600,2.578276611328125,0.3380441665649414,-1.5220580101013184,-2.3653507232666016
1771073344132216300,2.58821630859375,0.28379249572753906,-1.2353990077972412,-2.239076614379883
1771073344142156300,2.59815625,0.52947998046875,-1.1555664539337158,-2.0375304222106934
1771073344152096300,2.60809619140625,0.7951774597167969,-1.2497272491455078,-1.737597942352295
1771073344162036200,2.6180361328125,0.9609146118164062,-1.3420249223709106,-1.3573147058486938
1771073344171976000,2.627975830078125,1.1426429748535156,-1.3962340354919434,-1.011055588722229
1771073344181916000,2.637916015625,1.150522232055664,-1.4101239442825317,-0.694543719291687
1771073344191855900,2.64785595703125,0.88079833984375,-1.4063365459442139,-0.486020565032959
1771073344201795600,2.657795654296875,0.5614042282104492,-1.3710780143737793,-0.28769880533218384
1771073344211735600,2.667735595703125,0.10449600219726562,-1.316556453704834,-0.11266286671161652
1771073344221675500,2.677675537109375,-0.7020187377929688,-1.4620786905288696,0.18286633491516113
1771073344231615500,2.687615478515625,-2.185215473175049,-1.6358542442321777,0.41044092178344727
1771073344241555200,2.69755517578125,-3.3469667434692383,-1.7041212320327759,0.02401800826191902
1771073344251495200,2.7074951171875,-3.401536464691162,-1.830939531326294,0.2986343204975128
1771073344261435100,2.71743505859375,-3.4640121459960938,-1.9449034929275513,0.9654880166053772
1771073344271375000,2.727375,-3.961367130279541,-1.9237245321273804,1.5916270017623901
1771073344281314800,2.737314697265625,-4.475511074066162,-1.7129992246627808,1.8221454620361328
1771073344291254800,2.7472548828125,-4.332383632659912,-1.568876028060913,1.6015516519546509
1771073344301194800,2.75719482421875,-3.717944622039795,-1.6897954940795898,1.129163146018982
1771073344311134500,2.767134521484375,-3.1076269149780273,-2.000319004058838,0.9988927245140076
1771073344321074400,2.777074462890625,-2.643503189086914,-2.1587157249450684,1.2978922128677368
1771073344331014400,2.787014404296875,-2.259847640991211,-1.9688289165496826,1.9002978801727295
1771073344340954400,2.796954345703125,-1.9179062843322754,-1.6094383001327515,2.4164621829986572
1771073344350894300,2.806894287109375,-1.4268407821655273,-1.0992460250854492,2.914776086807251
1771073344360834300,2.816834228515625,-0.7852048873901367,-0.7060319185256958,3.2813174724578857
1771073344370774300,2.826774169921875,0.1756753921508789,-0.6738038063049316,3.151799440383911
1771073344380714000,2.8367138671875,1.7275285720825195,-0.8394783735275269,2.3070156574249268
1771073344390654000,2.846654052734375,2.9760236740112305,-0.9400538206100464,1.9531795978546143
1771073344400594000,2.856593994140625,3.320575714111328,-0.9520330429077148,1.9549007415771484
1771073344410534000,2.866533935546875,2.824385643005371,-0.37066030502319336,2.21927809715271
1771073344420473900,2.876473876953125,1.2421035766601562,0.9660320281982422,2.8490498065948486
1771073344430413800,2.886413818359375,-0.5162210464477539,2.5467798709869385,3.473437786102295
1771073344440353800,2.896353759765625,-1.3215718269348145,3.234837293624878,3.5153849124908447
1771073344450293800,2.906293701171875,-0.6821222305297852,2.371609687805176,3.0891950130462646
1771073344460233700,2.916233642578125,0.17752933502197266,0.7419078350067139,2.749868631362915
1771073344470173700,2.926173583984375,0.48068904876708984,-0.7354075908660889,2.1554505825042725
1771073344480113700,2.93611376953125,0.9146919250488281,-1.5376532077789307,1.2419824600219727
1771073344490053600,2.9460537109375,2.0669145584106445,-1.9525706768035889,0.1370925009250641
1771073344499993600,2.95599365234375,2.99117374420166,-2.3516228199005127,-0.7219275236129761
1771073344509933300,2.965933349609375,3.477008819580078,-2.7432823181152344,-1.1981385946273804
1771073344519873300,2.975873291015625,3.534663200378418,-2.918975353240967,-1.2945196628570557
1771073344529813200,2.985813232421875,3.288039207458496,-2.686549663543701,-1.0833362340927124
1771073344539753200,2.995753173828125,2.723912239074707,-1.9055644273757935,-0.6337051391601562
1771073344549693200,3.005693115234375,2.3468542098999023,-0.8323814868927002,-0.19688308238983154
1771073344559633200,3.015633056640625,1.9844646453857422,0.0789031982421875,-0.10430192947387695
1771073344569573000,3.025572998046875,1.7769279479980469,0.8366676568984985,-0.15680788457393646
1771073344579513000,3.03551318359375,2.126662254333496,1.278350591659546,-0.29661282896995544
1771073344589453000,3.045453125,2.6740341186523438,1.0276480913162231,-0.7851865291595459
1771073344599393000,3.05539306640625,2.8318557739257812,0.3679165840148926,-1.2557367086410522
1771073344609333000,3.0653330078125,2.9120445251464844,-0.18049657344818115,-1.5494784116744995
1771073344619273000,3.07527294921875,2.489974021911621,-0.4527791142463684,-1.7065322399139404
1771073344629212700,3.085212646484375,1.3857269287109375,-0.43847113847732544,-1.4671074151992798
1771073344639152600,3.095152587890625,-0.22423553466796875,-0.3861180543899536,-0.8069029450416565
1771073344649092600,3.105092529296875,-2.276186466217041,-0.12139308452606201,0.16617926955223083
1771073344659032600,3.115032470703125,-4.260970592498779,0.36389291286468506,1.0373419523239136
1771073344668972500,3.12497265625,-5.763058185577393,0.9230633974075317,1.4466643333435059
1771073344678912500,3.13491259765625,-6.621618270874023,1.3370720148086548,1.3477171659469604
1771073344688852500,3.1448525390625,-6.515748023986816,1.4197921752929688,0.9423962831497192
1771073344698792400,3.15479248046875,-5.4318437576293945,1.0116077661514282,0.2948462665081024
1771073344708732400,3.164732421875,-4.176085472106934,0.25135672092437744,-0.3711428642272949
1771073344718672400,3.17467236328125,-2.883650779724121,-0.5426061153411865,-0.7517631649971008
1771073344728612400,3.1846123046875,-1.8731765747070312,-1.2773016691207886,-1.2562633752822876
1771073344738552300,3.19455224609375,-1.17877197265625,-1.7849454879760742,-1.5171644687652588
1771073344748492300,3.2044921875,-1.1284303665161133,-2.065326452255249,-1.5082542896270752
1771073344758432000,3.214431884765625,-1.6710591316223145,-1.9204843044281006,-1.111592173576355
1771073344768372000,3.2243720703125,-1.6184086799621582,-1.3729976415634155,-0.757374107837677
1771073344778312000,3.23431201171875,-0.25694847106933594,-0.6645307540893555,-0.9823130965232849
1771073344788252000,3.244251953125,1.069793701171875,-0.0494312047958374,-1.6606569290161133
1771073344798191900,3.25419189453125,2.500311851501465,0.2837100028991699,-2.675180435180664
1771073344808131800,3.2641318359375,3.693427085876465,0.6631878614425659,-3.3521904945373535
1771073344818071800,3.27407177734375,3.625443458557129,1.1099169254302979,-3.3780934810638428
1771073344828011800,3.28401171875,2.365797996520996,1.2020413875579834,-3.223264217376709
1771073344837951700,3.29395166015625,1.1456212997436523,1.421583652496338,-2.8709096908569336
1771073344847891700,3.3038916015625,1.0013980865478516,1.9626827239990234,-1.9292280673980713
1771073344857831700,3.313831787109375,1.423741340637207,2.259053945541382,-0.6139950752258301
1771073344867771600,3.323771728515625,1.7356767654418945,2.0423619747161865,0.5857816934585571
1771073344877711600,3.333711669921875,2.128803253173828,1.6859753131866455,1.2012345790863037
1771073344887651300,3.3436513671875,2.4353504180908203,1.224557638168335,0.8422503471374512
1771073344897591300,3.35359130859375,2.6260910034179688,0.6373255252838135,-0.1269279420375824
1771073344907531300,3.36353125,2.3817367553710938,0.05365872383117676,-0.9734054803848267
1771073344917471200,3.37347119140625,1.7385730743408203,-0.4421572685241699,-1.8030537366867065
1771073344927411200,3.3834111328125,1.1614389419555664,-0.6842948198318481,-2.5134665966033936
1771073344937351200,3.39335107421875,0.6956624984741211,-0.5936828851699829,-2.531083106994629
1771073344947291100,3.403291015625,0.3619194030761719,-0.41461777687072754,-2.1316707134246826
1771073344957231000,3.413231201171875,0.34807777404785156,-0.4437299966812134,-1.8406202793121338
1771073344967171000,3.423171142578125,0.5943622589111328,-0.6911239624023438,-1.6903254985809326
1771073344977111000,3.433111083984375,0.9587192535400391,-1.0218443870544434,-1.5050811767578125
1771073344987051000,3.443051025390625,1.1662120819091797,-1.4077448844909668,-1.3168954849243164
1771073344996991000,3.452990966796875,1.164372444152832,-1.8031110763549805,-1.0556336641311646
1771073345006930700,3.4629306640625,1.308624267578125,-2.0518624782562256,-0.6276977062225342
1771073345016870700,3.47287060546875,1.3755064010620117,-2.263212203979492,-0.07659518718719482
1771073345026810600,3.482810546875,0.8002767562866211,-2.5110764503479004,0.4263767898082733
1771073345036750600,3.49275048828125,-0.4703216552734375,-2.7583377361297607,0.7100870013237
1771073345046690300,3.502690185546875,-2.110565662384033,-2.935302972793579,0.945193350315094
1771073345056630300,3.51263037109375,-3.9037327766418457,-2.964184522628784,1.4025336503982544
1771073345066570200,3.5225703125,-5.4023637771606445,-3.0295636653900146,1.767284870147705
1771073345076510200,3.53251025390625,-6.503446578979492,-3.121350049972534,1.9446313381195068
1771073345086450000,3.542449951171875,-7.261481285095215,-3.217402219772339,1.8901052474975586
1771073345096390000,3.552389892578125,-7.824236869812012,-3.3784303665161133,1.6447157859802246
1771073345106329900,3.562329833984375,-8.01750373840332,-3.483903408050537,1.4145926237106323
1771073345116269600,3.57226953125,-7.785305976867676,-3.389704942703247,1.383437156677246
1771073345126209500,3.58220947265625,-7.114645004272461,-3.001156806945801,1.628683090209961
1771073345136149500,3.5921494140625,-5.58278226852417,-2.5232372283935547,1.9861109256744385
1771073345146089500,3.60208935546875,-3.352686882019043,-2.1751489639282227,2.550539016723633
1771073345156029200,3.612029296875,-1.0169143676757812,-2.004870653152466,3.3759896755218506
1771073345165969200,3.62196923828125,0.7478218078613281,-2.002847671508789,3.9714579582214355
1771073345175909000,3.6319091796875,1.8002567291259766,-2.136570453643799,3.8494951725006104
1771073345185848800,3.641848876953125,2.4879722595214844,-2.2125253677368164,2.775096893310547
1771073345195788800,3.651788818359375,2.760647773742676,-1.8826079368591309,0.839556097984314
1771073345205728800,3.661728759765625,2.2377119064331055,-1.3952910900115967,0.032684326171875
1771073345215668700,3.671668701171875,0.3098163604736328,-0.6046762466430664,0.72342449426651
1771073345225608400,3.6816083984375,-1.9486656188964844,0.7751812934875488,1.709957242012024
1771073345235548400,3.69154833984375,-2.8005146980285645,2.466761589050293,2.2856643199920654
1771073345245488400,3.70148828125,-1.2421092987060547,3.8672356605529785,2.2820518016815186
1771073345255428000,3.711427978515625,1.9661684036254883,3.842660903930664,2.1076927185058594
1771073345265368000,3.7213681640625,4.082737922668457,2.5766756534576416,2.7083239555358887
1771073345275308000,3.73130810546875,4.811101913452148,1.046187162399292,3.3239362239837646
1771073345285248000,3.741248046875,4.787579536437988,0.0008857250213623047,3.2231531143188477
1771073345295187700,3.751187744140625,4.34306526184082,-0.39801299571990967,2.5787360668182373
1771073345305127700,3.761127685546875,3.8573484420776367,-0.2580670118331909,1.646880865097046
1771073345315067600,3.771067626953125,3.8389720916748047,-0.05289781093597412,1.1071717739105225
1771073345325007400,3.78100732421875,5.239052772521973,-0.19660937786102295,0.8378275036811829
1771073345334947300,3.790947265625,7.114566802978516,-0.46210652589797974,0.7382539510726929
1771073345344887300,3.80088720703125,8.270757675170898,-0.7856981754302979,0.6275923252105713
1771073345354827300,3.8108271484375,8.101301193237305,-1.048336148262024,0.2755901515483856
1771073345364767000,3.82076708984375,7.18712043762207,-1.0932480096817017,-0.2811201512813568
1771073345374707000,3.83070703125,5.957211494445801,-0.8778750896453857,-0.9149627089500427
1771073345384647000,3.84064697265625,4.713059425354004,-0.5909969210624695,-1.5583534240722656
1771073345394587000,3.8505869140625,3.275341033935547,-0.44397711753845215,-2.1350488662719727
1771073345404526800,3.86052685546875,1.8588647842407227,-0.33633869886398315,-2.5755879878997803
1771073345414466800,3.870466796875,0.7110929489135742,-0.14603929221630096,-2.7827179431915283
1771073345424406500,3.880406494140625,-0.48464393615722656,0.16056272387504578,-2.641484022140503
1771073345434346500,3.890346435546875,-1.568720817565918,0.7131717205047607,-2.078202486038208
1771073345444286500,3.900286376953125,-2.7323665618896484,1.475451111793518,-1.2871129512786865
1771073345454226400,3.910226318359375,-4.914536476135254,1.7133419513702393,-0.9128891229629517
1771073345464166400,3.92016650390625,-7.204768180847168,1.8766250610351562,-0.8013472557067871
1771073345474106400,3.9301064453125,-8.658440589904785,2.1422910690307617,-0.5776102542877197
1771073345484046300,3.94004638671875,-9.002760887145996,2.3020408153533936,-0.23532485961914062
1771073345493986300,3.949986328125,-8.346967697143555,2.0789296627044678,-0.03304469585418701
1771073345503926300,3.95992626953125,-7.244564533233643,1.7014951705932617,0.44988444447517395
1771073345513866200,3.9698662109375,-5.591344833374023,1.429909110069275,0.9972771406173706
1771073345523806200,3.97980615234375,-3.500202178955078,1.254699945449829,1.199026107788086
1771073345533746200,3.98974609375,-1.427159309387207,0.8736422657966614,0.7868772745132446
1771073345543686100,3.99968603515625,0.31147098541259766,0.22366006672382355,0.22158220410346985
1771073345553625900,4.0096259765625,1.4283323287963867,-0.4262188673019409,-0.2117815613746643
1771073345563565800,4.01956591796875,1.860635757446289,-0.8860337734222412,-0.5985265374183655
1771073345573505800,4.029505859375,2.0248661041259766,-1.0323461294174194,-1.1854807138442993
1771073345583445800,4.03944580078125,2.6610212326049805,-0.9642219543457031,-2.261237144470215
1771073345593385700,4.0493857421875,3.43546199798584,-0.5923976302146912,-3.5047619342803955
1771073345603325700,4.05932568359375,3.872727394104004,-0.3182049095630646,-4.905205726623535
1771073345613265700,4.069265625,3.189753532409668,-0.011956959962844849,-5.776398658752441
1771073345623205600,4.07920556640625,1.723628044128418,0.4755709767341614,-5.947611331939697
1771073345633145600,4.0891455078125,0.7010765075683594,1.3557730913162231,-5.557617664337158
1771073345643085600,4.09908544921875,1.1948156356811523,1.9004123210906982,-4.894992828369141
1771073345653025500,4.109025634765625,2.675067901611328,1.4497654438018799,-3.6905455589294434
1771073345662965500,4.118965576171875,3.475132942199707,0.6677395105361938,-2.1943721771240234
1771073345672905500,4.128905517578125,3.568876266479492,0.36849546432495117,-0.7388644218444824
1771073345682845200,4.13884521484375,3.4539003372192383,0.4995291233062744,0.4906805157661438
1771073345692785200,4.14878515625,3.724247932434082,0.6827484369277954,1.052403450012207
1771073345702725000,4.15872509765625,4.285985946655273,0.6268947124481201,0.9772247076034546
1771073345712665000,4.1686650390625,4.535222053527832,0.05525016784667969,0.3039671778678894
1771073345722605000,4.17860498046875,4.200905799865723,-0.8162200450897217,-0.7108069062232971
1771073345732545000,4.188544921875,3.652346611022949,-1.516044020652771,-1.7380645275115967
1771073345742485000,4.198485107421875,3.031259536743164,-1.7539846897125244,-2.5036892890930176
1771073345752425000,4.208425048828125,2.2855377197265625,-1.644436240196228,-2.8747105598449707
1771073345762365000,4.218364990234375,1.4276714324951172,-1.4977798461914062,-2.888942241668701
1771073345772305000,4.228304931640625,0.5799741744995117,-1.4277924299240112,-2.548582077026367
1771073345782244900,4.238244873046875,-0.2501554489135742,-1.425331950187683,-2.019681453704834
1771073345792184800,4.248184814453125,-1.2822532653808594,-1.4978663921356201,-1.4412760734558105
1771073345802124500,4.25812451171875,-2.4132752418518066,-1.5928337574005127,-0.902488112449646
1771073345812064500,4.268064453125,-3.323176383972168,-1.6504895687103271,-0.36223727464675903
1771073345822004500,4.27800439453125,-3.9500412940979004,-1.6695444583892822,0.16187649965286255
1771073345831944400,4.2879443359375,-4.494718074798584,-1.8012721538543701,0.5445220470428467
1771073345841884400,4.297884521484375,-5.3062005043029785,-2.0137534141540527,0.8048034906387329
1771073345851824400,4.307824462890625,-6.277398586273193,-2.2557945251464844,0.9307432174682617
1771073345861764400,4.317764404296875,-7.175294399261475,-2.45180606842041,1.0776082277297974
1771073345871704300,4.327704345703125,-7.820058822631836,-2.5503971576690674,1.3093819618225098
1771073345881644300,4.337644287109375,-7.957775115966797,-2.5192558765411377,1.5798187255859375
1771073345891584300,4.347584228515625,-7.859959602355957,-2.453094244003296,1.8684509992599487
1771073345901524200,4.357524169921875,-7.405611991882324,-2.305753231048584,2.0744380950927734
1771073345911464200,4.367464111328125,-6.516238212585449,-2.184567928314209,2.1893458366394043
1771073345921404200,4.377404052734375,-5.5950398445129395,-2.270808458328247,2.416112184524536
1771073345931344000,4.38734375,-4.53564977645874,-2.1774160861968994,3.3016679286956787
1771073345941283800,4.397283935546875,-2.739971160888672,-1.491180419921875,4.78477144241333
1771073345951223800,4.407223876953125,-1.0661582946777344,-0.6199310421943665,6.014595985412598
1771073345961163800,4.417163818359375,0.3765296936035156,-0.14130115509033203,5.988833904266357
1771073345971103700,4.427103759765625,2.3532609939575195,-0.3687727451324463,4.354786396026611
1771073345981043700,4.437043701171875,4.32943058013916,-0.8853064775466919,1.2733371257781982
1771073345990983700,4.446983642578125,5.110907554626465,-1.3210114240646362,-1.098068356513977
1771073346000923600,4.456923583984375,4.116950035095215,-1.9329053163528442,-1.4525954723358154
1771073346010863600,4.466863525390625,2.0842342376708984,-1.6194182634353638,-0.07994027435779572
1771073346020803600,4.476803466796875,0.009449958801269531,-0.04102957248687744,1.750974416732788
1771073346030743600,4.48674365234375,-0.709843635559082,1.7171144485473633,3.242611885070801
1771073346040683500,4.49668359375,0.8554534912109375,2.8866329193115234,4.74674654006958
1771073346050623500,4.50662353515625,3.3408994674682617,2.7785756587982178,6.003220558166504
1771073346060563200,4.516563232421875,4.891111373901367,1.4793493747711182,6.485749244689941
1771073346070503200,4.526503173828125,5.785752296447754,-0.2471984624862671,5.824545860290527
1771073346080443100,4.536443115234375,6.692553520202637,-1.6087486743927002,4.443711280822754
1771073346090383000,4.546383056640625,7.059168815612793,-2.435286521911621,2.6474480628967285
1771073346100323000,4.556322998046875,6.603036880493164,-2.8375391960144043,0.7585694789886475
1771073346110263000,4.566262939453125,5.671441078186035,-2.758009910583496,-0.7717857360839844
1771073346120202800,4.57620263671875,4.707695960998535,-2.319720983505249,-1.5412551164627075
1771073346130142700,4.586142822265625,3.778329849243164,-1.6677476167678833,-1.8662949800491333
1771073346140082700,4.596082763671875,2.856236457824707,-0.8583400249481201,-1.959972620010376
1771073346150022700,4.606022705078125,1.9024467468261719,-0.032050251960754395,-1.955094575881958
1771073346159962400,4.61596240234375,1.2505836486816406,0.725541353225708,-1.6519644260406494
1771073346169902300,4.62590234375,0.9232196807861328,1.126591444015503,-1.3604419231414795
1771073346179842300,4.63584228515625,1.1629524230957031,1.0979214906692505,-1.1067750453948975
1771073346189782000,4.645781982421875,1.665328025817871,0.9594427347183228,-0.6464282274246216
1771073346199722000,4.655721923828125,1.8260002136230469,0.8416864275932312,-0.2860461473464966
1771073346209662000,4.665661865234375,1.4054803848266602,0.6149794459342957,-0.3829975724220276
1771073346219602000,4.675601806640625,0.4611377716064453,0.470511794090271,-0.6429223418235779
1771073346229541600,4.685541748046875,-0.9953880310058594,0.47453927993774414,-0.7347625494003296
1771073346239481600,4.695481689453125,-3.2061944007873535,0.54729825258255,-0.6179490685462952
1771073346249421600,4.705421630859375,-5.8024210929870605,0.7312098741531372,-0.44137319922447205
1771073346259361300,4.715361328125,-8.212210655212402,0.9900227785110474,-0.2629147469997406
1771073346269301200,4.72530126953125,-9.474544525146484,1.2617453336715698,-0.24353457987308502
1771073346279241200,4.7352412109375,-8.924186706542969,1.25017511844635,-0.531325101852417
1771073346289181200,4.74518115234375,-6.458661079406738,0.8120958805084229,-0.6804434657096863
1771073346299121000,4.755120849609375,-3.781038284301758,0.2656242847442627,-0.293356329202652
1771073346309060900,4.765060791015625,-1.6366119384765625,-0.5098639130592346,-0.21027126908302307
1771073346319000800,4.775000732421875,-0.22182655334472656,-1.468648076057434,-0.3828982710838318
1771073346328940500,4.7849404296875,0.27149295806884766,-2.5027384757995605,-0.3819362223148346
1771073346338880500,4.794880615234375,-0.10571002960205078,-3.222703456878662,-0.12805771827697754
1771073346348820500,4.804820556640625,-1.0271110534667969,-3.036644458770752,0.5930778384208679
1771073346358760400,4.814760498046875,-1.4975223541259766,-2.1527695655822754,0.8336406946182251
1771073346368700200,4.8247001953125,-1.3313751220703125,-1.2866407632827759,-0.15828800201416016
1771073346378640100,4.83464013671875,0.1826009750366211,-0.5145995616912842,-1.5167243480682373
1771073346388580000,4.844580078125,2.786426544189453,0.19429123401641846,-3.3039944171905518
1771073346398519800,4.854519775390625,3.862478256225586,0.9130253791809082,-4.833321571350098
1771073346408459800,4.864459716796875,2.623231887817383,1.558722734451294,-5.411986827850342
1771073346418399700,4.874399658203125,1.8544721603393555,1.6310147047042847,-5.664734363555908
1771073346428339700,4.884339599609375,3.0583505630493164,0.7724334001541138,-5.031181335449219
1771073346438279400,4.894279541015625,4.157247543334961,-0.11460161209106445,-2.688242197036743
1771073346448219400,4.904219482421875,4.553775787353516,-0.27541816234588623,-0.47857534885406494
1771073346458159400,4.914159423828125,4.447513580322266,0.10826313495635986,1.1150439977645874
1771073346468099300,4.924099365234375,4.483575820922852,0.28732800483703613,1.5186610221862793
1771073346478039300,4.934039306640625,4.323002815246582,0.04500162601470947,1.0655603408813477
1771073346487979300,4.943979248046875,3.2408275604248047,-0.5366978645324707,-0.046068787574768066
1771073346497919200,4.953919189453125,2.2015867233276367,-0.9269492030143738,-1.166450023651123
1771073346507859200,4.963859130859375,1.302541732788086,-0.888975977897644,-1.9761407375335693
1771073346517799200,4.973799072265625,0.6047840118408203,-1.0783557891845703,-2.8948352336883545
1771073346527739000,4.98373876953125,-0.028608322143554688,-1.137373924255371,-3.369013786315918
1771073346537678800,4.993678955078125,-0.7748985290527344,-1.144226312637329,-3.366849899291992
1771073346547618800,5.003618896484375,-1.488570213317871,-1.1879162788391113,-3.041529417037964
1771073346557558800,5.013558837890625,-1.6872987747192383,-1.1843453645706177,-2.5076775550842285
1771073346567498800,5.023498779296875,-1.3902959823608398,-1.0511810779571533,-1.7626848220825195
1771073346577438700,5.033438720703125,-0.9459676742553711,-0.8508460521697998,-0.91859370470047
1771073346587378700,5.043378662109375,-0.4703073501586914,-0.7423081994056702,-0.22447335720062256
1771073346597318700,5.053318603515625,-0.4497547149658203,-0.7487175464630127,0.3507579267024994
1771073346607258600,5.063258544921875,-0.663304328918457,-0.7563327550888062,0.7335382699966431
1771073346627138600,5.083138671875,-2.14859676361084,-0.6513017416000366,1.239484190940857
1771073346637078500,5.09307861328125,-3.285855770111084,-0.6850652694702148,1.4514795541763306
1771073346647018200,5.103018310546875,-4.049734592437744,-0.7872118949890137,1.5744521617889404
1771073346656958200,5.112958251953125,-4.496744632720947,-1.0705245733261108,1.3932585716247559
1771073346666898200,5.122898193359375,-4.515608310699463,-1.3924236297607422,1.061159610748291
1771073346676838100,5.132838134765625,-4.360333442687988,-1.6054596900939941,0.8401895761489868
1771073346686778000,5.142778076171875,-4.260466575622559,-1.6771571636199951,0.9063952565193176
1771073346696718000,5.152718017578125,-3.943699836730957,-1.534608006477356,1.2720096111297607
1771073346706658000,5.162657958984375,-3.083195686340332,-1.2615116834640503,1.7591890096664429
1771073346716598000,5.172597900390625,-1.9063782691955566,-1.0015007257461548,2.272401809692383
1771073346726538000,5.1825380859375,-0.8287296295166016,-0.8431298732757568,2.8794984817504883
1771073346736478000,5.19247802734375,0.15767478942871094,-0.7577706575393677,3.24800968170166
1771073346746418000,5.20241796875,0.7596206665039062,-0.8625448942184448,2.8648927211761475
1771073346756358000,5.21235791015625,0.8754510879516602,-0.7537553310394287,1.5992398262023926
1771073346766297900,5.2222978515625,0.8122882843017578,-0.2823110818862915,0.8316452503204346
1771073346776237600,5.232237548828125,0.16958332061767578,0.18627417087554932,1.4721485376358032
1771073346786177500,5.242177490234375,-1.0065622329711914,0.8746140003204346,2.889913558959961
1771073346796117500,5.252117431640625,-1.986837387084961,2.1321535110473633,4.248036861419678
1771073346806057500,5.262057373046875,-1.0797510147094727,3.2716522216796875,4.8153767585754395
1771073346815997400,5.27199755859375,1.5172929763793945,3.069593906402588,4.636082172393799
1771073346825937400,5.2819375,3.841838836669922,1.4910173416137695,4.463463306427002
1771073346835877400,5.29187744140625,5.135720252990723,-0.5242449045181274,4.242314338684082
1771073346845817300,5.3018173828125,5.648492813110352,-2.2530927658081055,3.2014353275299072
1771073346855757300,5.31175732421875,6.207781791687012,-3.1643996238708496,1.6598107814788818
1771073346865697300,5.321697265625,6.631670951843262,-3.3443751335144043,0.14712101221084595
1771073346875637200,5.33163720703125,6.659822463989258,-3.332636833190918,-1.0434931516647339
1771073346885577200,5.3415771484375,6.067468643188477,-3.013481616973877,-1.408237099647522
1771073346895517200,5.35151708984375,5.073552131652832,-2.481868028640747,-1.447117805480957
1771073346905457000,5.361456787109375,3.903291702270508,-1.7245385646820068,-1.4908342361450195
1771073346915396900,5.37139697265625,2.4467668533325195,-0.8744686245918274,-1.6056880950927734
1771073346925336800,5.3813369140625,0.8564481735229492,-0.13807201385498047,-1.6253796815872192
1771073346935276800,5.39127685546875,-0.31470203399658203,0.33879876136779785,-1.5352329015731812
1771073346945216800,5.401216796875,-0.5624628067016602,0.3988819122314453,-1.578917145729065
1771073346955156700,5.41115673828125,-0.2069082260131836,0.10129964351654053,-1.52517569065094
1771073346965096700,5.4210966796875,0.11104488372802734,-0.2117617130279541,-1.2257448434829712
1771073346975036700,5.43103662109375,0.03195953369140625,-0.44212162494659424,-0.9836496710777283
1771073346984976600,5.4409765625,-0.6881656646728516,-0.3622151017189026,-0.7377068400382996
1771073346994916600,5.45091650390625,-1.751133918762207,-0.025104522705078125,-0.5289095044136047
1771073347004856600,5.460856689453125,-2.8551368713378906,0.3502488136291504,-0.4731253385543823
1771073347014796500,5.470796630859375,-4.141390800476074,0.8594621419906616,-0.10742545127868652
1771073347024736500,5.480736572265625,-5.359893798828125,1.2202924489974976,0.0769631564617157
1771073347034676200,5.49067626953125,-5.96076774597168,1.391335368156433,0.09792555123567581
1771073347044616200,5.5006162109375,-5.559770107269287,1.225435733795166,-0.09307022392749786
1771073347054556200,5.51055615234375,-4.605677604675293,0.6691635847091675,-0.3391781449317932
1771073347064496000,5.52049609375,-3.9153146743774414,0.175376296043396,-0.3159182667732239
1771073347074436000,5.53043603515625,-3.359947681427002,-0.1932331919670105,-0.2824775278568268
1771073347084376000,5.5403759765625,-2.8688273429870605,-0.47979849576950073,-0.3374340534210205
1771073347094316000,5.55031591796875,-2.1523308753967285,-0.649121880531311,-0.3621067404747009
1771073347104256000,5.560256103515625,-1.306279182434082,-0.8429945707321167,-0.320570707321167
1771073347114196000,5.570196044921875,-0.5767326354980469,-1.074007511138916,-0.40957897901535034
1771073347124136000,5.580135986328125,-0.3142814636230469,-1.3665350675582886,-0.5370837450027466
1771073347134076000,5.590075927734375,-0.16231060028076172,-1.5725387334823608,-0.8034162521362305
1771073347144016000,5.600015869140625,0.2899169921875,-1.3325198888778687,-1.3497730493545532
1771073347153955600,5.60995556640625,0.9656486511230469,-1.2277791500091553,-2.608532428741455
1771073347163895600,5.6198955078125,1.2945671081542969,-1.184779167175293,-3.9059252738952637
1771073347173835500,5.62983544921875,0.3267679214477539,-0.9706082344055176,-4.987259387969971
1771073347183775500,5.639775390625,-0.9531240463256836,-0.46459805965423584,-5.4674577713012695
1771073347193715500,5.649715576171875,-1.6808586120605469,0.7156045436859131,-4.973685264587402
1771073347203655400,5.659655517578125,-1.1491460800170898,1.6740777492523193,-3.837735652923584
1771073347213595400,5.669595458984375,0.5530128479003906,1.5398147106170654,-2.075282096862793
1771073347223535400,5.679535400390625,2.051136016845703,0.8875415325164795,-0.012593269348144531
1771073347233475300,5.689475341796875,3.3444576263427734,0.482105016708374,1.8876094818115234
1771073347243415300,5.699415283203125,4.233128547668457,0.6103582382202148,3.4385881423950195
1771073347253355300,5.709355224609375,4.696427345275879,0.8740527629852295,4.40938663482666
1771073347263295000,5.719294921875,4.842828750610352,0.9745562076568604,4.61685037612915
1771073347273235000,5.72923486328125,4.806978225708008,0.9010295867919922,4.061817169189453
1771073347283175000,5.7391748046875,4.463391304016113,0.4810298681259155,2.5609090328216553
1771073347293114600,5.749114501953125,3.9471921920776367,-0.21117901802062988,0.6965978145599365
1771073347303054600,5.7590546875,3.61773681640625,-0.8561358451843262,-1.0109193325042725
1771073347312994600,5.76899462890625,3.3227462768554688,-1.3873659372329712,-2.5159077644348145
1771073347322934500,5.7789345703125,2.8552989959716797,-1.8122670650482178,-3.686054229736328
1771073347332874200,5.788874267578125,2.144620895385742,-2.043440341949463,-4.305243015289307
1771073347342814200,5.798814208984375,1.3895797729492188,-2.033581256866455,-4.131197452545166
1771073347352754200,5.808754150390625,0.8151979446411133,-1.8907439708709717,-3.381171464920044
1771073347362694000,5.81869384765625,0.056308746337890625,-1.7433404922485352,-2.546833038330078
1771073347372633900,5.8286337890625,-0.991612434387207,-1.5321829319000244,-1.7272393703460693
1771073347382573800,5.83857373046875,-2.113223075866699,-1.2850604057312012,-0.966596245765686
1771073347392513800,5.848513671875,-3.1462740898132324,-0.9920145273208618,-0.12908950448036194
1771073347402453500,5.85845361328125,-4.1125617027282715,-0.7716172933578491,0.8401581048965454
1771073347412393500,5.8683935546875,-4.983652114868164,-0.7792715430259705,1.6772894859313965
1771073347422333400,5.87833349609375,-5.836721420288086,-0.9696555733680725,2.18271541595459
1771073347432273200,5.888273193359375,-6.479849815368652,-1.2198340892791748,2.419388771057129
1771073347442213000,5.898213134765625,-6.707624435424805,-1.3841001987457275,2.487745761871338
1771073347452153000,5.908153076171875,-6.5512614250183105,-1.4832390546798706,2.5234761238098145
1771073347462093000,5.918093017578125,-6.02462100982666,-1.5673503875732422,2.5522966384887695
1771073347472032800,5.92803271484375,-5.136111259460449,-1.664634346961975,2.584811210632324
1771073347481972700,5.93797265625,-3.6850380897521973,-1.744476318359375,2.8006949424743652
1771073347491912700,5.94791259765625,-2.1007509231567383,-1.7715734243392944,3.1261794567108154
1771073347501852400,5.957852294921875,-0.6558847427368164,-1.789933681488037,3.2798047065734863
1771073347511792400,5.96779248046875,0.31031227111816406,-1.873037576675415,3.067141532897949
1771073347521732400,5.977732421875,0.8840398788452148,-1.9389780759811401,2.918760299682617
1771073347531672300,5.98767236328125,1.3869037628173828,-1.997138261795044,2.650055408477783
1771073347541612000,5.997612060546875,2.0868568420410156,-1.844113826751709,1.5201643705368042
1771073347551552000,6.007552001953125,2.755070686340332,-1.3558127880096436,0.21157240867614746
1771073347561492000,6.017491943359375,2.5662240982055664,-1.1204050779342651,0.17090922594070435
1771073347571431700,6.027431640625,0.9632968902587891,-0.6747945547103882,1.7637234926223755
1771073347581371600,6.03737158203125,-1.4109268188476562,0.8903223276138306,3.848714590072632
1771073347591311600,6.0473115234375,-2.282564640045166,2.8588454723358154,4.920681476593018
1771073347601251600,6.05725146484375,-0.24965858459472656,3.717275857925415,4.54561185836792
1771073347611191600,6.067191650390625,2.8919878005981445,2.770380735397339,4.058876991271973
1771073347621131500,6.077131591796875,4.843372344970703,0.9252798557281494,4.512364387512207
1771073347631071500,6.087071533203125,6.018436431884766,-1.1974364519119263,4.194221496582031
1771073347641011500,6.097011474609375,7.292428016662598,-2.841076135635376,2.876966714859009
1771073347650951400,6.106951416015625,8.279488563537598,-3.5166356563568115,1.1375892162322998
1771073347660891400,6.116891357421875,8.52673053741455,-3.574538230895996,-0.6366366147994995
1771073347670831000,6.1268310546875,8.380488395690918,-3.575786590576172,-2.1287708282470703
1771073347680771000,6.13677099609375,8.012516975402832,-3.299248218536377,-2.8155081272125244
1771073347690711000,6.1467109375,7.241556167602539,-2.8727188110351562,-3.0183169841766357
1771073347700651000,6.156651123046875,6.1302289962768555,-2.241882801055908,-2.616142749786377
1771073347710591000,6.166591064453125,4.368454933166504,-1.3359663486480713,-1.7654436826705933
1771073347720531000,6.176531005859375,1.856062889099121,-0.5971076488494873,-1.4148662090301514
1771073347730471000,6.186470947265625,-0.7006254196166992,-0.2525367736816406,-1.6087543964385986
1771073347740411000,6.196410888671875,-2.7261009216308594,0.11650705337524414,-1.8437341451644897
1771073347750350800,6.206350830078125,-3.927596092224121,0.6656708717346191,-1.8790299892425537
1771073347760290800,6.216290771484375,-4.331979274749756,1.2360328435897827,-1.5438803434371948
1771073347770230800,6.226230712890625,-4.2776594161987305,1.5420559644699097,-0.7750181555747986
1771073347780170800,6.236170654296875,-4.252038955688477,1.5607179403305054,0.21191231906414032
1771073347790110700,6.24611083984375,-4.617347717285156,1.5575276613235474,1.2713830471038818
1771073347800050400,6.256050537109375,-5.063776969909668,1.5424349308013916,2.2274160385131836
1771073347809990400,6.265990478515625,-5.853266716003418,1.4677510261535645,2.9535555839538574
1771073347819930400,6.275930419921875,-7.054474830627441,1.3271557092666626,3.234374523162842
1771073347829870300,6.285870361328125,-8.058749198913574,1.2402540445327759,3.070404291152954
1771073347839810300,6.295810302734375,-8.148941993713379,1.220463752746582,2.531545400619507
1771073347849750300,6.305750244140625,-7.18824577331543,1.1024426221847534,1.6546543836593628
1771073347859690200,6.315690185546875,-5.874312400817871,0.6469529867172241,0.783409833908081
1771073347869630200,6.325630126953125,-4.879437446594238,-0.018704652786254883,-0.1363176703453064
1771073347879570200,6.335570068359375,-3.6264848709106445,-0.6080852150917053,-1.0910005569458008
1771073347889510100,6.34551025390625,-2.3875622749328613,-1.0871708393096924,-1.9257704019546509
1771073347899450000,6.3554501953125,-1.6330132484436035,-1.4824374914169312,-2.53664493560791
1771073347909390000,6.36539013671875,-0.9488964080810547,-1.7198964357376099,-2.9307498931884766
1771073347919330000,6.375330078125,-0.21849536895751953,-1.6636953353881836,-3.235154867172241
1771073347929269800,6.385269775390625,0.3143024444580078,-1.261770486831665,-3.721323251724243
1771073347939209700,6.395209716796875,0.8403472900390625,-0.5597919821739197,-4.211157321929932
1771073347949149700,6.405149658203125,1.6310577392578125,0.11686599254608154,-4.772212505340576
1771073347959089700,6.415089599609375,2.4208736419677734,0.7738176584243774,-4.940251350402832
1771073347969029600,6.425029541015625,3.0335988998413086,1.1981723308563232,-5.139782428741455
1771073347978969600,6.434969482421875,3.7356624603271484,1.2149049043655396,-5.544959545135498
1771073347988909600,6.44490966796875,4.255698204040527,0.8629581928253174,-5.375860691070557
1771073347998849500,6.454849609375,4.468233108520508,0.20351219177246094,-4.036599159240723
1771073348008789500,6.46478955078125,3.893556594848633,-0.38746964931488037,-2.080672264099121
1771073348018729500,6.4747294921875,2.8223400115966797,-0.3602719306945801,0.19537803530693054
1771073348028669400,6.48466943359375,1.8508291244506836,0.4813110828399658,2.7205440998077393
1771073348038609400,6.494609375,1.5249395370483398,1.7338759899139404,4.9162702560424805
1771073348048549400,6.50454931640625,2.9236488342285156,2.467972993850708,6.427570819854736
1771073348058489000,6.514489013671875,5.5163116455078125,2.1726906299591064,6.901154518127441
1771073348068429000,6.524428955078125,7.792716979980469,1.0184576511383057,6.317469120025635
1771073348078369000,6.534369140625,8.667219161987305,-0.5738604068756104,4.6091227531433105
1771073348088309000,6.54430908203125,7.6590728759765625,-2.1532142162323,2.0917553901672363
1771073348098249000,6.5542490234375,5.206015586853027,-3.278564453125,-0.5273798704147339
1771073348108189000,6.56418896484375,2.6436357498168945,-3.658304214477539,-2.367739200592041
1771073348118129000,6.57412890625,0.5040912628173828,-3.5284202098846436,-3.422924518585205
1771073348128068900,6.58406884765625,-1.2998523712158203,-3.215972423553467,-3.812192916870117
1771073348138008800,6.5940087890625,-2.742976188659668,-2.7955286502838135,-3.4868757724761963
1771073348147948800,6.60394873046875,-3.716888427734375,-2.331368923187256,-2.564542055130005
1771073348157888800,6.613888671875,-4.249471187591553,-1.9524097442626953,-1.526314616203308
1771073348167828700,6.623828857421875,-4.367975234985352,-1.705029010772705,-0.7299731373786926
1771073348177768400,6.6337685546875,-4.414356708526611,-1.6843528747558594,-0.1831226646900177
1771073348187708400,6.64370849609375,-4.593913555145264,-1.8429713249206543,0.35034075379371643
1771073348197648400,6.6536484375,-4.781898498535156,-1.9568473100662231,1.1087530851364136
1771073348207588400,6.66358837890625,-4.903844833374023,-2.003730058670044,1.9305200576782227
1771073348217528300,6.6735283203125,-5.196024417877197,-1.925514817237854,2.650376796722412
1771073348227468300,6.68346826171875,-5.7446393966674805,-1.7339743375778198,3.007570505142212
1771073348237408300,6.693408203125,-6.068301677703857,-1.4766230583190918,2.9144628047943115
1771073348247348200,6.70334814453125,-5.837240219116211,-1.2766056060791016,2.593543291091919
1771073348257288200,6.7132880859375,-4.838097095489502,-1.3060822486877441,2.457577705383301
1771073348267228200,6.723228271484375,-3.5252246856689453,-1.4120910167694092,2.6789515018463135
1771073348277168000,6.733168212890625,-2.260651111602783,-1.6022837162017822,2.850109100341797
1771073348306987800,6.76298779296875,-0.1230936050415039,-2.1315298080444336,2.0205066204071045
1771073348316927700,6.772927734375,0.4696636199951172,-1.8994146585464478,1.1118758916854858
1771073348326867700,6.78286767578125,0.9900226593017578,-1.2855186462402344,0.2555321455001831
1771073348336807700,6.7928076171875,0.8631887435913086,-0.7569336891174316,0.40270668268203735
1771073348346747600,6.80274755859375,-0.19208526611328125,-0.18790602684020996,1.712425708770752
1771073348356687600,6.8126875,-2.2591805458068848,0.8973897695541382,3.3252642154693604
1771073348366627600,6.822627685546875,-3.1672401428222656,2.8055965900421143,4.667746543884277
1771073348376567600,6.832567626953125,-1.0918073654174805,4.249758720397949,5.107321739196777
1771073348386507500,6.842507568359375,2.640810012817383,3.595377206802368,4.820766925811768
1771073348396447500,6.852447509765625,5.37819766998291,1.6957483291625977,4.936146259307861
1771073348406387500,6.862387451171875,7.320161819458008,-0.6254643201828003,4.586728572845459
1771073348416327400,6.872327392578125,8.555120468139648,-2.822181463241577,3.082037925720215
1771073348426267400,6.882267333984375,8.543229103088379,-4.134458541870117,1.0381758213043213
1771073348436207000,6.89220703125,7.895603179931641,-4.432305335998535,-0.9022201299667358
1771073348446147000,6.90214697265625,7.591090202331543,-4.135857582092285,-2.1684911251068115
1771073348456087000,6.912087158203125,7.564798355102539,-3.347850799560547,-2.1389400959014893
1771073348466027000,6.922027099609375,7.408110618591309,-2.3367788791656494,-1.244028091430664
1771073348475967000,6.931967041015625,6.805846214294434,-1.377204179763794,-0.2995661497116089
1771073348485907000,6.941906982421875,5.739117622375488,-0.5043403506278992,0.19274038076400757
1771073348495847000,6.951846923828125,4.458715438842773,0.11877727508544922,0.06294190883636475
1771073348505787000,6.961786865234375,3.0859508514404297,0.3151710033416748,-0.4439709186553955
1771073348515726800,6.971726806640625,1.9307031631469727,0.32658302783966064,-0.8686543107032776
1771073348525666800,6.981666748046875,1.5321884155273438,0.47017014026641846,-0.9149731397628784
1771073348535606500,6.9916064453125,1.636399269104004,0.6861457824707031,-0.749181866645813
1771073348545546500,7.00154638671875,1.751272201538086,0.8529466390609741,-0.5253962278366089
1771073348555486500,7.011486572265625,1.6341447830200195,1.04149329662323,-0.24239909648895264
1771073348565426400,7.021426513671875,0.8322429656982422,1.0924859046936035,-0.01602095365524292
1771073348575366100,7.0313662109375,-0.35419464111328125,1.100956678390503,0.16653239727020264
1771073348585306000,7.04130615234375,-1.792959213256836,1.0628300905227661,0.17314684391021729
1771073348595246000,7.05124609375,-3.373962879180908,1.018222451210022,0.15361732244491577
1771073348605185800,7.061185791015625,-4.650979518890381,1.006548523902893,0.154266357421875
1771073348615125800,7.071125732421875,-5.455850124359131,0.9651505947113037,0.08275085687637329
1771073348625065700,7.081065673828125,-5.914172172546387,0.7957708835601807,-0.18519896268844604
1771073348635005700,7.091005615234375,-6.193975925445557,0.49306321144104004,-0.5951617956161499
1771073348644945400,7.1009453125,-6.365084648132324,0.09858107566833496,-1.0251930952072144
1771073348664825300,7.120825439453125,-6.452445030212402,-0.782457709312439,-1.388414978981018
1771073348674765300,7.130765380859375,-6.474490165710449,-0.9531586766242981,-0.9918060302734375
1771073348684705000,7.140705078125,-6.290802001953125,-0.742556095123291,-0.17057180404663086
1771073348694645000,7.15064501953125,-6.015218257904053,-0.3724597692489624,0.7779350280761719
1771073348704585000,7.1605849609375,-5.789590835571289,-0.12966811656951904,1.297402262687683
1771073348714524700,7.170524658203125,-5.774672508239746,-0.1348857879638672,0.9393607378005981
1771073348724464600,7.180464599609375,-6.051280498504639,0.28198909759521484,0.0806128978729248
1771073348734404600,7.190404541015625,-6.647529602050781,1.0819973945617676,-1.2585276365280151
1771073348744344600,7.200344482421875,-7.3006157875061035,1.599409818649292,-3.735145330429077
1771073348754284300,7.2102841796875,-7.824998378753662,1.6208701133728027,-6.406731128692627
1771073348764224300,7.220224365234375,-7.949737548828125,1.0075597763061523,-7.467233180999756
1771073348774164200,7.230164306640625,-6.183800220489502,0.24927139282226562,-6.700367450714111
1771073348784104000,7.24010400390625,-2.535346031188965,0.052069664001464844,-4.303035259246826
1771073348794044000,7.2500439453125,2.911945343017578,0.3582587242126465,-0.778814435005188
1771073348803984000,7.25998388671875,7.763097763061523,0.6292428970336914,2.8005411624908447
1771073348813923800,7.269923828125,10.038166999816895,0.27004146575927734,4.997469902038574
1771073348823863600,7.279863525390625,11.00792121887207,-0.42069733142852783,5.560538291931152
1771073348833803500,7.289803466796875,11.908790588378906,-1.3223084211349487,4.255763530731201
1771073348843743500,7.299743408203125,12.52676773071289,-2.5213136672973633,1.5423858165740967
1771073348853683500,7.309683349609375,12.599934577941895,-3.773460865020752,-1.210569143295288
1771073348863623400,7.31962353515625,11.862692832946777,-4.983705043792725,-3.4104528427124023
1771073348873563100,7.329563232421875,10.707355499267578,-5.788440227508545,-4.92352819442749
1771073348883503000,7.339503173828125,9.616169929504395,-5.869500637054443,-5.756331443786621
1771073348893443000,7.349443115234375,8.458687782287598,-5.398536205291748,-6.010415077209473
1771073348903383000,7.359383056640625,7.233630180358887,-4.702184677124023,-5.757752895355225
1771073348913323000,7.369322998046875,6.027809143066406,-4.110595703125,-5.1897454261779785
1771073348923263000,7.379262939453125,4.643134117126465,-3.707308053970337,-4.305935859680176
1771073348933203000,7.389202880859375,3.2447309494018555,-3.4324116706848145,-3.219285011291504
1771073348943143000,7.399142822265625,1.8157405853271484,-3.2175703048706055,-2.2840254306793213
1771073348953083000,7.409082763671875,0.24126911163330078,-2.9734256267547607,-1.595023512840271
1771073348963022800,7.41902294921875,-1.1970462799072266,-2.614001750946045,-0.9349518418312073
1771073348972962800,7.428962890625,-2.4166202545166016,-2.234527349472046,-0.2903071343898773
1771073348982902800,7.43890283203125,-3.3397326469421387,-1.985975742340088,0.30063363909721375
1771073348992842800,7.4488427734375,-3.8623976707458496,-1.9154587984085083,0.7342796921730042
1771073349002782500,7.458782470703125,-4.193445205688477,-2.1078505516052246,0.8584064841270447
1771073349012722400,7.468722412109375,-4.393150329589844,-2.42834734916687,0.7054612040519714
1771073349022662400,7.478662353515625,-4.765641212463379,-2.764836311340332,0.41161906719207764
1771073349032602400,7.488602294921875,-5.48567533493042,-3.2546205520629883,0.1620946228504181
1771073349042542300,7.498542236328125,-6.301957130432129,-3.7499260902404785,0.14331939816474915
1771073349052482300,7.508482421875,-6.848509788513184,-4.044190883636475,0.3924194574356079
1771073349062422300,7.51842236328125,-7.266094207763672,-4.038572311401367,0.7426183819770813
1771073349072362200,7.5283623046875,-7.884775638580322,-3.7842636108398438,1.2074822187423706
1771073349082302200,7.53830224609375,-7.888697624206543,-3.3164632320404053,1.602611780166626
1771073349092242200,7.5482421875,-7.309300899505615,-3.1218783855438232,1.9076919555664062
1771073349102182100,7.55818212890625,-6.243806838989258,-3.1920485496520996,1.9648081064224243
1771073349112122000,7.5681220703125,-4.1136980056762695,-3.368466377258301,2.011075496673584
1771073349122062000,7.57806201171875,-1.1347169876098633,-3.4998433589935303,1.4524024724960327
1771073349132001800,7.588001708984375,1.7608909606933594,-3.042165994644165,-0.26415935158729553
1771073349141941800,7.597941650390625,2.4844799041748047,-1.946778655052185,-1.2575347423553467
1771073349151881700,7.6078818359375,0.5863189697265625,-1.0824322700500488,-1.6475600004196167
1771073349161821700,7.61782177734375,-4.20586633682251,0.525672435760498,-0.3411460518836975
1771073349171761700,7.62776171875,-8.79275131225586,4.106693267822266,1.9468756914138794
1771073349181701600,7.63770166015625,-7.341307163238525,6.763770580291748,2.5501322746276855
1771073349191641600,7.6476416015625,-0.8335452079772949,6.008241653442383,2.8135547637939453
1771073349201581600,7.65758154296875,4.58011531829834,2.7805049419403076,3.728972911834717
1771073349211521500,7.667521484375,8.506747245788574,-1.1496162414550781,3.297475814819336
1771073349221461500,7.67746142578125,11.282429695129395,-4.537585735321045,1.4423274993896484
1771073349231401500,7.6874013671875,13.3176908493042,-6.799808502197266,-1.6047799587249756
1771073349241341400,7.697341552734375,13.859355926513672,-8.066514015197754,-5.410854339599609
1771073349251281400,7.707281494140625,13.166601181030273,-8.535673141479492,-8.161300659179688
1771073349261221000,7.71722119140625,11.410431861877441,-8.262068748474121,-9.172725677490234
1771073349271161000,7.7271611328125,9.63972282409668,-7.046909332275391,-8.27703857421875
1771073349281101000,7.73710107421875,8.154251098632812,-5.300036907196045,-6.2974090576171875
1771073349291041000,7.747041015625,6.496379852294922,-3.404738426208496,-4.144803524017334
1771073349300981000,7.75698095703125,4.443785667419434,-1.7385320663452148,-2.5003836154937744
1771073349310921000,7.7669208984375,2.0173730850219727,-0.4954488277435303,-1.5980111360549927
1771073349320861000,7.77686083984375,-0.2617769241333008,0.28702616691589355,-1.2396856546401978
1771073349330801000,7.78680078125,-1.3813400268554688,0.6635725498199463,-0.9952667355537415
1771073349340740900,7.796740966796875,-1.3965167999267578,0.7578232288360596,-0.31950345635414124
1771073349350680800,7.806680908203125,-1.0138282775878906,0.8839130401611328,0.6625886559486389
1771073349360620800,7.816620849609375,-0.6334438323974609,0.9782192707061768,1.4863133430480957
1771073349370560800,7.826560791015625,-0.5804319381713867,0.8935649394989014,1.8805553913116455
1771073349380500500,7.83650048828125,-0.7204961776733398,0.6679649353027344,1.7599703073501587
1771073349390440400,7.8464404296875,-1.2637748718261719,0.26703476905822754,1.2147207260131836
1771073349400380400,7.85638037109375,-2.236495018005371,-0.3047459125518799,0.38220521807670593
1771073349410320400,7.8663203125,-3.2642431259155273,-0.9712493419647217,-0.3558189868927002
1771073349420260400,7.87626025390625,-4.373363971710205,-1.543683409690857,-0.8831584453582764
1771073349430200300,7.886200439453125,-5.189290523529053,-2.110189437866211,-1.3424084186553955
1771073349440140300,7.896140380859375,-5.949735641479492,-2.649636745452881,-1.7304717302322388
1771073349450080300,7.906080322265625,-6.578886985778809,-3.108090877532959,-2.1241743564605713
1771073349460020200,7.916020263671875,-6.585302829742432,-3.600679397583008,-2.568150520324707
1771073349469960200,7.925960205078125,-5.970287799835205,-4.162785530090332,-3.083925724029541
1771073349479900200,7.935900146484375,-5.245720863342285,-4.747269630432129,-3.4783895015716553
1771073349489840000,7.945840087890625,-4.747970104217529,-5.432743072509766,-3.820390462875366
1771073349499780000,7.955780029296875,-4.383115291595459,-6.056661605834961,-4.265831470489502
1771073349509719800,7.9657197265625,-3.8921451568603516,-6.395751953125,-4.6113600730896
1771073349519659800,7.97565966796875,-3.1283669471740723,-6.571286201477051,-5.083005905151367
1771073349529599700,7.985599853515625,-1.7608933448791504,-6.556690216064453,-5.368420600891113
1771073349539539700,7.995539794921875,0.07662296295166016,-6.326491355895996,-5.473245620727539
1771073349549479700,8.005479736328125,2.460153579711914,-5.7141876220703125,-5.404042720794678
1771073349559419600,8.015419677734375,3.9656028747558594,-4.846949577331543,-5.213743209838867
1771073349569359600,8.025359619140625,4.392669677734375,-3.9078776836395264,-4.9332380294799805
1771073349579299600,8.035299560546875,3.862323760986328,-2.80111026763916,-4.51314115524292
1771073349589239600,8.045239501953125,2.31368350982666,-1.4825456142425537,-3.9165689945220947
1771073349599179500,8.055179443359375,-0.2623147964477539,-0.24393773078918457,-3.411388874053955
1771073349609119500,8.065119384765625,-2.410839080810547,0.7933743000030518,-2.4571664333343506
1771073349619059500,8.0750595703125,-3.009232521057129,1.6504747867584229,-1.257767915725708
1771073349628999400,8.08499951171875,-1.2842392921447754,1.9022846221923828,-0.6836304664611816
1771073349638939100,8.094939208984375,1.831587791442871,1.3930630683898926,-0.6714651584625244
1771073349648879000,8.104879150390625,4.298351287841797,0.5567903518676758,-0.9690179228782654
1771073349658819000,8.114819091796875,5.908975601196289,-0.06970572471618652,-1.6808748245239258
1771073349668759000,8.124759033203125,6.9280500411987305,-0.40341365337371826,-2.7222700119018555
1771073349678699000,8.134698974609375,6.618757247924805,-0.4952728748321533,-3.919461965560913
1771073349688639000,8.144638916015625,4.990997314453125,-0.4668079614639282,-4.93085241317749
1771073349698579000,8.154578857421875,3.334378242492676,-0.3776731491088867,-5.564547538757324
1771073349708519000,8.164518798828125,2.136045455932617,-0.1641138792037964,-5.7181901931762695
1771073349718459000,8.174458984375,1.6013498306274414,0.08872342109680176,-5.332669258117676
1771073349728398800,8.18439892578125,2.1466712951660156,0.09504914283752441,-4.8541669845581055
1771073349738338800,8.1943388671875,3.1292953491210938,-0.3379323482513428,-4.602962017059326
1771073349748278800,8.20427880859375,4.0430803298950195,-0.8130294680595398,-4.458657264709473
1771073349758218800,8.21421875,5.167568206787109,-1.2110098600387573,-4.376544952392578
1771073349768158500,8.224158447265625,6.062326431274414,-1.7911266088485718,-4.397883892059326
1771073349778098400,8.234098388671875,6.248837471008301,-2.4863128662109375,-4.325422763824463
1771073349788038400,8.244038330078125,5.542320251464844,-3.0300283432006836,-4.0257110595703125
1771073349797978400,8.253978271484375,4.13787841796875,-3.210020065307617,-3.469923973083496
1771073349807918300,8.26391845703125,2.361429214477539,-3.086947441101074,-2.690171241760254
1771073349817858300,8.2738583984375,0.3803987503051758,-2.924842596054077,-1.9043833017349243
1771073349827798300,8.28379833984375,-1.7410249710083008,-2.7470552921295166,-1.1089808940887451
1771073349837738200,8.29373828125,-3.6908230781555176,-2.483198642730713,-0.466826856136322
1771073349847678200,8.30367822265625,-4.995669841766357,-2.092200994491577,-0.03820619732141495
1771073349857618200,8.3136181640625,-5.311985492706299,-1.5697174072265625,0.26853394508361816
1771073349867558100,8.32355810546875,-4.919388771057129,-1.1511579751968384,0.5314069986343384
1771073349877498000,8.333498046875,-4.387407302856445,-0.9930409789085388,0.6905108094215393
1771073349887437800,8.343437744140624,-4.014309883117676,-0.8850496411323547,0.7667976021766663
1771073349897377800,8.353377685546874,-3.9833269119262695,-0.742860734462738,0.7729129791259766
1771073349907317800,8.36331787109375,-4.10767936706543,-0.4741060733795166,0.665486752986908
1771073349917257700,8.3732578125,-4.124873161315918,-0.037964582443237305,0.6357535123825073
1771073349927197700,8.38319775390625,-3.858860969543457,0.45510661602020264,0.4552428126335144
1771073349937137400,8.393137451171874,-3.171940326690674,0.8827462196350098,0.1490897536277771
1771073349947077400,8.403077392578124,-2.2246718406677246,1.2266842126846313,-0.04868084192276001
1771073349957017300,8.413017333984374,-1.2799654006958008,1.6059095859527588,-0.06125068664550781
1771073349966957000,8.42295703125,-0.34734535217285156,2.1478734016418457,0.04617190361022949
1771073349976897000,8.43289697265625,0.5515785217285156,2.4476969242095947,-0.18477129936218262
1771073349986837000,8.4428369140625,1.3741474151611328,2.3065168857574463,-0.5564309358596802
1771073349996777000,8.45277685546875,1.8724308013916016,1.933502435684204,-0.7566943764686584
1771073350006716700,8.462716552734374,2.288680076599121,1.6434447765350342,-0.8366044163703918
1771073350016656600,8.47265673828125,2.391752243041992,1.4127557277679443,-0.9654702544212341
1771073350026596600,8.4825966796875,2.3021154403686523,1.1266181468963623,-1.181703805923462
1771073350036536300,8.492536376953124,2.058760643005371,0.7102815508842468,-1.3873577117919922
1771073350046476300,8.502476318359374,1.7578468322753906,0.24927985668182373,-1.5003657341003418
1771073350056416300,8.512416259765626,1.538482666015625,-0.311122864484787,-1.5883605480194092
1771073350066356200,8.522356201171876,1.2411108016967773,-0.866020917892456,-1.5683839321136475
1771073350076296000,8.5322958984375,0.7708349227905273,-1.20204758644104,-1.2871230840682983
1771073350086236000,8.54223583984375,0.14261722564697266,-1.3270946741104126,-0.7597541809082031
1771073350096175900,8.55217578125,-0.6240816116333008,-1.29909086227417,-0.013396501541137695
1771073350106115600,8.562115478515626,-1.2880496978759766,-1.07706880569458,0.9045689105987549
1771073350116055600,8.5720556640625,-1.9428229331970215,-0.7459203600883484,1.7464977502822876
1771073350125995500,8.58199560546875,-2.8470382690429688,-0.4398587942123413,2.4083919525146484
1771073350135935500,8.591935546875,-4.255485534667969,-0.1322144865989685,2.7625787258148193
1771073350145875200,8.601875244140626,-5.535553932189941,0.405398964881897,2.921276092529297
1771073350155815200,8.611815185546876,-5.781294822692871,1.2361149787902832,3.270343780517578
1771073350165755100,8.621755126953126,-4.975744724273682,2.0238542556762695,3.857313632965088
1771073350175695000,8.631695068359376,-3.394021987915039,2.435025691986084,4.51350212097168
1771073350185634800,8.641634765625,-0.9129018783569336,2.310492515563965,4.762172698974609
1771073350195574800,8.65157470703125,2.1478052139282227,1.5900909900665283,4.555041790008545
1771073350215454700,8.671454833984376,8.803322792053223,-0.19958192110061646,4.485466957092285
1771073350225394700,8.681394775390626,11.14925765991211,-1.1425443887710571,4.240918159484863
1771073350235334400,8.69133447265625,11.675725936889648,-2.2038207054138184,3.42624568939209
1771073350245274400,8.7012744140625,10.7045316696167,-2.927946090698242,2.157313346862793
1771073350255214300,8.71121435546875,8.806647300720215,-3.034827470779419,1.1908742189407349
1771073350265154300,8.721154296875,6.502692222595215,-2.7067856788635254,0.7182732224464417
1771073350275094300,8.73109423828125,4.660028457641602,-2.0837647914886475,0.6418719291687012
1771073350285034200,8.7410341796875,3.5880165100097656,-1.408418893814087,1.1018521785736084
1771073350294974200,8.75097412109375,2.973146438598633,-0.9517456889152527,1.7909774780273438
1771073350304914200,8.7609140625,2.5826187133789062,-0.4660347104072571,2.615360975265503
1771073350314854100,8.770854248046875,2.6277542114257812,-0.00967569649219513,3.2371129989624023
1771073350324794000,8.780794189453125,2.42928409576416,0.33247628808021545,3.57150936126709
1771073350334734000,8.790734130859375,1.970076560974121,0.6024836897850037,3.619283437728882
1771073350344674000,8.800674072265625,1.939467430114746,0.7211700677871704,3.3340182304382324
1771073350354613800,8.81061376953125,1.9572219848632812,0.6699814200401306,2.865682363510132
1771073350364553700,8.8205537109375,2.183277130126953,0.44164884090423584,2.234821319580078
1771073350374493700,8.83049365234375,2.038508415222168,0.24493473768234253,1.7034884691238403
1771073350384433700,8.84043359375,1.4416236877441406,0.2715803384780884,1.1860812902450562
1771073350394373600,8.85037353515625,0.904057502746582,0.6259161233901978,1.0420794486999512
1771073350404313600,8.860313720703125,0.3152332305908203,1.0970420837402344,1.2041171789169312
1771073350414253600,8.870253662109375,-0.45396995544433594,1.6438279151916504,1.4166505336761475
1771073350424193500,8.880193603515625,-1.5368986129760742,2.12388277053833,1.5631422996520996
1771073350434133500,8.890133544921875,-2.6364479064941406,2.4090442657470703,1.4195269346237183
1771073350444073500,8.900073486328125,-3.771270275115967,2.5605990886688232,1.2071946859359741
1771073350454013400,8.910013427734375,-5.141408443450928,2.7345120906829834,1.1708320379257202
1771073350463953400,8.919953369140625,-6.397231101989746,2.8993849754333496,1.2016240358352661
1771073350473893400,8.929893310546875,-7.40283727645874,3.0288829803466797,1.2126957178115845
1771073350483833000,8.9398330078125,-7.932322025299072,3.0880680084228516,1.0874824523925781
1771073350493773000,8.94977294921875,-7.691292762756348,3.055737257003784,0.8310802578926086
1771073350503713000,8.959713134765625,-6.942766189575195,2.9201207160949707,0.3336637020111084
1771073350513653000,8.969653076171875,-5.71025276184082,2.4905850887298584,-0.4143866300582886
1771073350523593000,8.979593017578125,-4.174071311950684,1.792476773262024,-1.1483436822891235
1771073350533533000,8.989532958984375,-3.075072765350342,0.9321446418762207,-1.6753473281860352
1771073350543473000,8.999472900390625,-2.6149001121520996,0.0809624195098877,-2.016944408416748
1771073350553412900,9.009412841796875,-2.4837851524353027,-0.433316171169281,-2.3489811420440674
1771073350563352800,9.019352783203125,-2.050551414489746,-0.6985176801681519,-2.689307689666748
1771073350573292800,9.029292724609375,-0.8169431686401367,-0.9833096861839294,-2.9916017055511475
1771073350583232800,9.039232666015625,1.2062978744506836,-1.4072539806365967,-3.2387959957122803
1771073350593172700,9.0491728515625,2.814990997314453,-1.9315707683563232,-3.4410696029663086
1771073350603112700,9.05911279296875,3.488637924194336,-2.144951343536377,-3.1785542964935303
1771073350613052400,9.069052490234375,3.4529943466186523,-1.5382205247879028,-2.5528852939605713
1771073350622992400,9.078992431640625,3.32491397857666,-0.4323030710220337,-2.314070463180542
1771073350632932400,9.088932373046875,2.151906967163086,1.2094125747680664,-2.2716479301452637
1771073350642872300,9.098872314453125,0.45967674255371094,3.0784952640533447,-2.3052031993865967
1771073350652812300,9.108812255859375,-0.5393266677856445,4.373779296875,-2.3505430221557617
1771073350662752300,9.118752197265625,-0.03143310546875,4.340356349945068,-2.3560163974761963
1771073350672692200,9.128692138671875,1.5411853790283203,2.889763355255127,-1.8778513669967651
1771073350682632200,9.138632080078125,2.9677724838256836,1.3042019605636597,-0.8865841031074524
1771073350692572200,9.148572265625,4.569888114929199,0.575415849685669,-0.23332108557224274
1771073350702512000,9.15851220703125,6.528525352478027,0.43508756160736084,-0.05915951356291771
1771073350712452000,9.1684521484375,8.537571907043457,0.34584784507751465,0.14029471576213837
1771073350722392000,9.17839208984375,9.76575756072998,-0.21473276615142822,-0.03450032323598862
1771073350732332000,9.18833203125,9.915180206298828,-0.9715287685394287,-0.4674041271209717
1771073350742271700,9.198271728515625,9.100595474243164,-1.6714658737182617,-1.148741364479065
1771073350752211700,9.208211669921875,7.548072814941406,-2.1143715381622314,-1.8495354652404785
1771073350762151700,9.218151611328125,5.42051887512207,-2.1393284797668457,-2.321729898452759
1771073350772091600,9.228091552734375,3.3650646209716797,-1.9067318439483643,-2.469179153442383
1771073350791971600,9.2479716796875,-0.07727813720703125,-1.6912257671356201,-1.9337072372436523
1771073350801911600,9.25791162109375,-1.2537336349487305,-1.60343337059021,-1.4092596769332886
1771073350811851500,9.2678515625,-1.8971357345581055,-1.4966723918914795,-0.9018236398696899
1771073350821791500,9.27779150390625,-2.2181334495544434,-1.4621262550354004,-0.45763206481933594
1771073350831731500,9.2877314453125,-2.4289469718933105,-1.4616057872772217,-0.09544059634208679
1771073350841671400,9.29767138671875,-2.822511672973633,-1.5143013000488281,0.2132674753665924
1771073350851611400,9.307611328125,-3.483645439147949,-1.6321582794189453,0.49135905504226685
1771073350861551000,9.317551025390625,-4.41369104385376,-1.7676500082015991,0.7346807718276978
1771073350871491000,9.327490966796875,-5.401909828186035,-1.8248960971832275,0.9788981676101685
1771073350881431000,9.33743115234375,-6.441289901733398,-1.8337030410766602,1.2306442260742188
1771073350891371000,9.34737109375,-7.367514610290527,-1.6833547353744507,1.4641796350479126
1771073350901311000,9.35731103515625,-8.048023223876953,-1.3040101528167725,1.6997066736221313
1771073350911251000,9.3672509765625,-8.284041404724121,-0.8757741451263428,1.7564624547958374
1771073350921191000,9.37719091796875,-7.948948860168457,-0.8182422518730164,1.4204678535461426
1771073350931131000,9.387130859375,-6.872934341430664,-1.1643649339675903,1.1021283864974976
1771073350941070800,9.39707080078125,-5.480082988739014,-1.4903465509414673,1.0939031839370728
1771073350951010800,9.4070107421875,-3.8105292320251465,-1.766362190246582,1.2646386623382568
1771073350960950800,9.41695068359375,-1.98508882522583,-2.0466079711914062,1.2551037073135376
1771073350970890800,9.426890869140625,-0.6999263763427734,-2.3081209659576416,1.1695317029953003
1771073350980830700,9.436830810546875,-0.4851531982421875,-2.486346483230591,1.095365047454834
1771073350990770400,9.4467705078125,-1.1968269348144531,-2.4416372776031494,1.2859339714050293
1771073351000710400,9.45671044921875,-1.6867046356201172,-1.928807258605957,1.8706979751586914
1771073351010650400,9.466650390625,-1.700894832611084,-0.807030200958252,2.86777925491333
1771073351020590300,9.47659033203125,-0.7450838088989258,0.4953669309616089,3.6321158409118652
1771073351030530300,9.4865302734375,1.2592267990112305,1.6745002269744873,4.173761367797852
1771073351040470300,9.49647021484375,3.851846694946289,1.946719765663147,4.384223461151123
1771073351050410200,9.50641015625,5.1456298828125,1.4341509342193604,4.686649799346924
1771073351060350200,9.51635009765625,5.213039398193359,0.9033623933792114,5.150010585784912
1771073351070290200,9.526290283203124,4.247148513793945,0.5629022121429443,5.078401565551758
1771073351080230100,9.536230224609374,3.156405448913574,0.4926769733428955,4.496328353881836
1771073351090170000,9.546170166015624,2.3838815689086914,0.16661739349365234,3.5372393131256104
1771073351100110000,9.556110107421874,1.7200727462768555,-0.5474908947944641,2.4746856689453125
1771073351110050000,9.566050048828124,1.0403528213500977,-1.426749587059021,1.2072193622589111
1771073351119989800,9.57598974609375,0.6989526748657227,-2.1723556518554688,-0.1747717559337616
1771073351129929700,9.5859296875,0.7248668670654297,-2.5113346576690674,-1.2315740585327148
1771073351139869700,9.59586962890625,0.9128684997558594,-2.300011396408081,-1.5792956352233887
1771073351149809700,9.6058095703125,1.564131736755371,-1.4875925779342651,-1.1402618885040283
1771073351159749600,9.61574951171875,2.13070011138916,-0.5722724199295044,-0.4618396759033203
1771073351169689600,9.625689697265624,2.206110954284668,-0.06375932693481445,-0.19164744019508362
1771073351179629600,9.635629638671874,2.0124998092651367,-0.10373640060424805,-0.46301114559173584
1771073351189569500,9.645569580078124,1.8576154708862305,-0.3142375349998474,-1.0395350456237793
1771073351199509500,9.655509521484374,2.1232776641845703,-0.5867292284965515,-1.612259864807129
1771073351209449500,9.665449462890624,2.63519287109375,-0.9476984739303589,-2.069828987121582
1771073351219389400,9.675389404296874,3.4207077026367188,-1.3351715803146362,-2.4729485511779785
1771073351229329400,9.685329345703124,4.232229232788086,-1.4582993984222412,-2.6864185333251953
1771073351239269400,9.695269287109374,4.941184997558594,-1.2811529636383057,-2.7654123306274414
1771073351249209000,9.705208984375,5.205592155456543,-0.8806689977645874,-2.747730255126953
1771073351259149000,9.715149169921874,4.958532333374023,-0.5885982513427734,-2.835942506790161
1771073351269089000,9.725089111328124,3.703801155090332,-0.5238661766052246,-3.063123941421509
1771073351279029000,9.735029052734374,1.857436180114746,-0.531200647354126,-3.326373338699341
1771073351288969000,9.744968994140624,-0.21044540405273438,-0.449087917804718,-3.4297068119049072
1771073351298909000,9.754908935546876,-2.7438173294067383,-0.13371077179908752,-3.258694648742676
1771073351308849000,9.764848876953126,-5.58040189743042,0.4734094738960266,-2.6717991828918457
1771073351318788900,9.774788818359376,-8.12728214263916,1.3663570880889893,-1.6504790782928467
1771073351328728600,9.784728515625,-9.75374698638916,2.1946451663970947,-0.9180007576942444
1771073351338668500,9.79466845703125,-10.315733909606934,2.8224058151245117,-0.4848172664642334
1771073351348608500,9.8046083984375,-10.036871910095215,3.096843957901001,-0.27951616048812866
1771073351358548500,9.814548583984376,-8.810027122497559,2.8367092609405518,-0.213023379445076
1771073351368488200,9.82448828125,-6.955229759216309,2.192295551300049,-0.08048873394727707
1771073351378428200,9.83442822265625,-4.898890018463135,1.598413109779358,0.13957716524600983
1771073351388368100,9.8443681640625,-2.232309341430664,1.2257776260375977,0.30889588594436646
1771073351398307800,9.854307861328126,0.024397850036621094,0.7523607611656189,0.25907084345817566
1771073351408247800,9.864247802734376,1.59881591796875,0.04138857126235962,0.10567882657051086
1771073351418187800,9.874187744140626,2.474543571472168,-0.6477792263031006,-0.16314926743507385
1771073351428127700,9.884127685546876,2.510713577270508,-0.8798165917396545,-0.7026722431182861
1771073351438067500,9.8940673828125,2.032221794128418,-0.3116387128829956,-1.623105764389038
1771073351448007400,9.90400732421875,1.604055404663086,0.4526251554489136,-2.841611623764038
1771073351457947400,9.913947509765626,0.8884544372558594,1.344291090965271,-4.016867160797119
1771073351467887000,9.92388720703125,0.07050514221191406,2.2168078422546387,-4.697661399841309
1771073351477827000,9.9338271484375,-0.40385913848876953,2.8477623462677,-5.056488513946533
1771073351487767000,9.94376708984375,1.0504341125488281,3.025571823120117,-4.919425010681152
1771073351497707000,9.95370703125,3.3002443313598633,2.31015682220459,-3.6769282817840576
1771073351507646700,9.963646728515625,5.304474830627441,1.2471240758895874,-1.523998498916626
1771073351517586700,9.973586669921875,6.826324462890625,0.42100250720977783,0.5370897650718689
1771073351527526700,9.983526611328125,7.480093002319336,-0.25850462913513184,1.7726616859436035
1771073351547406300,10.00340625,7.80461311340332,-0.8610793352127075,2.1679067611694336
1771073351557346300,10.01334619140625,7.334783554077148,-1.3224347829818726,1.3289380073547363
1771073351567286300,10.023286376953125,6.484618186950684,-1.93608558177948,0.2274596393108368
1771073351577226000,10.03322607421875,5.601459503173828,-2.4634523391723633,-0.7466989159584045
1771073351587166000,10.043166015625,4.819409370422363,-2.762810468673706,-1.4882240295410156
1771073351597106000,10.05310595703125,4.016877174377441,-2.7940783500671387,-2.012155294418335
1771073351607046000,10.0630458984375,3.1489877700805664,-2.6866140365600586,-2.4162628650665283
1771073351616985600,10.072985595703125,2.137571334838867,-2.545273542404175,-2.6634528636932373
1771073351626925600,10.082925537109375,1.1125812530517578,-2.40861177444458,-2.6319901943206787
1771073351636865500,10.092865478515625,0.04603385925292969,-2.2417125701904297,-2.2472386360168457
1771073351646805500,10.102805419921875,-0.9898881912231445,-2.049945592880249,-1.5753469467163086
1771073351656745500,10.112745361328125,-2.1191587448120117,-1.750086784362793,-0.7136578559875488
1771073351666685400,10.122685546875,-3.2604641914367676,-1.3477321863174438,0.21033349633216858
1771073351676625400,10.13262548828125,-4.242043495178223,-0.9546992182731628,0.8931237459182739
1771073351686565400,10.1425654296875,-5.0140886306762695,-0.6733893156051636,1.1692068576812744
1771073351696505300,10.15250537109375,-5.779821395874023,-0.5301895141601562,1.272578239440918
1771073351706445300,10.1624453125,-6.508070945739746,-0.6098824739456177,1.4785090684890747
1771073351716385000,10.172385009765625,-7.371075630187988,-0.8422683477401733,1.869949460029602
1771073351726325000,10.182324951171875,-8.223690032958984,-1.1111235618591309,2.425950527191162
1771073351736265000,10.192264892578125,-8.69266414642334,-1.3331825733184814,2.856614351272583
1771073351746205000,10.202204833984375,-8.659306526184082,-1.4802699089050293,3.1367056369781494
1771073351756145000,10.212144775390625,-8.253119468688965,-1.64579176902771,3.37709641456604
1771073351766084900,10.2220849609375,-7.624146461486816,-1.9977288246154785,3.393798589706421
1771073351776024800,10.23202490234375,-6.5842061042785645,-2.272404909133911,3.355060338973999
1771073351785964800,10.24196484375,-5.575260162353516,-2.33056378364563,3.163374423980713
1771073351795904800,10.25190478515625,-4.2640604972839355,-2.2340099811553955,2.8472084999084473
1771073351805844700,10.2618447265625,-2.5661869049072266,-2.1131410598754883,2.7980401515960693
1771073351815784700,10.27178466796875,-0.578643798828125,-1.9210553169250488,3.081294059753418
1771073351825724700,10.281724609375,1.4017066955566406,-1.8333629369735718,3.065615653991699
1771073351835664600,10.29166455078125,3.752950668334961,-1.8340411186218262,2.174988269805908
1771073351845604400,10.301604248046875,5.507944107055664,-1.578169345855713,1.0340886116027832
1771073351855544300,10.31154443359375,5.342352867126465,-1.1437206268310547,0.954838216304779
1771073351865484300,10.321484375,3.218958854675293,-0.6131973266601562,2.185601234436035
1771073351875424300,10.33142431640625,1.2292146682739258,0.2003040313720703,3.6140825748443604
1771073351885364200,10.3413642578125,0.8102359771728516,0.9917066097259521,4.4537835121154785
1771073351895304200,10.35130419921875,1.8052301406860352,1.3530349731445312,5.007571220397949
1771073351915184000,10.37118408203125,4.654689788818359,-0.030656814575195312,5.025199890136719
1771073351925124000,10.3811240234375,5.904336929321289,-1.5852986574172974,3.898240089416504
1771073351935064000,10.39106396484375,6.9734697341918945,-2.966891050338745,2.190124034881592
1771073351945004000,10.401004150390625,7.729334831237793,-3.586017370223999,0.5052135586738586
1771073351954944000,10.410944091796875,7.490546226501465,-3.3757057189941406,-0.7206748127937317
1771073351964883700,10.4208837890625,6.340880393981934,-2.5808773040771484,-1.0723075866699219
1771073351974823700,10.43082373046875,4.344390869140625,-1.5523321628570557,-0.8515831828117371
1771073351984763600,10.440763671875,1.6969852447509766,-0.472959041595459,-0.524535059928894
1771073351994703600,10.45070361328125,-0.7534542083740234,0.4937622547149658,-0.4823850095272064
1771073352004643600,10.4606435546875,-2.0899906158447266,1.2013332843780518,-0.5984297394752502
1771073352014583600,10.47058349609375,-1.9912910461425781,1.3131295442581177,-0.8527063727378845
1771073352024523500,10.4805234375,-1.1238574981689453,0.9337712526321411,-0.9622776508331299
1771073352034463500,10.49046337890625,0.178863525390625,0.23345673084259033,-1.1747583150863647
1771073352044403500,10.500403564453125,1.021561622619629,-0.4362916946411133,-1.6553221940994263
1771073352054343400,10.510343505859375,1.526667594909668,-0.7701394557952881,-1.9334800243377686
1771073352064283400,10.520283447265625,1.561044692993164,-0.8939840197563171,-1.986091136932373
1771073352074223400,10.530223388671875,1.0037107467651367,-0.8097234964370728,-1.7870264053344727
1771073352084163300,10.540163330078125,0.06327438354492188,-0.5498745441436768,-1.4212028980255127
1771073352094103000,10.55010302734375,-1.7742209434509277,-0.42066800594329834,-1.2034916877746582
1771073352104043000,10.56004296875,-4.258791446685791,-0.23349857330322266,-0.9223062992095947
1771073352113983000,10.56998291015625,-6.256115913391113,0.04254031181335449,-0.6361588835716248
1771073352123923000,10.5799228515625,-7.248093128204346,0.21912932395935059,-0.5708978772163391
1771073352133863000,10.58986279296875,-8.042922973632812,0.0898745059967041,-0.8377253413200378
1771073352143803000,10.599802978515624,-9.120260238647461,-0.17821574211120605,-1.2627290487289429
1771073352153742800,10.609742919921874,-9.954120635986328,-0.3355187177658081,-1.6900016069412231
1771073352163682800,10.619682861328124,-9.598725318908691,-0.46929430961608887,-1.9703289270401
1771073352173622800,10.629622802734374,-7.692415237426758,-0.6956989765167236,-1.9623589515686035
1771073352183562800,10.639562744140624,-5.68897819519043,-0.8140698671340942,-1.8610005378723145
1771073352193502700,10.649502685546874,-2.9834117889404297,-1.052842378616333,-2.041490077972412
1771073352203442700,10.659442626953124,0.43639469146728516,-1.1582801342010498,-2.0731992721557617
1771073352213382700,10.669382568359374,3.1283321380615234,-1.0573090314865112,-2.0220301151275635
1771073352223322400,10.679322265625,3.9110116958618164,-0.848556399345398,-2.3070785999298096
1771073352233262300,10.689262451171874,2.5957794189453125,-0.7208813428878784,-2.8920722007751465
1771073352243202300,10.699202392578124,0.46874046325683594,-0.9898233413696289,-4.028206825256348
1771073352253142300,10.709142333984374,-0.1783895492553711,-1.0290215015411377,-5.019717216491699
1771073352263082200,10.719082275390624,0.9994716644287109,-0.8519909381866455,-5.417572498321533
1771073352273022200,10.729022216796874,2.775541305541992,-0.720639705657959,-5.288398265838623
1771073352282962200,10.738962158203124,3.8521080017089844,-0.4182337522506714,-4.14253044128418
1771073352292902100,10.748902099609374,4.428074836730957,-0.010776042938232422,-2.1181390285491943
1771073352302842000,10.758842041015624,4.834327697753906,0.39055609703063965,0.1248328685760498
1771073352322722000,10.77872216796875,3.9108381271362305,1.1592273712158203,3.3487696647644043
1771073352332662000,10.788662109375,3.308023452758789,1.5554487705230713,3.6943678855895996
1771073352342602000,10.79860205078125,3.996579170227051,1.5899055004119873,2.752939462661743
1771073352352541700,10.808541748046874,4.959628105163574,1.0429844856262207,0.9816219210624695
1771073352362481700,10.818481689453124,5.0743608474731445,0.26449286937713623,-0.4413644075393677
1771073352372421600,10.828421630859374,4.964557647705078,-0.3672586679458618,-1.3071668148040771
1771073352382361600,10.838361572265624,4.877157211303711,-0.7845805883407593,-2.109251022338867
1771073352392301600,10.848301513671874,4.631204605102539,-1.1079137325286865,-2.8203487396240234
1771073352402241500,10.858241455078126,4.177533149719238,-1.4626398086547852,-3.328218698501587
1771073352412181500,10.868181396484376,3.6892166137695312,-1.8482413291931152,-3.5687954425811768
1771073352422121500,10.87812158203125,3.577547073364258,-2.0808725357055664,-3.385402202606201
1771073352432061400,10.8880615234375,3.5814437866210938,-2.1085710525512695,-2.6243419647216797
1771073352442001400,10.89800146484375,3.156083106994629,-2.1801652908325195,-2.0110926628112793
1771073352451941400,10.90794140625,1.6621150970458984,-1.9956469535827637,-1.6688673496246338
1771073352461881300,10.91788134765625,-0.4303750991821289,-1.722590684890747,-0.9648112058639526
1771073352471821000,10.927821044921876,-1.6205644607543945,-1.2965054512023926,0.1018204391002655
1771073352481761000,10.937760986328126,-1.7434663772583008,-0.7520270347595215,0.9766882658004761
1771073352491701000,10.947700927734376,-1.5176630020141602,-0.3988366723060608,1.5441319942474365
1771073352501641000,10.957640869140626,-1.8678464889526367,-0.36058634519577026,1.8907911777496338
1771073352511581000,10.967580810546876,-2.6973094940185547,-0.6100172996520996,1.8399357795715332
1771073352521521000,10.97752099609375,-3.5206642150878906,-0.8918259143829346,1.797931432723999
1771073352531460900,10.9874609375,-4.312337398529053,-1.2329353094100952,1.6451334953308105
1771073352541400800,10.99740087890625,-4.829446315765381,-1.568004846572876,1.5044496059417725
1771073352551340800,11.0073408203125,-5.426452159881592,-1.6813194751739502,1.7007741928100586
1771073352561280800,11.01728076171875,-5.518076419830322,-1.423634648323059,2.2771294116973877
1771073352571220700,11.027220703125,-5.294370174407959,-0.9478183388710022,3.130552291870117
1771073352581160700,11.03716064453125,-5.031011581420898,-0.663724422454834,3.5352084636688232
1771073352591100700,11.0471005859375,-4.640188217163086,-0.5540530681610107,3.5501463413238525
1771073352601040400,11.057040283203126,-3.663926601409912,-0.5169649124145508,3.567389965057373
1771073352610980400,11.06698046875,-1.828629970550537,-0.6153199672698975,3.358609437942505
1771073352620920300,11.07692041015625,0.24177932739257812,-0.9179231524467468,2.7217493057250977
1771073352630860300,11.0868603515625,2.1652297973632812,-1.1396042108535767,1.1781498193740845
1771073352640800300,11.09680029296875,2.8185577392578125,-0.4305521249771118,0.16117331385612488
1771073352650740200,11.106740234375,1.4340572357177734,0.28760528564453125,0.5226914882659912
1771073352670620200,11.1266201171875,-5.097533226013184,1.6387386322021484,2.8313324451446533
1771073352680560000,11.13656005859375,-5.426779747009277,4.059973239898682,3.38856840133667
1771073352690500000,11.1465,-1.829786777496338,4.609469413757324,4.957042217254639
1771073352700440000,11.156440185546876,1.486104965209961,3.61086368560791,5.7590837478637695
1771073352710380000,11.166380126953126,3.716864585876465,1.0352184772491455,5.584010601043701
1771073352720320000,11.176320068359376,3.973155975341797,-1.2449061870574951,3.1671626567840576
1771073352730259700,11.186259765625,4.828310966491699,-2.5907132625579834,0.6557744741439819
1771073352740199700,11.19619970703125,5.9308061599731445,-3.08092999458313,-0.7563599348068237
1771073352750139600,11.2061396484375,6.401115417480469,-2.372612953186035,-1.1020281314849854
1771073352760079400,11.216079345703125,6.227428436279297,-2.011411428451538,-0.857365071773529
1771073352770019300,11.226019287109375,6.047615051269531,-2.1771769523620605,-0.4870997667312622
1771073352779959300,11.235959228515625,6.429230690002441,-2.2221555709838867,-0.22565904259681702
1771073352789899300,11.245899169921875,7.24887752532959,-1.7422974109649658,0.058158814907073975
1771073352799839000,11.2558388671875,6.715667724609375,-1.3608261346817017,-0.42773348093032837
1771073352809779000,11.265779052734375,4.795784950256348,-1.2537096738815308,-1.2292582988739014
1771073352819719000,11.275718994140625,2.557074546813965,-1.0524780750274658,-1.7167837619781494
1771073352829658600,11.28565869140625,0.9904308319091797,-0.8894872665405273,-2.1788570880889893
1771073352839598600,11.2955986328125,-0.11906623840332031,-1.0881335735321045,-2.7792410850524902
1771073352849538600,11.30553857421875,-0.9295377731323242,-1.4649373292922974,-3.2300710678100586
1771073352859478500,11.315478515625,-1.8182992935180664,-1.6680865287780762,-3.066429853439331
1771073352869418200,11.325418212890625,-2.9091782569885254,-1.6280895471572876,-2.595442533493042
1771073352879358200,11.335358154296875,-4.189610481262207,-1.5065538883209229,-1.9332222938537598
1771073352889298200,11.345298095703125,-5.10297966003418,-1.223085641860962,-0.9185258746147156
1771073352899238000,11.35523779296875,-5.402233123779297,-0.6072996854782104,0.6696490049362183
1771073352909177900,11.365177734375,-5.375772476196289,0.27373337745666504,2.376455545425415
1771073352919117800,11.375117919921875,-5.4137349128723145,1.007122278213501,3.432631731033325
1771073352929057800,11.385057861328125,-5.943528175354004,1.398381233215332,3.8293819427490234
1771073352938997500,11.39499755859375,-6.668241500854492,1.440006971359253,3.547980308532715
1771073352948937500,11.4049375,-7.112977504730225,1.1659555435180664,2.797380208969116
1771073352958877400,11.41487744140625,-6.727812767028809,0.5671157836914062,1.5328749418258667
1771073352968817200,11.424817138671875,-5.360000133514404,-0.4370797872543335,-0.04750046133995056
1771073352978757000,11.434757080078125,-3.6421942710876465,-1.87788724899292,-1.5964326858520508
1771073352988697000,11.444697021484375,-2.263021469116211,-2.735041856765747,-2.0941483974456787
1771073352998637000,11.454636962890625,-1.025172233581543,-3.3907084465026855,-1.9329090118408203
1771073353008576800,11.46457666015625,-0.14948749542236328,-3.7541019916534424,-1.3048484325408936
1771073353018516700,11.474516845703125,1.0218610763549805,-3.270486831665039,-0.6890681385993958
1771073353028456700,11.484456787109375,2.432133674621582,-2.411193370819092,-1.052986741065979
1771073353038396700,11.494396728515625,3.454639434814453,-2.0031087398529053,-2.6660008430480957
1771073353048336600,11.504336669921875,4.152736663818359,-1.9879891872406006,-4.921613693237305
1771073353058276600,11.514276611328125,3.4961366653442383,-1.6365587711334229,-6.319070339202881
1771073353068216300,11.52421630859375,1.4354028701782227,-0.8418735265731812,-6.77554988861084
1771073353078156300,11.53415625,-1.096217155456543,0.5930135250091553,-6.355676651000977
1771073353088096300,11.54409619140625,-2.705043315887451,2.4828805923461914,-5.124935626983643
1771073353098036200,11.5540361328125,-2.0565733909606934,3.4435160160064697,-3.5653438568115234
1771073353107976200,11.56397607421875,-0.2865447998046875,3.0433409214019775,-1.8754850625991821
1771073353117916200,11.573916259765625,1.3457403182983398,2.4356837272644043,-0.3876386880874634
1771073353127856000,11.583856201171875,2.9131879806518555,1.9321844577789307,0.24649405479431152
1771073353137796000,11.593796142578125,4.498205184936523,1.5061759948730469,0.06629312038421631
1771073353147736000,11.603736083984375,5.868466377258301,1.0968551635742188,-0.564124345779419
1771073353157676000,11.613676025390625,6.4973297119140625,0.5833556652069092,-1.4353103637695312
1771073353167616000,11.623615966796875,6.45709228515625,-0.14349985122680664,-2.334531784057617
1771073353177556000,11.633555908203125,5.916886329650879,-0.8009898662567139,-2.9278411865234375
1771073353187496000,11.643495849609375,4.872589111328125,-1.1711480617523193,-3.1505074501037598
1771073353197435600,11.653435546875,3.687117576599121,-1.188295841217041,-2.970611333847046
1771073353207375600,11.663375732421875,2.7059011459350586,-0.9808942079544067,-2.331267833709717
1771073353217315600,11.673315673828125,2.2508554458618164,-0.8831903338432312,-1.480751872062683
1771073353227255600,11.683255615234375,2.262430191040039,-0.8352210521697998,-0.28159528970718384
1771073353237195500,11.693195556640624,2.077301025390625,-0.8732330203056335,0.7366928458213806
1771073353247135500,11.703135498046874,1.3484525680541992,-0.959232747554779,1.2360461950302124
1771073353257075500,11.713075439453124,0.2856884002685547,-1.013808250427246,1.4399864673614502
1771073353267015400,11.723015380859374,-1.169647216796875,-1.1002146005630493,1.4097025394439697
1771073353276955400,11.732955322265624,-3.026759147644043,-1.1481776237487793,1.240488052368164
1771073353286895400,11.742895263671874,-5.107122898101807,-0.9990963935852051,1.257847547531128
1771073353296835300,11.75283544921875,-7.128419399261475,-0.811660885810852,1.6337924003601074
1771073353306775300,11.762775390625,-8.86014175415039,-0.6448055505752563,2.101118564605713
1771073353316715300,11.77271533203125,-9.723642349243164,-0.51387619972229,2.318711757659912
1771073353326655000,11.782655029296874,-9.70383071899414,-0.7412856817245483,2.1725685596466064
1771073353336595000,11.792594970703124,-8.691034317016602,-1.4007456302642822,1.8237183094024658
1771073353346535000,11.802534912109374,-7.379519939422607,-2.217949390411377,1.5536402463912964
1771073353356475000,11.812474853515624,-6.162735939025879,-2.7852988243103027,1.6567407846450806
1771073353366414800,11.822414794921874,-4.803722381591797,-3.0768942832946777,1.7939265966415405
1771073353376354800,11.832354736328124,-3.4912257194519043,-2.9808452129364014,1.9049867391586304
1771073353386294800,11.842294677734374,-2.7777304649353027,-2.672163486480713,1.9468132257461548
1771073353396234800,11.85223486328125,-2.27036190032959,-2.2035789489746094,2.040055990219116
1771073353406174700,11.8621748046875,-0.8918972015380859,-1.7443565130233765,2.305767059326172
1771073353416114700,11.87211474609375,1.375746726989746,-1.6142255067825317,2.482154369354248
1771073353426054700,11.8820546875,3.932868003845215,-1.531967282295227,1.9955737590789795
1771073353435994600,11.89199462890625,5.677628517150879,-1.2709447145462036,1.0674843788146973
1771073353445934300,11.901934326171874,6.5353288650512695,-1.0982248783111572,1.2579963207244873
1771073353455874300,11.911874267578124,5.677654266357422,-0.7180291414260864,2.6127121448516846
1771073353465814300,11.921814208984374,3.4597816467285156,0.7865488529205322,4.941644191741943
1771073353475754200,11.931754150390624,1.2519264221191406,2.8141369819641113,6.570140838623047
1771073353485694200,11.941694091796874,0.939117431640625,3.9978480339050293,6.700483322143555
1771073353495634200,11.95163427734375,2.9446563720703125,2.9977710247039795,5.449099063873291
1771073353505574100,11.96157421875,4.755578994750977,0.6639193296432495,4.134078502655029
1771073353515514000,11.97151416015625,5.623212814331055,-1.3079750537872314,3.0191519260406494
1771073353525454000,11.9814541015625,5.731574058532715,-2.4490017890930176,1.842449426651001
1771073353535394000,11.99139404296875,5.372264862060547,-2.769683361053467,0.6053300499916077
1771073353545334000,12.001333984375,4.605116844177246,-2.48188853263855,-0.2941494584083557
1771073353555274000,12.01127392578125,3.6387929916381836,-2.244175910949707,-0.7389581799507141
1771073353565214000,12.0212138671875,2.6187973022460938,-2.199296712875366,-0.896126389503479
1771073353575153700,12.031153564453126,1.790578842163086,-2.0763678550720215,-0.9365273118019104
1771073353585093600,12.04109375,1.396265983581543,-1.5658494234085083,-0.8263664841651917
1771073353595033600,12.05103369140625,1.3257570266723633,-0.8705185651779175,-0.7729464769363403
1771073353604973600,12.0609736328125,1.5410566329956055,-0.5112204551696777,-0.9665374159812927
1771073353614913500,12.07091357421875,1.7110891342163086,-0.4272749423980713,-1.1195355653762817
1771073353624853500,12.080853515625,1.578068733215332,-0.4416165351867676,-0.9288451671600342
1771073353634793500,12.09079345703125,1.100442886352539,-0.3575127124786377,-0.4111780822277069
1771073353644733400,12.1007333984375,0.1394519805908203,-0.00804126262664795,0.26576903462409973
1771073353654673400,12.11067333984375,-0.8871288299560547,0.324934720993042,0.6769701838493347
1771073353664613400,12.12061328125,-2.0553879737854004,0.6443781852722168,0.8905622959136963
1771073353674553300,12.13055322265625,-3.2078309059143066,1.0242376327514648,0.9809503555297852
1771073353684493300,12.140493408203126,-4.137759208679199,1.3305538892745972,0.8770346641540527
1771073353694433300,12.150433349609376,-4.79176664352417,1.4430068731307983,0.5453903675079346
1771073353704373000,12.160373046875,-5.300295352935791,1.3555353879928589,0.022270619869232178
1771073353714313000,12.17031298828125,-5.256070137023926,1.0307440757751465,-0.697168231010437
1771073353724253000,12.1802529296875,-4.503065586090088,0.4013117551803589,-1.4439752101898193
1771073353734193000,12.19019287109375,-3.534273147583008,-0.3508846163749695,-1.8796679973602295
1771073353744132900,12.2001328125,-2.969658851623535,-0.7849851846694946,-1.8431501388549805
1771073353754072800,12.21007275390625,-2.34836483001709,-0.9354283213615417,-1.6229989528656006
1771073353764012800,12.2200126953125,-1.6912827491760254,-0.7410102486610413,-1.3026845455169678
1771073353773952800,12.229952880859376,-0.8070755004882812,-0.4934443235397339,-1.150765061378479
1771073353783892700,12.239892822265626,0.17998123168945312,-0.4957648813724518,-1.032944679260254
1771073353793832700,12.249832763671876,1.2677040100097656,-0.7181679010391235,-0.858709990978241
1771073353803772700,12.259772705078126,2.1507034301757812,-1.0745272636413574,-0.7378662824630737
1771073353813712600,12.269712646484376,2.28554630279541,-1.479886531829834,-0.9029929041862488
1771073353823652600,12.279652587890626,1.96575927734375,-1.679784893989563,-1.6640431880950928
1771073353833592300,12.28959228515625,1.7180347442626953,-1.5707926750183105,-3.0232319831848145
1771073353843532300,12.2995322265625,1.3992576599121094,-1.230060338973999,-4.621358871459961
1771073353853472300,12.30947216796875,0.6679697036743164,-0.527671754360199,-5.91086483001709
1771073353863412200,12.319412109375,-0.7271862030029297,0.5054855346679688,-6.25876522064209
1771073353873352200,12.329352294921875,-2.1208295822143555,1.663299322128296,-6.07553768157959
1771073353883292200,12.339292236328125,-2.212850570678711,2.773414373397827,-5.7858452796936035
1771073353893232000,12.349232177734375,0.10445499420166016,2.970353126525879,-5.270942687988281
1771073353903172000,12.359172119140625,2.719244956970215,1.9873085021972656,-3.4814653396606445
1771073353913112000,12.369112060546875,4.9782609939575195,0.7537261247634888,-1.5078482627868652
1771073353923052000,12.379052001953125,6.516014099121094,-0.0329667329788208,0.015788614749908447
1771073353932992000,12.388991943359375,7.219892501831055,-0.29331815242767334,1.10300874710083
1771073353942932000,12.398931884765625,6.742055892944336,-0.26392459869384766,1.2442072629928589
1771073353952871700,12.40887158203125,4.8667402267456055,0.09135723114013672,1.0441279411315918
1771073353962811600,12.418811767578125,2.612889289855957,0.4818594455718994,0.6079293489456177
1771073353972751600,12.428751708984375,1.0320425033569336,0.3481409549713135,-0.15562275052070618
1771073353982691600,12.438691650390625,0.9126567840576172,-0.21275198459625244,-0.8764752149581909
1771073353992631600,12.448631591796875,1.7935028076171875,-0.9147316217422485,-1.4717962741851807
1771073354002571500,12.458571533203125,2.671759605407715,-1.4582635164260864,-1.816094994544983
1771073354012511500,12.468511474609375,3.4026079177856445,-2.0518226623535156,-2.2242467403411865
1771073354022451500,12.478451416015625,3.6718854904174805,-2.7164502143859863,-2.685333013534546
1771073354032391400,12.488391357421875,3.5329885482788086,-3.2705421447753906,-2.9339940547943115
1771073354042331400,12.498331298828125,3.021542549133301,-3.5547399520874023,-2.8567545413970947
1771073354052271400,12.508271240234375,2.098202705383301,-3.512666940689087,-2.4451804161071777
1771073354062211300,12.51821142578125,1.0814037322998047,-3.309875011444092,-1.9196608066558838
1771073354072151300,12.5281513671875,0.17425155639648438,-3.21662974357605,-1.4945768117904663
1771073354082091000,12.538091064453125,-0.9434652328491211,-3.1475682258605957,-1.0214704275131226
1771073354092031000,12.548031005859375,-2.2641544342041016,-3.114769697189331,-0.5031170845031738
1771073354101971000,12.557970947265625,-3.7181406021118164,-3.109590530395508,0.06180432438850403
1771073354111911000,12.567910888671875,-5.2292094230651855,-3.1244754791259766,0.6964564323425293
1771073354121851000,12.577850830078125,-6.633330345153809,-3.172137498855591,1.2449476718902588
1771073354131790800,12.587790771484375,-7.827108383178711,-3.2402689456939697,1.614306926727295
1771073354141730800,12.597730712890625,-8.580947875976562,-3.2032055854797363,1.9240217208862305
1771073354151670500,12.60767041015625,-8.887602806091309,-3.109945297241211,2.1471266746520996
1771073354161610500,12.617610595703125,-9.148144721984863,-3.088986873626709,2.381335973739624
1771073354171550500,12.627550537109375,-9.511903762817383,-2.94710373878479,2.9855241775512695
1771073354181490200,12.637490234375,-9.9105806350708,-2.772116184234619,3.7050528526306152
1771073354191430100,12.64743017578125,-9.995993614196777,-2.556588649749756,4.431687831878662
1771073354201370000,12.6573701171875,-9.577662467956543,-2.0031189918518066,5.335661888122559
1771073354211310000,12.66731005859375,-8.448474884033203,-1.1660895347595215,6.193329334259033
1771073354221249800,12.677249755859375,-6.768833160400391,-0.5168887376785278,6.526256561279297
1771073354231189800,12.687189697265625,-5.002572059631348,-0.30184030532836914,5.86127233505249
1771073354241129700,12.697129638671875,-2.7816524505615234,-0.21735751628875732,3.910543203353882
1771073354251069400,12.7070693359375,0.13817596435546875,0.06220376491546631,2.118410587310791
1771073354261009400,12.717009521484375,3.472471237182617,-0.011621475219726562,1.6138525009155273
1771073354270949400,12.726949462890625,5.071681976318359,-0.32186663150787354,2.540720224380493
1771073354280889300,12.736889404296875,4.603504180908203,0.1336979866027832,4.151665210723877
1771073354290829000,12.7468291015625,3.781747817993164,1.6440716981887817,5.784815788269043
1771073354300769000,12.75676904296875,3.8436479568481445,3.0580899715423584,6.109983921051025
1771073354310709000,12.766708984375,4.50264835357666,3.1593308448791504,5.713860034942627
