time,seconds_elapsed,z,y,x
1771073341657160700,0.11316064453125,-0.16897743940353394,0.01784316636621952,-0.07962846010923386
1771073341667088000,0.123087890625,-0.15939007699489594,0.03169159218668938,-0.11691268533468246
1771073341686947600,0.142947509765625,-0.11358373612165451,0.044474758207798004,-0.19680745899677277
1771073341696880400,0.15288037109375,-0.08056056499481201,0.056192658841609955,-0.21172115206718445
1771073341706815700,0.162815673828125,-0.052863709628582,0.05832318589091301,-0.20639483630657196
1771073341716753400,0.17275341796875,-0.039015281945466995,0.05832318589091301,-0.1904158741235733
1771073341726694000,0.18269384765625,-0.03368896245956421,0.0732368752360344,-0.17017586529254913
1771073341736636400,0.192636474609375,-0.031558435410261154,0.10199899226427078,-0.148870587348938
1771073341746581200,0.202581298828125,-0.030493171885609627,0.1201084777712822,-0.14247901737689972
1771073341756527900,0.21252783203125,-0.027297381311655045,0.12543480098247528,-0.15632744133472443
1771073341766476300,0.222476318359375,-0.01771000772714615,0.13715268671512604,-0.17337165772914886
1771073341776425500,0.232425537109375,-0.003861580742523074,0.14993585646152496,-0.1765674501657486
1771073341786375700,0.242375732421875,0.0025300011038780212,0.1627190262079239,-0.17443692684173584
1771073341796326100,0.252326171875,0.0035952648613601923,0.17017586529254913,-0.1669800728559494
1771073341806273300,0.262273193359375,0.006791055668145418,0.17976324260234833,-0.148870587348938
1771073341816213200,0.272213134765625,0.009986846707761288,0.20319904386997223,-0.14141374826431274
1771073341826153200,0.2821533203125,0.0153131652623415,0.23089589178562164,-0.1573926955461502
1771073341836093200,0.29209326171875,0.024900536984205246,0.2564622163772583,-0.18189376592636108
1771073341846033200,0.302033203125,0.033422645181417465,0.2692453861236572,-0.20532956719398499
1771073341855972900,0.311972900390625,0.0366184376180172,0.27350643277168274,-0.21704746782779694
1771073341865912800,0.321912841796875,0.03555317223072052,0.2745717167854309,-0.2095906287431717
1771073341875852800,0.331852783203125,0.03129211813211441,0.27670222520828247,-0.1904158741235733
1771073341885792500,0.34179248046875,0.029161592945456505,0.28735485672950745,-0.15952323377132416
1771073341895732500,0.351732421875,0.033422645181417465,0.28628960251808167,-0.13289164006710052
1771073341905672400,0.36167236328125,0.04194475710391998,0.2671148478984833,-0.1201084777712822
1771073341915612400,0.3716123046875,0.05259739235043526,0.2287653684616089,-0.12756532430648804
1771073341925552000,0.38155224609375,0.06431528925895691,0.19254639744758606,-0.1478053331375122
1771073341935492000,0.3914921875,0.07283740490674973,0.1861548274755478,-0.16804534196853638
1771073341945432000,0.40143212890625,0.06964161247015,0.18295903503894806,-0.18722008168697357
1771073341955372000,0.4113720703125,0.05472791939973831,0.16591481864452362,-0.20319904386997223
1771073341965311700,0.421311767578125,0.033422645181417465,0.13608743250370026,-0.2095906287431717
1771073341975251700,0.431251708984375,0.02277000993490219,0.11478215456008911,-0.19361166656017303
1771073341985191700,0.441191650390625,0.025965800508856773,0.11691268533468246,-0.15100112557411194
1771073341995131400,0.45113134765625,0.03874896466732025,0.1435442715883255,-0.09773793816566467
1771073342005071400,0.4610712890625,0.05792371183633804,0.16911059617996216,-0.06151897460222244
1771073342015011300,0.47101123046875,0.07496792823076248,0.17443692684173584,-0.04340949282050133
1771073342024951300,0.480951416015625,0.09414267539978027,0.17017586529254913,-0.044474758207798004
1771073342034891000,0.49089111328125,0.11757847666740417,0.15845796465873718,-0.06258423626422882
1771073342044831000,0.5008310546875,0.1452753245830536,0.15526217222213745,-0.08602003753185272
1771073342054771000,0.51077099609375,0.17403744161128998,0.13608743250370026,-0.0966726765036583
1771073342064710700,0.520710693359375,0.20386482775211334,0.09560741484165192,-0.0870852991938591
1771073342074650600,0.530650634765625,0.2251701056957245,0.06897582113742828,-0.06151897460222244
1771073342084590600,0.540590576171875,0.23262694478034973,0.05725792050361633,-0.035952646285295486
1771073342094530600,0.550530517578125,0.22836589813232422,0.0774979293346405,-0.007190529722720385
1771073342104470300,0.56047021484375,0.22623535990715027,0.16484954953193665,0.03009369783103466
1771073342114410200,0.57041015625,0.2390185296535492,0.28202855587005615,0.06418213248252869
1771073342124350200,0.58035009765625,0.26458486914634705,0.38109806180000305,0.07376950979232788
1771073342134290000,0.5902900390625,0.29228171706199646,0.4492749273777008,0.03435475379228592
1771073342144230000,0.60022998046875,0.31145647168159485,0.4865591824054718,-0.05299686640501022
1771073342154169900,0.610169921875,0.3199785649776459,0.4631233811378479,-0.17869797348976135
1771073342164109800,0.62010986328125,0.30719539523124695,0.3747064769268036,-0.337422251701355
1771073342174049500,0.630049560546875,0.2709764242172241,0.25007063150405884,-0.5195823311805725
1771073342183989500,0.639989501953125,0.23262694478034973,0.15632744133472443,-0.6996119022369385
1771073342193929500,0.649929443359375,0.1921469271183014,0.10839057713747025,-0.8402267098426819
1771073342203869400,0.659869384765625,0.15486270189285278,0.1009337306022644,-0.9137299060821533
1771073342213809400,0.669809326171875,0.12503531575202942,0.14141374826431274,-0.9041424989700317
1771073342223749400,0.679749267578125,0.1069258376955986,0.148870587348938,-0.8231824636459351
1771073342233689300,0.689689453125,0.10373004525899887,0.11478215456008911,-0.6985466480255127
1771073342243629300,0.69962939453125,0.12290479242801666,0.0913463607430458,-0.5472791790962219
1771073342253569300,0.7095693359375,0.1772332340478897,0.14674006402492523,-0.37151068449020386
1771073342263509200,0.71950927734375,0.2763027548789978,0.32996541261672974,-0.18828535079956055
1771073342273449200,0.72944921875,0.41159123182296753,0.5898897647857666,-0.01784316636621952
1771073342283389000,0.739388916015625,0.5905555486679077,0.8881635665893555,0.10466215014457703
1771073342293329000,0.749328857421875,0.8462188243865967,1.284441590309143,0.16964323818683624
1771073342303268900,0.759268798828125,1.231844186782837,1.6721975803375244,0.17070849239826202
1771073342313208800,0.769208740234375,1.7943034172058105,2.0237345695495605,0.032224226742982864
1771073342323148800,0.779148681640625,2.212952136993408,2.3475747108459473,-0.13076111674308777
1771073342333088800,0.7890888671875,2.233191967010498,2.408294677734375,-0.1627190262079239
1771073342343028700,0.79902880859375,2.128796339035034,2.4019031524658203,-0.3597927987575531
1771073342352968700,0.80896875,1.8358486890792847,2.4008378982543945,-0.4972118139266968
1771073342362908700,0.81890869140625,1.6025559902191162,2.364619016647339,-0.5398223400115967
1771073342372848600,0.8288486328125,1.4459621906280518,2.234656810760498,-0.6101297736167908
1771073342382788600,0.83878857421875,1.2904337644577026,1.9214693307876587,-0.6538055539131165
1771073342392728600,0.848728515625,1.2680631875991821,1.5752586126327515,-0.6740455627441406
1771073342402668500,0.85866845703125,1.256345272064209,1.158740520477295,-0.5483444333076477
1771073342412608300,0.868608154296875,1.1849726438522339,0.7326350808143616,-0.2564622163772583
1771073342422548200,0.87854833984375,1.0848379135131836,0.318247526884079,0.15046848356723785
1771073342432488200,0.88848828125,0.9857683181762695,-0.08122635632753372,0.5957486629486084
1771073342442428200,0.89842822265625,0.8803072571754456,-0.48922231793403625,1.0218541622161865
1771073342452368100,0.9083681640625,0.7652587890625,-0.8865656852722168,1.3861743211746216
1771073342462308000,0.91830810546875,0.6704503297805786,-1.212536334991455,1.656751275062561
1771073342472248000,0.928248046875,0.6278397440910339,-1.505483865737915,1.8559556007385254
1771073342482188000,0.93818798828125,0.6470144987106323,-1.7494292259216309,2.027462959289551
1771073342492128000,0.9481279296875,0.6960166096687317,-1.9220019578933716,2.1776652336120605
1771073342502068000,0.95806787109375,0.7418229579925537,-2.0445072650909424,2.284191608428955
1771073342512008000,0.968008056640625,0.5138565301895142,-1.86980402469635,1.5992270708084106
1771073342521948000,0.977947998046875,0.14740586280822754,-1.7270586490631104,0.9941573143005371
1771073342531887600,0.9878876953125,0.06751108169555664,-1.6333154439926147,0.5542033910751343
1771073342541827600,0.99782763671875,-0.08375635743141174,-1.2519510984420776,0.2697780132293701
1771073342551767600,1.007767578125,-0.27124276757240295,-0.823715090751648,0.12064110487699509
1771073342561707500,1.01770751953125,-0.38948702812194824,-0.37097805738449097,0.11851058155298233
1771073342571647500,1.0276474609375,-0.4427502155303955,0.1478053331375122,0.21544957160949707
1771073342581587500,1.03758740234375,-0.4384891390800476,0.6697844862937927,0.3326285779476166
1771073342591527400,1.04752734375,-0.3575291037559509,1.0564751625061035,0.43276336789131165
1771073342601467400,1.05746728515625,-0.18708692491054535,1.262071132659912,0.5328981280326843
1771073342611407400,1.067407470703125,0.03235738351941109,1.2524837255477905,0.672447681427002
1771073342621347300,1.077347412109375,0.26884591579437256,1.0053426027297974,0.8929572701454163
1771073342631287300,1.087287353515625,0.48083338141441345,0.4908202290534973,1.1773825883865356
1771073342641227300,1.097227294921875,0.6118608117103577,-0.2644517123699188,1.4330458641052246
1771073342651167200,1.107167236328125,0.5671197175979614,-1.2700605392456055,1.540637493133545
1771073342661107000,1.11710693359375,0.33595752716064453,-2.160620927810669,1.4841785430908203
1771073342671047000,1.127046875,0.017443692311644554,-0.9376983046531677,1.0591384172439575
1771073342680987000,1.13698681640625,-0.1700427085161209,-0.34221595525741577,0.6905571818351746
1771073342690926800,1.1469267578125,-0.04860265180468559,-0.47111284732818604,0.4551338851451874
1771073342700866800,1.15686669921875,0.16551533341407776,0.2095906287431717,0.1664474457502365
1771073342710806800,1.166806884765625,0.35300174355506897,0.4269044101238251,-0.1296958476305008
1771073342720746800,1.176746826171875,0.4648544192314148,0.2756369709968567,-0.4631233811378479
1771073342730686700,1.186686767578125,0.41478702425956726,0.0018642114009708166,-0.806138277053833
1771073342740626700,1.196626708984375,0.20919114351272583,-0.31451907753944397,-1.1022815704345703
1771073342750566700,1.206566650390625,-0.08482161909341812,-0.6404897570610046,-1.284441590309143
1771073342760506600,1.216506591796875,-0.3884217441082001,-1.0026793479919434,-1.3142690658569336
1771073342770446600,1.226446533203125,-0.6621944904327393,-1.3488900661468506,-1.1864373683929443
1771073342780386600,1.236386474609375,-0.8784430027008057,-1.615206003189087,-0.9211867451667786
1771073342790326300,1.246326171875,-1.0318410396575928,-1.7675386667251587,-0.5994771122932434
1771073342800266200,1.256266357421875,-1.1330410242080688,-1.8495639562606812,-0.33422645926475525
1771073342810206200,1.266206298828125,-1.1777820587158203,-1.8591513633728027,-0.2191779911518097
1771073342820146200,1.276146240234375,-1.1543463468551636,-1.7142754793167114,-0.28202855587005615
1771073342830086100,1.286086181640625,-1.073386311531067,-1.4330458641052246,-0.504668653011322
1771073342840026000,1.296026123046875,-0.9700556993484497,-1.13370680809021,-0.8221172094345093
1771073342849966000,1.305966064453125,-0.8848345875740051,-0.8258456587791443,-1.1555447578430176
1771073342859906000,1.315906005859375,-0.8241145610809326,-0.5371592044830322,-1.4463616609573364
1771073342869846000,1.325845947265625,-0.7708513736724854,-0.32410645484924316,-1.6721975803375244
1771073342879786000,1.335785888671875,-0.721849262714386,-0.24634221196174622,-1.8255956172943115
1771073342889726000,1.345725830078125,-0.700543999671936,-0.284691721200943,-1.904425024986267
1771073342899665700,1.355665771484375,-0.7186535000801086,-0.3368896245956421,-1.9108166694641113
1771073342909605600,1.365605712890625,-0.7868303656578064,-0.349672794342041,-1.8564882278442383
1771073342919545600,1.375545654296875,-0.9114661812782288,-0.3091927766799927,-1.753157615661621
1771073342929485600,1.385485595703125,-1.0701904296875,-0.17923060059547424,-1.6082817316055298
1771073342939425300,1.39542529296875,-1.2182620763778687,0.0018642114009708166,-1.4335784912109375
1771073342949365200,1.405365234375,-1.3183969259262085,0.20746009051799774,-1.2482227087020874
1771073342959305200,1.41530517578125,-1.2374368906021118,0.5302349925041199,-1.213068962097168
1771073342969245000,1.425244873046875,-1.1543463468551636,0.7113298177719116,-1.0841721296310425
1771073342979185000,1.435184814453125,-1.1660642623901367,0.7677887678146362,-0.8934898972511292
1771073342989124900,1.445124755859375,-1.0936262607574463,0.6218476295471191,-0.7582014203071594
1771073342999064800,1.45506494140625,-0.9743167757987976,0.3406180441379547,-0.6985466480255127
1771073343009004500,1.465004638671875,-0.8752472400665283,0.04767054691910744,-0.6676539778709412
1771073343018944500,1.474944580078125,-0.7900261282920837,-0.20799273252487183,-0.6197171211242676
1771073343028884500,1.484884521484375,-0.7239798307418823,-0.40080544352531433,-0.5494097471237183
1771073343038824200,1.49482421875,-0.6845650672912598,-0.5414202213287354,-0.46205809712409973
1771073343048764200,1.50476416015625,-0.6685860753059387,-0.6436855792999268,-0.34807488322257996
1771073343058704100,1.5147041015625,-0.6739124059677124,-0.7139929533004761,-0.2181127369403839
1771073343068644000,1.52464404296875,-0.7058703303337097,-0.689491868019104,-0.08282424509525299
1771073343078583800,1.534583740234375,-0.7740471959114075,-0.559529721736908,0.05779055133461952
1771073343088523800,1.544523681640625,-0.8741819858551025,-0.3592601716518402,0.18455693125724792
1771073343098463700,1.554463623046875,-0.9817736148834229,-0.15472954511642456,0.29108327627182007
1771073343108403500,1.564403564453125,-1.0542114973068237,0.0050600022077560425,0.3869570195674896
1771073343118343400,1.574343505859375,-1.053146243095398,0.16165375709533691,0.49348339438438416
1771073343128283400,1.584283447265625,-0.9540767669677734,0.3470096290111542,0.629837155342102
1771073343138223400,1.594223388671875,-0.7665903568267822,0.4546012580394745,0.7821698188781738
1771073343148163000,1.6041630859375,-0.5194491744041443,0.5419528484344482,0.8801741003990173
1771073343158103000,1.61410302734375,-0.25313326716423035,0.5515402555465698,0.8716519474983215
1771073343168043000,1.62404296875,0.012117373757064342,0.5227781534194946,0.7384940385818481
1771073343177982700,1.633982666015625,0.26458486914634705,0.534496009349823,0.47963494062423706
1771073343187922700,1.643922607421875,0.4424838721752167,0.4215780794620514,0.13129374384880066
1771073343197862700,1.653862548828125,0.6161218881607056,-0.03435475379228592,-0.22024326026439667
1771073343207802600,1.663802734375,0.819587230682373,-0.6756434440612793,-0.43223071098327637
1771073343217742300,1.673742431640625,0.9261136054992676,-1.0154625177383423,-0.4301002025604248
1771073343227682300,1.683682373046875,0.8717851042747498,-0.8450203537940979,-0.26391905546188354
1771073343237622300,1.693622314453125,0.6896250247955322,-0.6191844940185547,-0.04980107396841049
1771073343247562200,1.703562255859375,0.3988080620765686,-0.6564686894416809,0.14727269113063812
1771073343257502000,1.713501953125,0.10905636847019196,-0.6585992574691772,0.3262369930744171
1771073343267442000,1.72344189453125,-0.056059498339891434,-0.4210454523563385,0.45087283849716187
1771073343277382000,1.7333818359375,-0.059255290776491165,-0.10679268091917038,0.46578651666641235
1771073343287321900,1.74332177734375,0.10586057603359222,0.17337165772914886,0.349672794342041
1771073343297261800,1.75326171875,0.41052597761154175,0.43649178743362427,0.1344895362854004
1771073343307201800,1.763201904296875,0.773780882358551,0.6207823753356934,-0.07643266767263412
1771073343317141800,1.773141845703125,1.134905219078064,0.7592666745185852,-0.21278640627861023
1771073343327081500,1.78308154296875,1.3926990032196045,0.9073383212089539,-0.2980075180530548
1771073343337021400,1.793021484375,1.4715285301208496,0.9254477620124817,-0.3704454302787781
1771073343346961400,1.80296142578125,1.4086780548095703,0.8391614556312561,-0.4173170328140259
1771073343356901400,1.8129013671875,1.2872380018234253,0.7550055980682373,-0.4215780794620514
1771073343366841300,1.82284130859375,1.1530147790908813,0.7091992497444153,-0.38535910844802856
1771073343376781300,1.83278125,0.9974862337112427,0.7134603261947632,-0.33955278992652893
1771073343386721300,1.84272119140625,0.8142609000205994,0.7006771564483643,-0.3118559420108795
1771073343396661200,1.8526611328125,0.6459492444992065,0.6538055539131165,-0.2841590642929077
1771073343406601200,1.862601318359375,0.5585976243019104,0.6079992055892944,-0.25326642394065857
1771073343416541200,1.872541259765625,0.5522060394287109,0.5281044244766235,-0.2330264151096344
1771073343426481200,1.882481201171875,0.5372923612594604,0.3640538454055786,-0.2468748539686203
1771073343436421000,1.892421142578125,0.4552670419216156,0.0774979293346405,-0.30652961134910583
1771073343446361000,1.902361083984375,0.3189133107662201,-0.2047969400882721,-0.36618438363075256
1771073343456300800,1.91230078125,0.19001640379428864,-0.3613906800746918,-0.34807488322257996
1771073343466240800,1.92224072265625,0.10053425282239914,-0.41784965991973877,-0.2330264151096344
1771073343476180700,1.9321806640625,0.07283740490674973,-0.3837612271308899,-0.003994738683104515
1771073343486120700,1.94212060546875,0.11438268423080444,-0.2324937880039215,0.3358243703842163
1771073343496060700,1.952060791015625,0.21132168173789978,0.027430538088083267,0.7001445293426514
1771073343506000600,1.962000732421875,0.3338269889354706,0.27670222520828247,0.9675257205963135
1771073343515940600,1.971940673828125,0.4030691385269165,0.42264336347579956,1.096422553062439
1771073343525880600,1.981880615234375,0.37750279903411865,0.4865591824054718,1.09855318069458
1771073343535820500,1.991820556640625,0.28908592462539673,0.4173170328140259,1.0048099756240845
1771073343545760500,2.001760498046875,0.17190691828727722,0.2234390527009964,0.8929572701454163
1771073343555700500,2.011700439453125,0.11225215345621109,-0.0002663159102667123,0.9131972789764404
1771073343565640400,2.021640380859375,0.15486270189285278,-0.1994706094264984,1.1347720623016357
1771073343575580400,2.031580322265625,0.1442100703716278,-0.38056543469429016,1.4767217636108398
1771073343585520000,2.04152001953125,-0.008122635073959827,-0.5701823830604553,1.740907073020935
1771073343595460000,2.051460205078125,-0.2510027587413788,-0.8194540739059448,1.723862886428833
1771073343605400000,2.061400146484375,-0.5205144286155701,-1.1187931299209595,1.4117406606674194
1771073343615340000,2.071340087890625,-0.7815040349960327,-1.232776403427124,1.0506162643432617
1771073343625280000,2.081280029296875,-1.0424935817718506,-1.0474205017089844,0.7896266579627991
1771073343635220000,2.091219970703125,-1.2310452461242676,-0.7363634705543518,0.5850960612297058
1771073343645160000,2.101159912109375,-1.3013527393341064,-0.5137233734130859,0.34754225611686707
1771073343655100000,2.111099853515625,-1.2779169082641602,-0.4391549229621887,0.0918789878487587
1771073343665040000,2.121039794921875,-1.1905652284622192,-0.3784348964691162,-0.05938844755291939
1771073343674979800,2.130979736328125,-1.0659294128417969,-0.27723485231399536,-0.0636495053768158
1771073343684919800,2.140919921875,-0.8944219946861267,-0.17496955394744873,0.032224226742982864
1771073343694859800,2.15085986328125,-0.6866955757141113,-0.11318425834178925,0.15899059176445007
1771073343704799700,2.1607998046875,-0.48429548740386963,-0.08761793375015259,0.25379905104637146
1771073343714739500,2.170739501953125,-0.31917962431907654,-0.06205160543322563,0.27297380566596985
1771073343724679400,2.180679443359375,-0.19241324067115784,-0.02583264373242855,0.20266640186309814
1771073343734619400,2.190619384765625,-0.10080057382583618,0.016777902841567993,0.060986343771219254
1771073343744559400,2.200559326171875,-0.03795001655817032,0.03914843872189522,-0.10626004636287689
1771073343754499300,2.210499267578125,-0.008122635073959827,0.04767054691910744,-0.26391905546188354
1771073343764439300,2.220439208984375,-0.026232117787003517,0.08069372177124023,-0.4066644012928009
1771073343774379300,2.230379150390625,-0.08482161909341812,0.14993585646152496,-0.5153213143348694
1771073343784319200,2.2403193359375,-0.16897743940353394,0.27776750922203064,-0.5760413408279419
1771073343794259200,2.25025927734375,-0.26272064447402954,0.4822981059551239,-0.5792371034622192
1771073343804199200,2.26019921875,-0.3308975100517273,0.7933551073074341,-0.5355613231658936
1771073343814139100,2.27013916015625,-0.35220280289649963,1.1555447578430176,-0.4972118139266968
1771073343824079000,2.2800791015625,-0.3628554344177246,1.4655364751815796,-0.5014728307723999
1771073343834018800,2.290018798828125,-0.3585943877696991,1.6839154958724976,-0.5398223400115967
1771073343843958800,2.299958740234375,-0.3202448785305023,1.7457008361816406,-0.5600623488426208
1771073343853898800,2.309898681640625,-0.2872216999530792,1.5965639352798462,-0.5302349925041199
1771073343863838700,2.319838623046875,-0.3500722646713257,1.242896318435669,-0.4950812757015228
1771073343873778700,2.32977880859375,-0.49281758069992065,0.7337003350257874,-0.5643234252929688
1771073343883718700,2.33971875,-0.5886912941932678,0.05299686640501022,-0.7805719375610352
1771073343903598600,2.3595986328125,-0.7058703303337097,-1.0303763151168823,-1.3622058629989624
1771073343913538600,2.36953857421875,-0.6494113206863403,-1.2412984371185303,-1.4442311525344849
1771073343923478500,2.379478515625,-0.4480765163898468,-1.255146861076355,-1.175784707069397
1771073343933418500,2.38941845703125,-0.13915006816387177,-0.969656229019165,-0.5323655009269714
1771073343943358500,2.3993583984375,0.28269433975219727,-0.303866446018219,0.3358243703842163
1771073343953298400,2.40929833984375,0.7609977126121521,0.4684496819972992,1.1198583841323853
1771073343963238100,2.419238037109375,1.1881684064865112,0.890294075012207,1.5683343410491943
1771073343973178000,2.42917822265625,1.4725937843322754,0.8807067275047302,1.6705996990203857
1771073343983118000,2.4391181640625,1.5503580570220947,0.6154560446739197,1.5608775615692139
1771073343993057800,2.449057861328125,1.4480928182601929,0.2948117256164551,1.3925658464431763
1771073344002997800,2.458997802734375,1.2456926107406616,0.08495477586984634,1.2487553358078003
1771073344012937700,2.468937744140625,1.05074942111969,-0.17070849239826202,0.9973530769348145
1771073344022877700,2.478877685546875,0.9751157164573669,-0.6862961053848267,0.58403080701828
1771073344032817400,2.4888173828125,0.9772462248802185,-1.2519510984420776,0.24953800439834595
1771073344042757400,2.49875732421875,0.9346356987953186,-1.6535555124282837,0.19201377034187317
1771073344052697300,2.508697265625,0.7748461365699768,-1.86234712600708,0.3784348964691162
1771073344062637000,2.518636962890625,0.5149217844009399,-1.820801854133606,0.6767086982727051
1771073344072577000,2.528576904296875,0.2528669536113739,-1.555551290512085,0.86952143907547
1771073344082517000,2.53851708984375,0.11012163013219833,-1.1891005039215088,0.818388819694519
1771073344092457000,2.54845703125,0.1452753245830536,-0.7768434882164001,0.5488771200180054
1771073344102396700,2.558396728515625,0.285890132188797,-0.37736964225769043,0.1621863842010498
1771073344112336600,2.568336669921875,0.42970073223114014,-0.06205160543322563,-0.23089589178562164
1771073344122276600,2.578276611328125,0.52237868309021,0.10626004636287689,-0.5643234252929688
1771073344132216300,2.58821630859375,0.5713807940483093,0.14034847915172577,-0.8072035312652588
1771073344142156300,2.59815625,0.5969471335411072,0.08602003753185272,-0.9510141015052795
1771073344152096300,2.60809619140625,0.6257092356681824,0.0018642114009708166,-1.0032119750976562
1771073344162036200,2.6180361328125,0.6576671600341797,-0.0918789878487587,-0.9904288649559021
1771073344171976000,2.627975830078125,0.6917555928230286,-0.15579481422901154,-0.9318393468856812
1771073344181916000,2.637916015625,0.7311703562736511,-0.17496955394744873,-0.8231824636459351
1771073344191855900,2.64785595703125,0.7663240432739258,-0.1664474457502365,-0.6793718934059143
1771073344201795600,2.657795654296875,0.7929556369781494,-0.1387505829334259,-0.5067991614341736
1771073344211735600,2.667735595703125,0.8057388067245483,-0.07590003311634064,-0.3086601495742798
1771073344221675500,2.677675537109375,0.8004124760627747,0.040213704109191895,-0.11371689289808273
1771073344231615500,2.687615478515625,0.7535408735275269,0.3022685647010803,0.011984216049313545
1771073344241555200,2.69755517578125,0.7396924495697021,0.3970770239830017,0.060986343771219254
1771073344251495200,2.7074951171875,0.7556713819503784,0.38962018489837646,0.10040109604597092
1771073344261435100,2.71743505859375,0.7428882122039795,0.45992758870124817,0.16857796907424927
1771073344271375000,2.727375,0.6715155839920044,0.5707150101661682,0.22929799556732178
1771073344281314800,2.737314697265625,0.5500755310058594,0.5994771122932434,0.23995064198970795
1771073344291254800,2.7472548828125,0.42970073223114014,0.5558013319969177,0.20373167097568512
1771073344301194800,2.75719482421875,0.37856805324554443,0.5483444333076477,0.17496955394744873
1771073344311134500,2.767134521484375,0.4137217700481415,0.5749760270118713,0.1898832470178604
1771073344321074400,2.777074462890625,0.4893554747104645,0.5621928572654724,0.25486433506011963
1771073344331014400,2.787014404296875,0.5351617932319641,0.5153213143348694,0.3592601716518402
1771073344340954400,2.796954345703125,0.5191828608512878,0.4577970504760742,0.4764391779899597
1771073344350894300,2.806894287109375,0.43502703309059143,0.372575968503952,0.5861613154411316
1771073344360834300,2.816834228515625,0.27949854731559753,0.2745717167854309,0.6745781898498535
1771073344370774300,2.826774169921875,0.09414267539978027,0.16911059617996216,0.7512772083282471
1771073344380714000,2.8367138671875,-0.03262370079755783,0.08495477586984634,0.856738269329071
1771073344390654000,2.846654052734375,-0.04114580899477005,0.07004108279943466,1.036767840385437
1771073344400594000,2.856593994140625,0.024900536984205246,0.04980107396841049,1.267930030822754
1771073344410534000,2.866533935546875,0.04194475710391998,0.00612526573240757,1.4841785430908203
1771073344420473900,2.876473876953125,-0.08908267319202423,-0.07163897901773453,1.5843133926391602
1771073344430413800,2.886413818359375,-0.38416069746017456,-0.28256118297576904,1.4362417459487915
1771073344440353800,2.896353759765625,-0.7633945345878601,-0.5286371111869812,1.0037447214126587
1771073344450293800,2.906293701171875,-1.0819083452224731,-0.6266413331031799,0.4157191216945648
1771073344460233700,2.916233642578125,-1.2725905179977417,-0.5456812977790833,-0.17017586529254913
1771073344470173700,2.926173583984375,-1.3684643507003784,-0.42743703722953796,-0.7038729786872864
1771073344480113700,2.93611376953125,-1.3897695541381836,-0.46152547001838684,-1.1640667915344238
1771073344490053600,2.9460537109375,-1.3471590280532837,-0.6479465961456299,-1.476189136505127
1771073344499993600,2.95599365234375,-1.2321105003356934,-0.8588688373565674,-1.6295870542526245
1771073344509933300,2.965933349609375,-1.047819972038269,-0.9792435765266418,-1.6924376487731934
1771073344519873300,2.975873291015625,-0.8209187984466553,-0.9579383134841919,-1.7137428522109985
1771073344529813200,2.985813232421875,-0.5727123618125916,-0.8322372436523438,-1.7030901908874512
1771073344539753200,2.995753173828125,-0.36605122685432434,-0.689491868019104,-1.6764585971832275
1771073344549693200,3.005693115234375,-0.2659164369106293,-0.6021402478218079,-1.6338480710983276
1771073344559633200,3.015633056640625,-0.26272064447402954,-0.5360939502716064,-1.5709975957870483
1771073344569573000,3.025572998046875,-0.32237541675567627,-0.4828307330608368,-1.517734408378601
1771073344579513000,3.03551318359375,-0.41824913024902344,-0.40932756662368774,-1.4580795764923096
1771073344589453000,3.045453125,-0.4917523264884949,-0.27403905987739563,-1.3451616764068604
1771073344599393000,3.05539306640625,-0.48323023319244385,-0.12170637398958206,-1.1502183675765991
1771073344609333000,3.0653330078125,-0.3916175365447998,0.028495801612734795,-0.8668583035469055
1771073344619273000,3.07527294921875,-0.22863221168518066,0.26818013191223145,-0.5142560005187988
1771073344629212700,3.085212646484375,-0.043276336044073105,0.6069339513778687,-0.13289164006710052
1771073344639152600,3.095152587890625,0.11438268423080444,0.9840372800827026,0.2143843024969101
1771073344649092600,3.105092529296875,0.2102564126253128,1.2908332347869873,0.45726442337036133
1771073344659032600,3.115032470703125,0.20706062018871307,1.431447982788086,0.5584644675254822
1771073344668972500,3.12497265625,0.09733846783638,1.413338541984558,0.49454864859580994
1771073344678912500,3.13491259765625,-0.08269108831882477,1.284441590309143,0.30493173003196716
1771073344688852500,3.1448525390625,-0.2605901062488556,1.0777804851531982,0.07376950979232788
1771073344698792400,3.15479248046875,-0.39374807476997375,0.8625972270965576,-0.09986846894025803
1771073344708732400,3.164732421875,-0.4491417706012726,0.693220317363739,-0.16591481864452362
1771073344718672400,3.17467236328125,-0.4235754609107971,0.5909550189971924,-0.13608743250370026
1771073344728612400,3.1846123046875,-0.32876700162887573,0.5195823311805725,-0.010386320762336254
1771073344738552300,3.19455224609375,-0.17430377006530762,0.4258391261100769,0.1994706094264984
1771073344748492300,3.2044921875,-0.0017310534603893757,0.3171822428703308,0.44661179184913635
1771073344758432000,3.214431884765625,0.14207953214645386,0.14993585646152496,0.6394245028495789
1771073344768372000,3.2243720703125,0.20812588930130005,-0.09614004194736481,0.7118624448776245
1771073344778312000,3.23431201171875,0.22090904414653778,-0.2985401451587677,0.7076013684272766
1771073344788252000,3.244251953125,0.23582273721694946,-0.3518033027648926,0.7374287843704224
1771073344798191900,3.25419189453125,0.3008038103580475,-0.3326285779476166,0.8673909306526184
1771073344808131800,3.2641318359375,0.4360923171043396,-0.2527337968349457,1.1134668588638306
1771073344818071800,3.27407177734375,0.5639239549636841,-0.17390428483486176,1.4160016775131226
1771073344828011800,3.28401171875,0.6395576596260071,-0.2324937880039215,1.6407723426818848
1771073344837951700,3.29395166015625,0.682168185710907,-0.46578651666641235,1.6823176145553589
1771073344847891700,3.3038916015625,0.6832334399223328,-0.7246456146240234,1.5395722389221191
1771073344857831700,3.313831787109375,0.6107955574989319,-0.818388819694519,1.2700605392456055
1771073344867771600,3.323771728515625,0.4680502116680145,-0.7161234617233276,0.9174582958221436
1771073344877711600,3.333711669921875,0.26884591579437256,-0.4956139028072357,0.5169191956520081
1771073344887651300,3.3436513671875,0.06325002759695053,-0.20799273252487183,0.1291632205247879
1771073344897591300,3.35359130859375,-0.08482161909341812,0.10412952303886414,-0.18935060501098633
1771073344907531300,3.36353125,-0.15299849212169647,0.34381383657455444,-0.40879490971565247
1771073344917471200,3.37347119140625,-0.15725953876972198,0.41838228702545166,-0.5611276030540466
1771073344927411200,3.3834111328125,-0.10825742036104202,0.35340121388435364,-0.6793718934059143
1771073344937351200,3.39335107421875,-0.034754227846860886,0.22983063757419586,-0.7848330140113831
1771073344947291100,3.403291015625,0.011052110232412815,0.10732531547546387,-0.9158604145050049
1771073344957231000,3.413231201171875,0.01957421936094761,0.06151897460222244,-1.0905636548995972
1771073344967171000,3.423171142578125,0.03235738351941109,0.1243695318698883,-1.2769848108291626
1771073344977111000,3.433111083984375,0.06325002759695053,0.251135915517807,-1.4197300672531128
1771073344987051000,3.443051025390625,0.11438268423080444,0.3960117697715759,-1.48045015335083
1771073344996991000,3.452990966796875,0.18042902648448944,0.525973916053772,-1.4452964067459106
1771073345006930700,3.4629306640625,0.2635195851325989,0.6143907904624939,-1.2982900142669678
1771073345016870700,3.47287060546875,0.34874069690704346,0.6761760711669922,-1.0159951448440552
1771073345026810600,3.482810546875,0.42970073223114014,0.7219824194908142,-0.6143907904624939
1771073345036750600,3.49275048828125,0.4978775978088379,0.7241129875183105,-0.15206637978553772
1771073345046690300,3.502690185546875,0.5660544633865356,0.6601971387863159,0.30493173003196716
1771073345056630300,3.51263037109375,0.6054692268371582,0.5057339072227478,0.7001445293426514
1771073345066570200,3.5225703125,0.585229218006134,0.25433170795440674,1.0090709924697876
1771073345076510200,3.53251025390625,0.5138565301895142,-0.026897907257080078,1.2231889963150024
1771073345086450000,3.542449951171875,0.42437440156936646,-0.2857569754123688,1.3361068964004517
1771073345096390000,3.552389892578125,0.3519364893436432,-0.49774444103240967,1.3339763879776
1771073345106329900,3.562329833984375,0.3189133107662201,-0.6266413331031799,1.1912310123443604
1771073345116269600,3.57226953125,0.3221091032028198,-0.6745781898498535,0.9057404398918152
1771073345126209500,3.58220947265625,0.32956594228744507,-0.6799045205116272,0.5179844498634338
1771073345136149500,3.5921494140625,0.31678277254104614,-0.6255760788917542,0.09081372618675232
1771073345146089500,3.60208935546875,0.2709764242172241,-0.48070022463798523,-0.2671148478984833
1771073345156029200,3.612029296875,0.1868206113576889,-0.24527695775032043,-0.4641886353492737
1771073345165969200,3.62196923828125,0.049401599913835526,0.021038956940174103,-0.47484126687049866
1771073345175909000,3.6319091796875,-0.118910051882267,0.270310640335083,-0.3416832983493805
1771073345185848800,3.641848876953125,-0.25313326716423035,0.469514936208725,-0.10519478470087051
1771073345195788800,3.651788818359375,-0.24674169719219208,0.5994771122932434,0.20373167097568512
1771073345205728800,3.661728759765625,-0.07203845679759979,0.6229129433631897,0.5424855351448059
1771073345215668700,3.671668701171875,0.10586057603359222,0.4407528340816498,0.7960182428359985
1771073345225608400,3.6816083984375,0.07922898232936859,-0.006657897960394621,0.8322372436523438
1771073345235548400,3.69154833984375,-0.16684691607952118,-0.6266413331031799,0.6170539855957031
1771073345245488400,3.70148828125,-0.5024049878120422,-1.1965574026107788,0.2516685426235199
1771073345255428000,3.711427978515625,-0.7836345434188843,-1.4586122035980225,-0.09347688406705856
1771073345265368000,3.7213681640625,-0.9902957081794739,-1.3414332866668701,-0.35233595967292786
1771073345275308000,3.73130810546875,-1.1831084489822388,-1.074052095413208,-0.5547360181808472
1771073345285248000,3.741248046875,-1.3311800956726074,-0.8002793192863464,-0.7486140131950378
1771073345295187700,3.751187744140625,-1.3769863843917847,-0.5627255439758301,-0.9680583477020264
1771073345305127700,3.761127685546875,-1.3269190788269043,-0.4114580750465393,-1.2524837255477905
1771073345315067600,3.771067626953125,-1.2427631616592407,-0.39547911286354065,-1.590172290802002
1771073345325007400,3.78100732421875,-1.1926958560943604,-0.47324338555336,-1.8905766010284424
1771073345334947300,3.790947265625,-1.157542109489441,-0.4721781015396118,-2.031191349029541
1771073345344887300,3.80088720703125,-1.1213231086730957,-0.31132328510284424,-2.0088210105895996
1771073345354827300,3.8108271484375,-1.0701904296875,-0.03968106955289841,-1.9054902791976929
1771073345364767000,3.82076708984375,-0.9924262166023254,0.23089589178562164,-1.7947028875350952
1771073345374707000,3.83070703125,-0.8763124942779541,0.4546012580394745,-1.6860460042953491
1771073345384647000,3.84064697265625,-0.7346324324607849,0.6303697824478149,-1.560344934463501
1771073345394587000,3.8505869140625,-0.5663207769393921,0.7507445216178894,-1.4026858806610107
1771073345404526800,3.86052685546875,-0.36179015040397644,0.7731150984764099,-1.1992205381393433
1771073345414466800,3.870466796875,-0.13169321417808533,0.739026665687561,-0.9297088384628296
1771073345424406500,3.880406494140625,0.08668582886457443,0.7102645039558411,-0.5952160358428955
1771073345434346500,3.890346435546875,0.2336922138929367,0.7091992497444153,-0.22237378358840942
1771073345444286500,3.900286376953125,0.2432795912027359,0.7592666745185852,0.18029586970806122
1771073345454226400,3.910226318359375,0.1729721873998642,0.6697844862937927,0.5691171288490295
1771073345464166400,3.92016650390625,0.1261005848646164,0.2894853949546814,0.8418245911598206
1771073345474106400,3.9301064453125,0.07922898232936859,-0.22290641069412231,0.9195888638496399
1771073345484046300,3.94004638671875,-0.004926844500005245,-0.622380256652832,0.7821698188781738
1771073345493986300,3.949986328125,-0.09760478138923645,-0.7576687932014465,0.47324338555336
1771073345503926300,3.95992626953125,-0.16791218519210815,-0.6458160877227783,0.07909582555294037
1771073345513866200,3.9698662109375,-0.23502379655838013,-0.41465386748313904,-0.3118559420108795
1771073345523806200,3.97980615234375,-0.3127880394458771,-0.09933583438396454,-0.6325002908706665
1771073345533746200,3.98974609375,-0.3820301592350006,0.2756369709968567,-0.8178561329841614
1771073345543686100,3.99968603515625,-0.3862912356853485,0.6612623929977417,-0.8157256245613098
1771073345553625900,4.0096259765625,-0.30959224700927734,1.0042773485183716,-0.6527402997016907
1771073345563565800,4.01956591796875,-0.19134798645973206,1.2578099966049194,-0.4077296555042267
1771073345573505800,4.029505859375,-0.09014793485403061,1.3536838293075562,-0.13608743250370026
1771073345583445800,4.03944580078125,0.006791055668145418,1.3238563537597656,0.1621863842010498
1771073345593385700,4.0493857421875,0.12716585397720337,1.242896318435669,0.4902876019477844
1771073345603325700,4.05932568359375,0.3050648868083954,1.1491531133651733,0.8514119386672974
1771073345613265700,4.069265625,0.539422869682312,0.96592777967453,1.2210584878921509
1771073345623205600,4.07920556640625,0.7759113907814026,0.5920202732086182,1.5001574754714966
1771073345633145600,4.0891455078125,0.9442230463027954,0.08815056830644608,1.5736607313156128
1771073345643085600,4.09908544921875,1.0369009971618652,-0.3731085956096649,1.451155424118042
1771073345653025500,4.109025634765625,1.1029473543167114,-0.6607297658920288,1.2764521837234497
1771073345662965500,4.118965576171875,1.147688388824463,-0.7544729709625244,1.13370680809021
1771073345672905500,4.128905517578125,1.1317094564437866,-0.7534077167510986,0.9867004752159119
1771073345682845200,4.13884521484375,1.0230525732040405,-0.7331677079200745,0.7885614037513733
1771073345692785200,4.14878515625,0.8366314172744751,-0.7097318768501282,0.5446160435676575
1771073345702725000,4.15872509765625,0.6171871423721313,-0.6149234175682068,0.2985401451587677
1771073345712665000,4.1686650390625,0.42970073223114014,-0.4295675754547119,0.09827057272195816
1771073345722605000,4.17860498046875,0.3327617347240448,-0.2623211741447449,-0.035952646285295486
1771073345732545000,4.188544921875,0.34447962045669556,-0.16857796907424927,-0.10945583879947662
1771073345742485000,4.198485107421875,0.43822282552719116,-0.11851058155298233,-0.1339569091796875
1771073345752425000,4.208425048828125,0.5660544633865356,-0.08974846452474594,-0.12650005519390106
1771073345762365000,4.218364990234375,0.7087997794151306,-0.09400951862335205,-0.08069372177124023
1771073345772305000,4.228304931640625,0.8472840785980225,-0.13662005960941315,0.005592633970081806
1771073345782244900,4.238244873046875,0.962332546710968,-0.21012325584888458,0.12596742808818817
1771073345792184800,4.248184814453125,1.0411620140075684,-0.2878875136375427,0.2559295892715454
1771073345802124500,4.25812451171875,1.0827072858810425,-0.37630438804626465,0.36778226494789124
1771073345812064500,4.268064453125,1.0933599472045898,-0.48922231793403625,0.4593949317932129
1771073345822004500,4.27800439453125,1.075250506401062,-0.5659213066101074,0.5403549671173096
1771073345831944400,4.2879443359375,1.0283788442611694,-0.5605949759483337,0.6064013242721558
1771073345841884400,4.297884521484375,0.9687241315841675,-0.4870918095111847,0.6415550112724304
1771073345851824400,4.307824462890625,0.9069388508796692,-0.3933486044406891,0.6170539855957031
1771073345861764400,4.317764404296875,0.8504798412322998,-0.3028011918067932,0.5254412889480591
1771073345871704300,4.327704345703125,0.7972166538238525,-0.21758009493350983,0.36778226494789124
1771073345881644300,4.337644287109375,0.7343661189079285,-0.11744531989097595,0.1675127148628235
1771073345891584300,4.347584228515625,0.660862922668457,-0.008788425475358963,-0.04660528525710106
1771073345901524200,4.357524169921875,0.5745765566825867,0.0913463607430458,-0.2713759243488312
1771073345911464200,4.367464111328125,0.49042075872421265,0.20106850564479828,-0.47590652108192444
1771073345921404200,4.377404052734375,0.4318312406539917,0.28735485672950745,-0.6079992055892944
1771073345931344000,4.38734375,0.3892207145690918,0.3043990731239319,-0.6612623929977417
1771073345941283800,4.397283935546875,0.2869553864002228,0.2372874766588211,-0.6165213584899902
1771073345951223800,4.407223876953125,0.05898897349834442,0.13502216339111328,-0.4876244366168976
1771073345961163800,4.417163818359375,-0.28189539909362793,-0.032224226742982864,-0.3129211962223053
1771073345971103700,4.427103759765625,-0.6185187101364136,-0.2474074810743332,-0.09773793816566467
1771073345981043700,4.437043701171875,-0.7612640261650085,-0.39015281200408936,0.21331904828548431
1771073345990983700,4.446983642578125,-0.5929523706436157,-0.48922231793403625,0.6522076725959778
1771073346000923600,4.456923583984375,-0.23928484320640564,-0.659664511680603,1.1273152828216553
1771073346010863600,4.466863525390625,0.05153212696313858,-0.9419593811035156,1.4554164409637451
1771073346020803600,4.476803466796875,0.10266478359699249,-1.2285152673721313,1.4596774578094482
1771073346030743600,4.48674365234375,-0.05392897129058838,-1.4447637796401978,1.0847047567367554
1771073346040683500,4.49668359375,-0.33302804827690125,-1.4895049333572388,0.4593949317932129
1771073346050623500,4.50662353515625,-0.6813692450523376,-1.2668647766113281,-0.1765674501657486
1771073346060563200,4.516563232421875,-1.0563420057296753,-0.8311719298362732,-0.7134603261947632
1771073346070503200,4.526503173828125,-1.3791168928146362,-0.3922833502292633,-1.1076078414916992
1771073346080443100,4.536443115234375,-1.5697991847991943,-0.0354200154542923,-1.317464828491211
1771073346090383000,4.546383056640625,-1.5943001508712769,0.2713759243488312,-1.3483574390411377
1771073346100323000,4.556322998046875,-1.4611421823501587,0.4716454744338989,-1.2716584205627441
1771073346110263000,4.566262939453125,-1.2171968221664429,0.504668653011322,-1.1544795036315918
1771073346120202800,4.57620263671875,-0.9594030380249023,0.4301002025604248,-1.0170605182647705
1771073346130142700,4.586142822265625,-0.7484808564186096,0.3257043659687042,-0.8775109052658081
1771073346140082700,4.596082763671875,-0.6036050319671631,0.21491694450378418,-0.760331928730011
1771073346150022700,4.606022705078125,-0.5141228437423706,0.08602003753185272,-0.6793718934059143
1771073346159962400,4.61596240234375,-0.4757733643054962,-0.056725289672613144,-0.6548708081245422
1771073346169902300,4.62590234375,-0.4768386483192444,-0.14088112115859985,-0.6665887236595154
1771073346179842300,4.63584228515625,-0.4810996949672699,-0.12703268229961395,-0.6783066391944885
1771073346189782000,4.645781982421875,-0.4768386483192444,0.018908429890871048,-0.6282392144203186
1771073346199722000,4.655721923828125,-0.4864259958267212,0.23196116089820862,-0.4929507374763489
1771073346209662000,4.665661865234375,-0.4938828647136688,0.4258391261100769,-0.2522011697292328
1771073346219602000,4.675601806640625,-0.4704470634460449,0.5419528484344482,0.08868319541215897
1771073346229541600,4.685541748046875,-0.43635863065719604,0.5952160358428955,0.4828307330608368
1771073346239481600,4.695481689453125,-0.4246407151222229,0.5760413408279419,0.8343677520751953
1771073346249421600,4.705421630859375,-0.457663893699646,0.4258391261100769,1.044224739074707
1771073346259361300,4.715361328125,-0.5290365815162659,0.14247901737689972,1.0357025861740112
1771073346269301200,4.72530126953125,-0.6302366256713867,-0.1813611388206482,0.7768434882164001
1771073346279241200,4.7352412109375,-0.7229145169258118,-0.38589176535606384,0.3166496157646179
1771073346289181200,4.74518115234375,-0.7516766786575317,-0.34754225611686707,-0.16591481864452362
1771073346299121000,4.755120849609375,-0.7410240173339844,-0.08655267208814621,-0.49401602149009705
1771073346309060900,4.765060791015625,-0.7293061017990112,0.2948117256164551,-0.6303697824478149
1771073346319000800,4.775000732421875,-0.6675208210945129,0.6548708081245422,-0.563258171081543
1771073346328940500,4.7849404296875,-0.5215796828269958,0.9105340838432312,-0.3235738277435303
1771073346338880500,4.794880615234375,-0.3266364634037018,1.0799109935760498,-0.012516847811639309
1771073346348820500,4.804820556640625,-0.18389113247394562,1.1438268423080444,0.24314641952514648
1771073346358760400,4.814760498046875,-0.18815219402313232,1.1076078414916992,0.3358243703842163
1771073346368700200,4.8247001953125,-0.25313326716423035,1.0309089422225952,0.2804306447505951
1771073346378640100,4.83464013671875,-0.27550381422042847,0.8668583035469055,0.19734008610248566
1771073346388580000,4.844580078125,-0.2169143110513687,0.6996119022369385,0.23568958044052124
1771073346398519800,4.854519775390625,-0.06777740269899368,0.6207823753356934,0.45193809270858765
1771073346408459800,4.864459716796875,0.09094688296318054,0.45247071981430054,0.6575340032577515
1771073346418399700,4.874399658203125,0.219843789935112,0.04234423115849495,0.6799045205116272
1771073346428339700,4.884339599609375,0.417982816696167,-0.38163068890571594,0.6277065873146057
1771073346438279400,4.894279541015625,0.6171871423721313,-0.5882918238639832,0.60533607006073
1771073346448219400,4.904219482421875,0.6704503297805786,-0.559529721736908,0.5499423742294312
1771073346458159400,4.914159423828125,0.5660544633865356,-0.41358861327171326,0.416784405708313
1771073346468099300,4.924099365234375,0.3700459599494934,-0.25912538170814514,0.2420811653137207
1771073346478039300,4.934039306640625,0.18469008803367615,-0.09720530360937119,0.11424952745437622
1771073346487979300,4.943979248046875,0.0504668653011322,-0.0002663159102667123,0.0588558167219162
1771073346497919200,4.953919189453125,-0.004926844500005245,-0.03009369783103466,0.0492684431374073
1771073346507859200,4.963859130859375,-0.018775271251797676,-0.10892320424318314,0.027963170781731606
1771073346517799200,4.973799072265625,0.01957421936094761,-0.16431692242622375,-0.04554001986980438
1771073346527739000,4.98373876953125,0.13142690062522888,-0.1664474457502365,-0.1627190262079239
1771073346537678800,4.993678955078125,0.27949854731559753,-0.09400951862335205,-0.3416832983493805
1771073346547618800,5.003618896484375,0.4360923171043396,-0.013049479573965073,-0.5653886795043945
1771073346557558800,5.013558837890625,0.5799028873443604,0.02210422046482563,-0.7922898530960083
1771073346567498800,5.023498779296875,0.6949513554573059,0.03275685757398605,-0.9552751779556274
1771073346577438700,5.033438720703125,0.7599324584007263,0.016777902841567993,-1.0149298906326294
1771073346587378700,5.043378662109375,0.7769766449928284,-0.010918952524662018,-0.9595362544059753
1771073346597318700,5.053318603515625,0.7641934752464294,-0.04500738903880119,-0.8082687854766846
1771073346607258600,5.063258544921875,0.7311703562736511,-0.10253162682056427,-0.5941507816314697
1771073346617198600,5.073198486328125,0.6853640079498291,-0.15153375267982483,-0.34807488322257996
1771073346627138600,5.083138671875,0.6235787272453308,-0.1909485012292862,-0.11904320865869522
1771073346637078500,5.09307861328125,0.5383576154708862,-0.23995064198970795,0.036485280841588974
1771073346647018200,5.103018310546875,0.4360923171043396,-0.2761695981025696,0.08548741042613983
1771073346656958200,5.112958251953125,0.34447962045669556,-0.2665822207927704,0.04181159660220146
1771073346666898200,5.122898193359375,0.296542763710022,-0.20692746341228485,-0.04234423115849495
1771073346676838100,5.132838134765625,0.2986733019351959,-0.10359688848257065,-0.12223900109529495
1771073346686778000,5.142778076171875,0.33489224314689636,-0.02583264373242855,-0.1723063886165619
1771073346696718000,5.152718017578125,0.3647196292877197,-0.03755054250359535,-0.18935060501098633
1771073346706658000,5.162657958984375,0.3647196292877197,-0.105727419257164,-0.15952323377132416
1771073346716598000,5.172597900390625,0.32637014985084534,-0.14940322935581207,-0.05299686640501022
1771073346726538000,5.1825380859375,0.2432795912027359,-0.16112112998962402,0.13235901296138763
1771073346736478000,5.19247802734375,0.10266478359699249,-0.13129374384880066,0.34754225611686707
1771073346746418000,5.20241796875,-0.039015281945466995,-0.004527370445430279,0.5403549671173096
1771073346756358000,5.21235791015625,-0.08269108831882477,0.14141374826431274,0.7086666226387024
1771073346766297900,5.2222978515625,0.011052110232412815,0.1573926955461502,0.9057404398918152
1771073346776237600,5.232237548828125,0.10799109935760498,0.040213704109191895,1.1198583841323853
1771073346786177500,5.242177490234375,0.03768370300531387,-0.1898832470178604,1.2615385055541992
1771073346796117500,5.252117431640625,-0.2552638053894043,-0.546746551990509,1.1976226568222046
1771073346806057500,5.262057373046875,-0.6984134912490845,-0.9408941268920898,0.8865656852722168
1771073346815997400,5.27199755859375,-1.1287800073623657,-1.096422553062439,0.4498075842857361
1771073346825937400,5.2819375,-1.4451632499694824,-0.9131972789764404,0.03009369783103466
1771073346835877400,5.29187744140625,-1.667803406715393,-0.5350286364555359,-0.31611698865890503
1771073346845817300,5.3018173828125,-1.7732645273208618,-0.18029586970806122,-0.588824450969696
1771073346855757300,5.31175732421875,-1.7263928651809692,0.07110634446144104,-0.7720498442649841
1771073346865697300,5.321697265625,-1.5559507608413696,0.27350643277168274,-0.8455530405044556
1771073346875637200,5.33163720703125,-1.2885695695877075,0.40559911727905273,-0.790159285068512
1771073346885577200,5.3415771484375,-0.9924262166023254,0.41838228702545166,-0.6303697824478149
1771073346895517200,5.35151708984375,-0.7570029497146606,0.30652961134910583,-0.41412124037742615
1771073346905457000,5.361456787109375,-0.5950828790664673,0.1296958476305008,-0.17017586529254913
1771073346915396900,5.37139697265625,-0.4917523264884949,-0.07483477145433426,0.0588558167219162
1771073346925336800,5.3813369140625,-0.4331628382205963,-0.29640960693359375,0.19734008610248566
1771073346935276800,5.39127685546875,-0.4139880836009979,-0.492418110370636,0.19307903945446014
1771073346945216800,5.401216796875,-0.4001396596431732,-0.5637907981872559,0.0684431865811348
1771073346955156700,5.41115673828125,-0.336223840713501,-0.4636560082435608,-0.08921582996845245
1771073346965096700,5.4210966796875,-0.24674169719219208,-0.2569948434829712,-0.19467693567276
1771073346975036700,5.43103662109375,-0.15299849212169647,-0.016245270147919655,-0.20319904386997223
1771073346984976600,5.4409765625,-0.06138581782579422,0.18828535079956055,-0.12223900109529495
1771073346994916600,5.45091650390625,-0.012383690103888512,0.2852243483066559,0.005592633970081806
1771073347004856600,5.460856689453125,0.0003994738799519837,0.2905506491661072,0.14407691359519958
1771073347014796500,5.470796630859375,-0.02516685426235199,0.2095906287431717,0.2569948434829712
1771073347024736500,5.480736572265625,-0.11251847445964813,0.0870852991938591,0.27403905987739563
1771073347034676200,5.49067626953125,-0.22863221168518066,-0.007723161485046148,0.15579481422901154
1771073347044616200,5.5006162109375,-0.32344067096710205,0.011451584286987782,-0.06684529036283493
1771073347054556200,5.51055615234375,-0.3500722646713257,0.2000032514333725,-0.2980075180530548
1771073347064496000,5.52049609375,-0.3202448785305023,0.46631917357444763,-0.46099284291267395
1771073347074436000,5.53043603515625,-0.28509119153022766,0.7028076648712158,-0.5323655009269714
1771073347084376000,5.5403759765625,-0.2360890507698059,0.8349003791809082,-0.5067991614341736
1771073347094316000,5.55031591796875,-0.17749954760074615,0.8583361506462097,-0.40346860885620117
1771073347104256000,5.560256103515625,-0.11997532099485397,0.8082687854766846,-0.22024326026439667
1771073347114196000,5.570196044921875,-0.06351634114980698,0.7496792674064636,0.019441060721874237
1771073347124136000,5.580135986328125,-0.003861580742523074,0.7262434959411621,0.2644517123699188
1771073347134076000,5.590075927734375,0.06431528925895691,0.7028076648712158,0.46046021580696106
1771073347144016000,5.600015869140625,0.12823110818862915,0.6729803085327148,0.6159886717796326
1771073347153955600,5.60995556640625,0.2102564126253128,0.6378266215324402,0.7928224802017212
1771073347163895600,5.6198955078125,0.37856805324554443,0.5749760270118713,1.044224739074707
1771073347173835500,5.62983544921875,0.6086649894714355,0.41518649458885193,1.3020185232162476
1771073347183775500,5.639775390625,0.8664588332176208,0.0774979293346405,1.4650038480758667
1771073347193715500,5.649715576171875,1.0869684219360352,-0.36671701073646545,1.4500901699066162
1771073347203655400,5.659655517578125,1.2190611362457275,-0.7960182428359985,1.2349069118499756
1771073347213595400,5.669595458984375,1.280846357345581,-1.0346373319625854,0.9291762113571167
1771073347223535400,5.679535400390625,1.276585340499878,-1.0101362466812134,0.6181192398071289
1771073347233475300,5.689475341796875,1.196690559387207,-0.8141277432441711,0.34328120946884155
1771073347243415300,5.699415283203125,1.04329252243042,-0.5712476372718811,0.10998847335577011
1771073347253355300,5.709355224609375,0.8089345693588257,-0.37630438804626465,-0.09347688406705856
1771073347263295000,5.719294921875,0.5181176066398621,-0.228232741355896,-0.2756369709968567
1771073347273235000,5.72923486328125,0.20386482775211334,-0.12170637398958206,-0.44181808829307556
1771073347283175000,5.7391748046875,-0.07097318768501282,-0.04500738903880119,-0.5760413408279419
1771073347293114600,5.749114501953125,-0.2414153665304184,0.002929474925622344,-0.6825676560401917
1771073347303054600,5.7590546875,-0.2968090772628784,0.011451584286987782,-0.7550055980682373
1771073347312994600,5.76899462890625,-0.24780695140361786,0.023169483989477158,-0.7784414291381836
1771073347322934500,5.7789345703125,-0.09334372729063034,0.0679105594754219,-0.7571361064910889
1771073347332874200,5.788874267578125,0.1442100703716278,0.1201084777712822,-0.7081339955329895
1771073347342814200,5.798814208984375,0.4233091473579407,0.12650005519390106,-0.6378266215324402
1771073347352754200,5.808754150390625,0.6842987537384033,0.09880319982767105,-0.5185170769691467
1771073347362694000,5.81869384765625,0.8930904269218445,0.05512739345431328,-0.3320959508419037
1771073347372633900,5.8286337890625,1.0486189126968384,-0.03009369783103466,-0.11265163123607635
1771073347382573800,5.83857373046875,1.1498188972473145,-0.15899059176445007,0.10040109604597092
1771073347392513800,5.848513671875,1.1902989149093628,-0.32410645484924316,0.2889527678489685
1771073347402453500,5.85845361328125,1.1540800333023071,-0.49774444103240967,0.4487423002719879
1771073347412393500,5.8683935546875,1.037966251373291,-0.6426202654838562,0.5669865608215332
1771073347422333400,5.87833349609375,0.8760461807250977,-0.7395592927932739,0.6181192398071289
1771073347432273200,5.888273193359375,0.7024081945419312,-0.7661908864974976,0.5605949759483337
1771073347442213000,5.898213134765625,0.5362271070480347,-0.7001445293426514,0.40080544352531433
1771073347452153000,5.908153076171875,0.38602492213249207,-0.5669865608215332,0.1771000772714615
1771073347462093000,5.918093017578125,0.2518016993999481,-0.3880222737789154,-0.0774979293346405
1771073347472032800,5.92803271484375,0.13781848549842834,-0.19414429366588593,-0.33955278992652893
1771073347481972700,5.93797265625,0.045140545815229416,0.010386320762336254,-0.5472791790962219
1771073347491912700,5.94791259765625,-0.04860265180468559,0.2234390527009964,-0.6495444774627686
1771073347501852400,5.957852294921875,-0.15939007699489594,0.4162517786026001,-0.6165213584899902
1771073347511792400,5.96779248046875,-0.279764860868454,0.5685844421386719,-0.4631233811378479
1771073347521732400,5.977732421875,-0.39374807476997375,0.6197171211242676,-0.2138516753911972
1771073347531672300,5.98767236328125,-0.49814391136169434,0.5909550189971924,0.08442214131355286
1771073347541612000,5.997612060546875,-0.5471460223197937,0.5355613231658936,0.40400123596191406
1771073347551552000,6.007552001953125,-0.4565986394882202,0.4716454744338989,0.7683213949203491
1771073347561492000,6.017491943359375,-0.2595248520374298,0.33848753571510315,1.153946876525879
1771073347571431700,6.027431640625,-0.14980269968509674,0.05193160101771355,1.4745911359786987
1771073347581371600,6.03737158203125,-0.32450592517852783,-0.41891491413116455,1.5757912397384644
1771073347591311600,6.0473115234375,-0.7932219505310059,-0.9781783223152161,1.3158669471740723
1771073347601251600,6.05725146484375,-1.325853705406189,-1.3808480501174927,0.7715172171592712
1771073347611191600,6.067191650390625,-1.685912847518921,-1.3233237266540527,0.16964323818683624
1771073347621131500,6.077131591796875,-1.919205665588379,-0.8631298542022705,-0.40453386306762695
1771073347631071500,6.087071533203125,-2.1152141094207764,-0.2761695981025696,-0.9392961859703064
1771073347641011500,6.097011474609375,-2.161020517349243,0.22556957602500916,-1.341965913772583
1771073347650951400,6.106951416015625,-2.0204057693481445,0.6058686971664429,-1.5337133407592773
1771073347660891400,6.116891357421875,-1.7455676794052124,0.8476835489273071,-1.527321696281433
1771073347670831000,6.1268310546875,-1.3908348083496094,0.8839024901390076,-1.3462269306182861
1771073347680771000,6.13677099609375,-0.9977525472640991,0.7251782417297363,-0.9957551956176758
1771073347690711000,6.1467109375,-0.6185187101364136,0.46099284291267395,-0.5291697382926941
1771073347700651000,6.156651123046875,-0.28509119153022766,0.16484954953193665,0.005592633970081806
1771073347710591000,6.166591064453125,-0.04647212475538254,-0.09294424951076508,0.5179844498634338
1771073347720531000,6.176531005859375,0.08029424399137497,-0.284691721200943,0.8578035235404968
1771073347730471000,6.186470947265625,0.18042902648448944,-0.4316980838775635,0.9621993899345398
1771073347740411000,6.196410888671875,0.30719539523124695,-0.5435507893562317,0.8727172613143921
1771073347750350800,6.206350830078125,0.4446144104003906,-0.58403080701828,0.6564686894416809
1771073347760290800,6.216290771484375,0.5532712936401367,-0.5371592044830322,0.40080544352531433
1771073347770230800,6.226230712890625,0.6012081503868103,-0.40506649017333984,0.18349166214466095
1771073347780170800,6.236170654296875,0.576707124710083,-0.20799273252487183,0.03755054250359535
1771073347790110700,6.24611083984375,0.4680502116680145,0.030626330524683,-0.05725792050361633
1771073347800050400,6.256050537109375,0.2805638015270233,0.2649843394756317,-0.10732531547546387
1771073347809990400,6.265990478515625,0.025965800508856773,0.4865591824054718,-0.13289164006710052
1771073347819930400,6.275930419921875,-0.27230802178382874,0.6655234694480896,-0.18828535079956055
1771073347829870300,6.285870361328125,-0.5822997093200684,0.7635276913642883,-0.33955278992652893
1771073347839810300,6.295810302734375,-0.8699209094047546,0.7890940308570862,-0.5781718492507935
1771073347849750300,6.305750244140625,-1.1085399389266968,0.8040077090263367,-0.8093340396881104
1771073347859690200,6.315690185546875,-1.2672642469406128,0.8508793115615845,-0.9318393468856812
1771073347869630200,6.325630126953125,-1.3365063667297363,0.873249888420105,-0.9286435842514038
1771073347879570200,6.335570068359375,-1.32798433303833,0.8476835489273071,-0.8466182947158813
1771073347889510100,6.34551025390625,-1.2459590435028076,0.8253130316734314,-0.6783066391944885
1771073347899450000,6.3554501953125,-1.0872347354888916,0.7752456068992615,-0.4439486265182495
1771073347909390000,6.36539013671875,-0.8709861636161804,0.6836329698562622,-0.17017586529254913
1771073347919330000,6.375330078125,-0.6302366256713867,0.5664539337158203,0.12064110487699509
1771073347929269800,6.385269775390625,-0.390552282333374,0.4577970504760742,0.40506649017333984
1771073347939209700,6.395209716796875,-0.16258586943149567,0.28202855587005615,0.6820350289344788
1771073347949149700,6.405149658203125,0.045140545815229416,-0.0023968431632965803,0.9579383134841919
1771073347959089700,6.415089599609375,0.219843789935112,-0.3304980397224426,1.2295805215835571
1771073347969029600,6.425029541015625,0.35939332842826843,-0.668186604976654,1.460742712020874
1771073347978969600,6.434969482421875,0.5362271070480347,-0.9685909748077393,1.6290544271469116
1771073347988909600,6.44490966796875,0.8004124760627747,-1.1614036560058594,1.7217323780059814
1771073348008789500,6.46478955078125,1.313869595527649,-1.1518163681030273,1.6908397674560547
1771073348018729500,6.4747294921875,1.4289180040359497,-1.1017489433288574,1.548094391822815
1771073348028669400,6.48466943359375,1.3841769695281982,-1.128380537033081,1.267930030822754
1771073348038609400,6.494609375,1.1402316093444824,-1.2402331829071045,0.8141277432441711
1771073348048549400,6.50454931640625,0.719452440738678,-1.3329111337661743,0.24421168863773346
1771073348058489000,6.514489013671875,0.22623535990715027,-1.2370374202728271,-0.2522011697292328
1771073348068429000,6.524428955078125,-0.22969746589660645,-0.906805694103241,-0.5387570858001709
1771073348078369000,6.534369140625,-0.5716471076011658,-0.42424124479293823,-0.5824328660964966
1771073348088309000,6.54430908203125,-0.7175882458686829,0.10945583879947662,-0.4780370593070984
1771073348098249000,6.5542490234375,-0.6302366256713867,0.5313002467155457,-0.35659700632095337
1771073348108189000,6.56418896484375,-0.3735080659389496,0.7816371917724609,-0.29694223403930664
1771073348118129000,6.57412890625,-0.050733182579278946,0.9329046607017517,-0.2905506491661072
1771073348128068900,6.58406884765625,0.28908592462539673,0.9829720258712769,-0.30546435713768005
1771073348138008800,6.5940087890625,0.5948165655136108,0.9243825078010559,-0.3257043659687042
1771073348147948800,6.60394873046875,0.8110650777816772,0.7805719375610352,-0.35340121388435364
1771073348157888800,6.613888671875,0.9218525290489197,0.5898897647857666,-0.38109806180000305
1771073348167828700,6.623828857421875,0.9580714702606201,0.41412124037742615,-0.3928159773349762
1771073348177768400,6.6337685546875,0.9655283093452454,0.29587697982788086,-0.3779022693634033
1771073348187708400,6.64370849609375,0.9740504622459412,0.2181127369403839,-0.35233595967292786
1771073348197648400,6.6536484375,0.9697893857955933,0.1573926955461502,-0.31611698865890503
1771073348207588400,6.66358837890625,0.9133304357528687,0.12543480098247528,-0.261788547039032
1771073348217528300,6.6735283203125,0.795086145401001,0.10306425392627716,-0.1904158741235733
1771073348227468300,6.68346826171875,0.6203829050064087,0.06258423626422882,-0.1478053331375122
1771073348237408300,6.693408203125,0.42437440156936646,-0.008788425475358963,-0.1861548274755478
1771073348247348200,6.70334814453125,0.24541011452674866,-0.0588558167219162,-0.3139864504337311
1771073348257288200,6.7132880859375,0.1165132075548172,-0.05779055133461952,-0.46525388956069946
1771073348267228200,6.723228271484375,0.01850895583629608,0.010386320762336254,-0.5621928572654724
1771073348277168000,6.733168212890625,-0.08269108831882477,0.1478053331375122,-0.5760413408279419
1771073348306987800,6.76298779296875,-0.34581121802330017,0.5611276030540466,-0.09347688406705856
1771073348316927700,6.772927734375,-0.3436806797981262,0.6122602820396423,0.16538217663764954
1771073348326867700,6.78286767578125,-0.24354590475559235,0.6282392144203186,0.4636560082435608
1771073348336807700,6.7928076171875,-0.08908267319202423,0.5877591967582703,0.7885614037513733
1771073348346747600,6.80274755859375,-0.01771000772714615,0.448209673166275,1.0527467727661133
1771073348356687600,6.8126875,-0.1519332230091095,0.09880319982767105,1.1198583841323853
1771073348366627600,6.822627685546875,-0.5396891832351685,-0.5339633822441101,0.8972182869911194
1771073348376567600,6.832567626953125,-1.1064094305038452,-1.14116370677948,0.4455465078353882
1771073348386507500,6.842507568359375,-1.6219969987869263,-1.3265196084976196,-0.02636527456343174
1771073348396447500,6.852447509765625,-2.007622480392456,-1.0761826038360596,-0.4354265034198761
1771073348406387500,6.862387451171875,-2.319744825363159,-0.6330329179763794,-0.7795066833496094
1771073348416327400,6.872327392578125,-2.4529027938842773,-0.1579253375530243,-0.9936246871948242
1771073348426267400,6.882267333984375,-2.3378541469573975,0.26285380125045776,-1.0831067562103271
1771073348436207000,6.89220703125,-2.0257320404052734,0.5025381445884705,-1.1065425872802734
1771073348446147000,6.90214697265625,-1.5985612869262695,0.5036033987998962,-1.0671278238296509
1771073348456087000,6.912087158203125,-1.1532810926437378,0.3470096290111542,-0.9286435842514038
1771073348466027000,6.922027099609375,-0.8155924677848816,0.1669800728559494,-0.6964160799980164
1771073348475967000,6.931967041015625,-0.6355628967285156,0.015712639316916466,-0.44288337230682373
1771073348485907000,6.941906982421875,-0.5844302773475647,-0.10679268091917038,-0.23941799998283386
1771073348495847000,6.951846923828125,-0.587626039981842,-0.20373167097568512,-0.1243695318698883
1771073348505787000,6.961786865234375,-0.5684512853622437,-0.2751043438911438,-0.1009337306022644
1771073348515726800,6.971726806640625,-0.49707865715026855,-0.3411506712436676,-0.148870587348938
1771073348525666800,6.981666748046875,-0.401204913854599,-0.37736964225769043,-0.21278640627861023
1771073348535606500,6.9916064453125,-0.32237541675567627,-0.3230412006378174,-0.2287653684616089
1771073348545546500,7.00154638671875,-0.2744385600090027,-0.18242639303207397,-0.17337165772914886
1771073348555486500,7.011486572265625,-0.25845959782600403,0.04127896577119827,-0.05832318589091301
1771073348565426400,7.021426513671875,-0.2637858986854553,0.30013802647590637,0.07483477145433426
1771073348575366100,7.0313662109375,-0.2744385600090027,0.5408875942230225,0.19307903945446014
1771073348585306000,7.04130615234375,-0.2829606533050537,0.7486140131950378,0.28149592876434326
1771073348595246000,7.05124609375,-0.28189539909362793,0.8977509140968323,0.3273022472858429
1771073348605185800,7.061185791015625,-0.28083011507987976,0.9584709405899048,0.3368896245956421
1771073348615125800,7.071125732421875,-0.2829606533050537,0.9542099237442017,0.3273022472858429
1771073348625065700,7.081065673828125,-0.2733732759952545,0.9243825078010559,0.32091066241264343
1771073348635005700,7.091005615234375,-0.2265016883611679,0.8647277355194092,0.34434646368026733
1771073348644945400,7.1009453125,-0.11571425944566727,0.7624624371528625,0.4029359817504883
1771073348654885400,7.110885498046875,0.06964161247015,0.6207823753356934,0.4881570637226105
1771073348664825300,7.120825439453125,0.32530489563941956,0.45247071981430054,0.5914876461029053
1771073348674765300,7.130765380859375,0.606534481048584,0.2660495936870575,0.7065361142158508
1771073348684705000,7.140705078125,0.8398272395133972,0.06578002870082855,0.8418245911598206
1771073348694645000,7.15064501953125,0.962332546710968,-0.10146636515855789,1.006940484046936
1771073348704585000,7.1605849609375,0.9484841227531433,-0.21118851006031036,1.1912310123443604
1771073348714524700,7.170524658203125,0.862197756767273,-0.2143843024969101,1.3531510829925537
1771073348724464600,7.180464599609375,0.7567366361618042,-0.1249021589756012,1.4330458641052246
1771073348734404600,7.190404541015625,0.6054692268371582,-0.023702116683125496,1.3861743211746216
1771073348744344600,7.200344482421875,0.4691154658794403,-0.0684431865811348,1.1901657581329346
1771073348754284300,7.2102841796875,0.5021386742591858,-0.31984540820121765,0.8844351172447205
1771073348764224300,7.220224365234375,0.7322356104850769,-0.8045403361320496,0.4679170548915863
1771073348774164200,7.230164306640625,1.05074942111969,-1.4160016775131226,-0.04127896577119827
1771073348784104000,7.24010400390625,1.3000211715698242,-1.9848524332046509,-0.5153213143348694
1771073348794044000,7.2500439453125,1.3458274602890015,-2.328932523727417,-0.8125298619270325
1771073348803984000,7.25998388671875,1.1136000156402588,-2.3715431690216064,-0.8594014644622803
1771073348813923800,7.269923828125,0.6416881680488586,-2.1840567588806152,-0.7837677001953125
1771073348823863600,7.279863525390625,0.06218476593494415,-1.882587194442749,-0.7965508699417114
1771073348833803500,7.289803466796875,-0.48855653405189514,-1.4831132888793945,-0.8870983123779297
1771073348843743500,7.299743408203125,-0.81346195936203,-1.042094111442566,-0.9680583477020264
1771073348853683500,7.309683349609375,-0.8358324766159058,-0.5637907981872559,-0.9819067716598511
1771073348863623400,7.31962353515625,-0.6153228878974915,-0.11211899667978287,-0.9467530846595764
1771073348873563100,7.329563232421875,-0.2318280041217804,0.22663484513759613,-0.8839024901390076
1771073348883503000,7.339503173828125,0.22730062901973724,0.4684496819972992,-0.7869635224342346
1771073348893443000,7.349443115234375,0.6842987537384033,0.6548708081245422,-0.6442182064056396
1771073348903383000,7.359383056640625,1.099751591682434,0.7645930051803589,-0.45673179626464844
1771073348913323000,7.369322998046875,1.4566148519515991,0.7976161241531372,-0.2287653684616089
1771073348923263000,7.379262939453125,1.7516928911209106,0.7858982682228088,0.019441060721874237
1771073348933203000,7.389202880859375,1.9732677936553955,0.7432876825332642,0.2665822207927704
1771073348943143000,7.399142822265625,2.120274066925049,0.6921550631523132,0.500940203666687
1771073348953083000,7.409082763671875,2.2172131538391113,0.617586612701416,0.7033402919769287
1771073348963022800,7.41902294921875,2.269411087036133,0.5099949836730957,0.8588688373565674
1771073348972962800,7.428962890625,2.263019561767578,0.38642439246177673,0.9632646441459656
1771073348982902800,7.43890283203125,2.1916468143463135,0.2756369709968567,1.0271804332733154
1771073348992842800,7.4488427734375,2.0616846084594727,0.21598219871520996,1.0655299425125122
1771073349002782500,7.458782470703125,1.900829792022705,0.22450430691242218,1.0974878072738647
1771073349012722400,7.468722412109375,1.754888653755188,0.31505173444747925,1.1241194009780884
1771073349022662400,7.478662353515625,1.6600801944732666,0.5089297294616699,1.128380537033081
1771073349032602400,7.488602294921875,1.628122329711914,0.7528750896453857,1.0921615362167358
1771073349042542300,7.498542236328125,1.6547539234161377,0.9392961859703064,1.0346373319625854
1771073349052482300,7.508482421875,1.6984297037124634,1.024517297744751,0.9877657294273376
1771073349062422300,7.51842236328125,1.730387568473816,1.0170605182647705,0.9760478138923645
1771073349072362200,7.5283623046875,1.7208002805709839,0.8647277355194092,0.969656229019165
1771073349082302200,7.53830224609375,1.6558191776275635,0.588824450969696,0.9291762113571167
1771073349092242200,7.5482421875,1.5578149557113647,0.28309381008148193,0.856738269329071
1771073349102182100,7.55818212890625,1.4534190893173218,-0.06205160543322563,0.781104564666748
1771073349112122000,7.5681220703125,1.3490232229232788,-0.38589176535606384,0.7576687932014465
1771073349122062000,7.57806201171875,1.269128441810608,-0.5158539414405823,0.8599340915679932
1771073349132001800,7.588001708984375,1.3213263750076294,-0.39441385865211487,1.1518163681030273
1771073349141941800,7.597941650390625,1.506682276725769,-0.10146636515855789,1.6066838502883911
1771073349151881700,7.6078818359375,1.6867117881774902,0.1669800728559494,2.0434420108795166
1771073349161821700,7.61782177734375,1.7229307889938354,0.13502216339111328,2.220275640487671
1771073349171761700,7.62776171875,1.3575453758239746,-0.5424855351448059,1.731319785118103
1771073349181701600,7.63770166015625,0.6502103209495544,-1.305214285850525,0.6106624007225037
1771073349191641600,7.6476416015625,-0.018775271251797676,-1.3211932182312012,-0.5685844421386719
1771073349201581600,7.65758154296875,-0.587626039981842,-0.7107971906661987,-1.4580795764923096
1771073349211521500,7.667521484375,-1.0637989044189453,-0.05566002428531647,-2.0397136211395264
1771073349221461500,7.67746142578125,-1.2885695695877075,0.4258391261100769,-2.318812608718872
1771073349231401500,7.6874013671875,-1.2225232124328613,0.8423572182655334,-2.268745183944702
1771073349241341400,7.697341552734375,-0.8166577219963074,1.1779152154922485,-1.9576882123947144
1771073349251281400,7.707281494140625,-0.09440898895263672,1.3558143377304077,-1.4793848991394043
1771073349261221000,7.71722119140625,0.8057388067245483,1.2865722179412842,-0.9254477620124817
1771073349271161000,7.7271611328125,1.6728633642196655,1.0223867893218994,-0.3747064769268036
1771073349281101000,7.73710107421875,2.3343920707702637,0.7624624371528625,0.10466215014457703
1771073349291041000,7.747041015625,2.7264091968536377,0.5834981799125671,0.48389601707458496
1771073349300981000,7.75698095703125,2.8798069953918457,0.450340211391449,0.7416898012161255
1771073349310921000,7.7669208984375,2.8819375038146973,0.32037803530693054,0.8407593369483948
1771073349320861000,7.77686083984375,2.818021774291992,0.148870587348938,0.7448856234550476
1771073349330801000,7.78680078125,2.7509102821350098,-0.016245270147919655,0.48922231793403625
1771073349340740900,7.796740966796875,2.6987123489379883,-0.05352949723601341,0.17496955394744873
1771073349350680800,7.806680908203125,2.611360549926758,0.019973693415522575,-0.09773793816566467
1771073349360620800,7.816620849609375,2.451571226119995,0.1861548274755478,-0.28628960251808167
1771073349370560800,7.826560791015625,2.2299962043762207,0.41518649458885193,-0.391750693321228
1771073349380500500,7.83650048828125,1.9892467260360718,0.6591318845748901,-0.42264336347579956
1771073349390440400,7.8464404296875,1.7708675861358643,0.8913593292236328,-0.393881231546402
1771073349400380400,7.85638037109375,1.6121433973312378,1.0692583322525024,-0.33316120505332947
1771073349410320400,7.8663203125,1.5279874801635742,1.183241605758667,-0.26391905546188354
1771073349420260400,7.87626025390625,1.499225378036499,1.2322437763214111,-0.2181127369403839
1771073349430200300,7.886200439453125,1.5056170225143433,1.2290478944778442,-0.20213377475738525
1771073349440140300,7.896140380859375,1.5450317859649658,1.1938942670822144,-0.20746009051799774
1771073349450080300,7.906080322265625,1.6078822612762451,1.0607362985610962,-0.2277000993490219
1771073349460020200,7.916020263671875,1.6867117881774902,0.8114646077156067,-0.2426137924194336
1771073349469960200,7.925960205078125,1.8038908243179321,0.5440834164619446,-0.23196116089820862
1771073349479900200,7.935900146484375,1.9700719118118286,0.33422645926475525,-0.18295903503894806
1771073349489840000,7.945840087890625,2.177798271179199,0.16804534196853638,-0.10519478470087051
1771073349499780000,7.955780029296875,2.432396411895752,-0.017310533672571182,-0.019973693415522575
1771073349509719800,7.9657197265625,2.715756416320801,-0.2708432674407959,0.08655267208814621
1771073349519659800,7.97565966796875,3.017226219177246,-0.6095971465110779,0.22077588737010956
1771073349529599700,7.985599853515625,3.3421316146850586,-0.9494162201881409,0.39441385865211487
1771073349539539700,7.995539794921875,3.6691675186157227,-1.1869699954986572,0.5957486629486084
1771073349549479700,8.005479736328125,3.9812896251678467,-1.1795132160186768,0.8450203537940979
1771073349559419600,8.015419677734375,4.253997325897217,-0.8620645999908447,1.1241194009780884
1771073349569359600,8.025359619140625,4.4638543128967285,-0.3368896245956421,1.352085828781128
1771073349579299600,8.035299560546875,4.600207805633545,0.3022685647010803,1.4458290338516235
1771073349589239600,8.045239501953125,4.657732009887695,0.9637972712516785,1.3574122190475464
1771073349599179500,8.055179443359375,4.640687942504883,1.4666017293930054,1.0484857559204102
1771073349609119500,8.065119384765625,4.528835296630859,1.6402397155761719,0.5243760347366333
1771073349619059500,8.0750595703125,4.261454105377197,1.4836459159851074,-0.08921582996845245
1771073349628999400,8.08499951171875,3.8630454540252686,1.1843068599700928,-0.6527402997016907
1771073349638939100,8.094939208984375,3.4657020568847656,0.8998814821243286,-0.9755151867866516
1771073349648879000,8.104879150390625,3.146122932434082,0.6431529521942139,-0.99468994140625
1771073349658819000,8.114819091796875,2.8851335048675537,0.4631233811378479,-0.8093340396881104
1771073349668759000,8.124759033203125,2.699777603149414,0.4716454744338989,-0.5142560005187988
1771073349678699000,8.134698974609375,2.5975122451782227,0.6751108169555664,-0.21598219871520996
1771073349688639000,8.144638916015625,2.5836637020111084,0.8764456510543823,-0.05299686640501022
1771073349698579000,8.154578857421875,2.6390573978424072,1.0064078569412231,-0.09560741484165192
1771073349708519000,8.164518798828125,2.7264091968536377,1.0692583322525024,-0.30972540378570557
1771073349718459000,8.174458984375,2.7871291637420654,1.0735194683074951,-0.6410223841667175
1771073349728398800,8.18439892578125,2.7871291637420654,1.0735194683074951,-1.011734127998352
1771073349738338800,8.1943388671875,2.7679543495178223,1.0852373838424683,-1.3068121671676636
1771073349748278800,8.20427880859375,2.760497570037842,1.0468878746032715,-1.4697974920272827
1771073349758218800,8.21421875,2.7658238410949707,1.0234520435333252,-1.5028207302093506
1771073349768158500,8.224158447265625,2.814826011657715,1.0234520435333252,-1.3728585243225098
1771073349778098400,8.234098388671875,2.9245481491088867,1.0468878746032715,-1.091628909111023
1771073349788038400,8.244038330078125,3.0843377113342285,1.1065425872802734,-0.7273087501525879
1771073349797978400,8.253978271484375,3.260106325149536,1.1598057746887207,-0.3459443747997284
1771073349807918300,8.26391845703125,3.418830394744873,1.1938942670822144,0.004527370445430279
1771073349817858300,8.2738583984375,3.543466329574585,1.2120037078857422,0.28256118297576904
1771073349827798300,8.28379833984375,3.6297526359558105,1.200285792350769,0.4540686309337616
1771073349837738200,8.29373828125,3.6649065017700195,1.111868977546692,0.492418110370636
1771073349847678200,8.30367822265625,3.653188467025757,0.9606015086174011,0.406131774187088
1771073349857618200,8.3136181640625,3.6095128059387207,0.806138277053833,0.25379905104637146
1771073349867558100,8.32355810546875,3.5455968379974365,0.7070687413215637,0.11744531989097595
1771073349877498000,8.333498046875,3.468897819519043,0.6740455627441406,0.0492684431374073
1771073349887437800,8.343437744140624,3.3868725299835205,0.6804371476173401,0.036485280841588974
1771073349897377800,8.353377685546874,3.3016514778137207,0.7166560888290405,0.04181159660220146
1771073349907317800,8.36331787109375,3.2174956798553467,0.7720498442649841,0.0034621069207787514
1771073349917257700,8.3732578125,3.131209373474121,0.7997466921806335,-0.0913463607430458
1771073349927197700,8.38319775390625,3.0342702865600586,0.7592666745185852,-0.20852535963058472
1771073349937137400,8.393137451171874,2.9362661838531494,0.6751108169555664,-0.31931278109550476
1771073349947077400,8.403077392578124,2.8467838764190674,0.6111950278282166,-0.38535910844802856
1771073349957017300,8.413017333984374,2.755171298980713,0.5781718492507935,-0.41838228702545166
1771073349966957000,8.42295703125,2.620948076248169,0.513190746307373,-0.43329599499702454
1771073349976897000,8.43289697265625,2.437722682952881,0.39920756220817566,-0.4343612492084503
1771073349986837000,8.4428369140625,2.2662153244018555,0.3225085735321045,-0.4205128252506256
1771073349996777000,8.45277685546875,2.1362531185150146,0.3139864504337311,-0.4109254479408264
1771073350006716700,8.462716552734374,2.02972674369812,0.3779022693634033,-0.4173170328140259
1771073350016656600,8.47265673828125,1.9327877759933472,0.49827706813812256,-0.4311654567718506
1771073350026596600,8.4825966796875,1.8582192659378052,0.6420876383781433,-0.448209673166275
1771073350036536300,8.492536376953124,1.8198697566986084,0.7869635224342346,-0.46099284291267395
1771073350046476300,8.502476318359374,1.8156087398529053,0.9190561771392822,-0.47058022022247314
1771073350056416300,8.512416259765626,1.8528929948806763,1.049018383026123,-0.46205809712409973
1771073350066356200,8.522356201171876,1.9455708265304565,1.1779152154922485,-0.4077296555042267
1771073350076296000,8.5322958984375,2.074467897415161,1.2940289974212646,-0.32037803530693054
1771073350086236000,8.54223583984375,2.208691120147705,1.3867069482803345,-0.21172115206718445
1771073350096175900,8.55217578125,2.323739528656006,1.4548838138580322,-0.10412952303886414
1771073350106115600,8.562115478515626,2.3993732929229736,1.4847111701965332,-0.0018642114009708166
1771073350116055600,8.5720556640625,2.416417360305786,1.5017554759979248,0.0918789878487587
1771073350125995500,8.58199560546875,2.378067970275879,1.4772543907165527,0.17283903062343597
1771073350135935500,8.591935546875,2.299238443374634,1.359010100364685,0.1856221854686737
1771073350145875200,8.601875244140626,2.188451051712036,1.1257174015045166,0.04287686198949814
1771073350155815200,8.611815185546876,2.0318572521209717,0.8135951161384583,-0.25326642394065857
1771073350165755100,8.621755126953126,1.7953686714172363,0.46099284291267395,-0.617586612701416
1771073350175695000,8.631695068359376,1.4619412422180176,0.08175898343324661,-0.9627320170402527
1771073350185634800,8.641634765625,1.0656630992889404,-0.31878015398979187,-1.2386353015899658
1771073350195574800,8.65157470703125,0.7045387625694275,-0.7022750377655029,-1.3984248638153076
1771073350215454700,8.671454833984376,0.18149429559707642,-1.1017489433288574,-1.2141342163085938
1771073350225394700,8.681394775390626,-0.010253162123262882,-0.9973530769348145,-0.8764456510543823
1771073350235334400,8.69133447265625,-0.12104058265686035,-0.7459508776664734,-0.4684496819972992
1771073350245274400,8.7012744140625,-0.10612688958644867,-0.4199801981449127,-0.12223900109529495
1771073350255214300,8.71121435546875,0.021704746410250664,-0.10892320424318314,0.0918789878487587
1771073350265154300,8.721154296875,0.18788588047027588,0.0636495053768158,0.14407691359519958
1771073350275094300,8.73109423828125,0.3380880355834961,0.028495801612734795,0.07803056389093399
1771073350285034200,8.7410341796875,0.43928807973861694,-0.17816534638404846,-0.04767054691910744
1771073350294974200,8.75097412109375,0.48509442806243896,-0.4870918095111847,-0.17869797348976135
1771073350304914200,8.7609140625,0.4701807498931885,-0.84821617603302,-0.28735485672950745
1771073350314854100,8.770854248046875,0.3902859687805176,-1.1443594694137573,-0.37683701515197754
1771073350324794000,8.780794189453125,0.26991117000579834,-1.284974217414856,-0.4737760126590729
1771073350334734000,8.790734130859375,0.13888375461101532,-1.3265196084976196,-0.6090644598007202
1771073350344674000,8.800674072265625,0.025965800508856773,-1.287104845046997,-0.7677887678146362
1771073350354613800,8.81061376953125,-0.03688475489616394,-1.1624689102172852,-0.8849677443504333
1771073350364553700,8.8205537109375,-0.04008054360747337,-0.9547425508499146,-0.927578330039978
1771073350374493700,8.83049365234375,0.02277000993490219,-0.7107971906661987,-0.8562056422233582
1771073350384433700,8.84043359375,0.1591237634420395,-0.5126581192016602,-0.7209171652793884
1771073350394373600,8.85037353515625,0.3199785649776459,-0.35286858677864075,-0.5589970946311951
1771073350404313600,8.860313720703125,0.45739758014678955,-0.21331904828548431,-0.372575968503952
1771073350414253600,8.870253662109375,0.5468797087669373,-0.06418213248252869,-0.18295903503894806
1771073350424193500,8.880193603515625,0.5735113024711609,0.09454214572906494,-0.003994738683104515
1771073350434133500,8.890133544921875,0.560728132724762,0.25859275460243225,0.14407691359519958
1771073350444073500,8.900073486328125,0.5447492003440857,0.4577970504760742,0.2559295892715454
1771073350454013400,8.910013427734375,0.5191828608512878,0.6431529521942139,0.31451907753944397
1771073350463953400,8.919953369140625,0.45846283435821533,0.7720498442649841,0.303866446018219
1771073350473893400,8.929893310546875,0.35939332842826843,0.8210519552230835,0.22290641069412231
1771073350483833000,8.9398330078125,0.22836589813232422,0.7763108611106873,0.08761793375015259
1771073350493773000,8.94977294921875,0.08242477476596832,0.6570013761520386,-0.07110634446144104
1771073350503713000,8.959713134765625,-0.06671213358640671,0.45992758870124817,-0.20319904386997223
1771073350513653000,8.969653076171875,-0.19134798645973206,0.20532956719398499,-0.26391905546188354
1771073350523593000,8.979593017578125,-0.25206801295280457,0.012516847811639309,-0.21278640627861023
1771073350533533000,8.989532958984375,-0.2275669425725937,-0.08974846452474594,-0.04980107396841049
1771073350543473000,8.999472900390625,-0.13915006816387177,-0.13981585204601288,0.14407691359519958
1771073350553412900,9.009412841796875,-0.014514217153191566,-0.20160114765167236,0.30493173003196716
1771073350563352800,9.019352783203125,0.12183953076601028,-0.32410645484924316,0.4263717830181122
1771073350573292800,9.029292724609375,0.2816290855407715,-0.5105276107788086,0.5531381368637085
1771073350583232800,9.039232666015625,0.5032039284706116,-0.6159886717796326,0.7544729709625244
1771073350593172700,9.0491728515625,0.8057388067245483,-0.5478118062019348,1.0751173496246338
1771073350603112700,9.05911279296875,1.1508841514587402,-0.3741738498210907,1.4660691022872925
1771073350613052400,9.069052490234375,1.4140043258666992,-0.21544957160949707,1.8229323625564575
1771073350622992400,9.078992431640625,1.5503580570220947,-0.040746334940195084,2.0743346214294434
1771073350632932400,9.088932373046875,1.5844465494155884,0.07004108279943466,2.185122013092041
1771073350642872300,9.098872314453125,1.4917685985565186,-0.02157158963382244,2.0700736045837402
1771073350652812300,9.108812255859375,1.2840421199798584,-0.237820103764534,1.6705996990203857
1771073350662752300,9.118752197265625,1.0709894895553589,-0.42850229144096375,1.1145321130752563
1771073350672692200,9.128692138671875,0.9410272836685181,-0.5233107805252075,0.5637907981872559
1771073350682632200,9.138632080078125,0.8675240874290466,-0.5957486629486084,0.09933583438396454
1771073350692572200,9.148572265625,0.782302975654602,-0.7193192839622498,-0.26818013191223145
1771073350702512000,9.15851220703125,0.6896250247955322,-0.8311719298362732,-0.49934232234954834
1771073350712452000,9.1684521484375,0.585229218006134,-0.8769782781600952,-0.5472791790962219
1771073350722392000,9.17839208984375,0.47124600410461426,-0.8301066756248474,-0.4066644012928009
1771073350732332000,9.18833203125,0.3977428078651428,-0.696948766708374,-0.138217955827713
1771073350742271700,9.198271728515625,0.3892207145690918,-0.5115928649902344,0.15899059176445007
1771073350752211700,9.208211669921875,0.463789165019989,-0.30067065358161926,0.4103928208351135
1771073350762151700,9.218151611328125,0.6044039726257324,-0.10892320424318314,0.5488771200180054
1771073350772091600,9.228091552734375,0.7716503739356995,0.05086633935570717,0.5584644675254822
1771073350782031600,9.238031494140625,0.937831461429596,0.21278640627861023,0.4679170548915863
1771073350791971600,9.2479716796875,1.0837725400924683,0.3459443747997284,0.31451907753944397
1771073350801911600,9.25791162109375,1.1902989149093628,0.4301002025604248,0.12809795141220093
1771073350811851500,9.2678515625,1.2531495094299316,0.49827706813812256,-0.04660528525710106
1771073350821791500,9.27779150390625,1.2744548320770264,0.5494097471237183,-0.17017586529254913
1771073350831731500,9.2877314453125,1.2744548320770264,0.5984118580818176,-0.2191779911518097
1771073350841671400,9.29767138671875,1.2616716623306274,0.6420876383781433,-0.19361166656017303
1771073350851611400,9.307611328125,1.2424968481063843,0.6740455627441406,-0.11797794699668884
1771073350861551000,9.317551025390625,1.2105389833450317,0.6623276472091675,-0.013582111336290836
1771073350871491000,9.327490966796875,1.1626020669937134,0.5984118580818176,0.08868319541215897
1771073350881431000,9.33743115234375,1.0848379135131836,0.4769718050956726,0.17816534638404846
1771073350891371000,9.34737109375,0.9740504622459412,0.28309381008148193,0.23568958044052124
1771073350901311000,9.35731103515625,0.8185219764709473,0.018908429890871048,0.23675484955310822
1771073350911251000,9.3672509765625,0.6171871423721313,-0.2708432674407959,0.14514216780662537
1771073350921191000,9.37719091796875,0.4041343927383423,-0.48496127128601074,-0.05512739345431328
1771073350931131000,9.387130859375,0.2518016993999481,-0.5318328738212585,-0.3278348743915558
1771073350941070800,9.39707080078125,0.1772332340478897,-0.45619916915893555,-0.5781718492507935
1771073350951010800,9.4070107421875,0.1346226930618286,-0.31558436155319214,-0.7422224283218384
1771073350960950800,9.41695068359375,0.11438268423080444,-0.10253162682056427,-0.7656582593917847
1771073350970890800,9.426890869140625,0.13781848549842834,0.15206637978553772,-0.6293044686317444
1771073350980830700,9.436830810546875,0.2155827283859253,0.37577176094055176,-0.3693801760673523
1771073350990770400,9.4467705078125,0.32637014985084534,0.45566651225090027,-0.07430213689804077
1771073351000710400,9.45671044921875,0.4360923171043396,0.3491401672363281,0.17283903062343597
1771073351010650400,9.466650390625,0.474441796541214,0.11158636957406998,0.3091927766799927
1771073351020590300,9.47659033203125,0.3977428078651428,-0.2047969400882721,0.31451907753944397
1771073351030530300,9.4865302734375,0.22730062901973724,-0.508397102355957,0.2708432674407959
1771073351040470300,9.49647021484375,0.011052110232412815,-0.635163426399231,0.30599698424339294
1771073351050410200,9.50641015625,-0.1934785097837448,-0.5414202213287354,0.4583296775817871
1771073351060350200,9.51635009765625,-0.41292282938957214,-0.35286858677864075,0.6287718415260315
1771073351070290200,9.526290283203124,-0.654737651348114,-0.15153375267982483,0.7150582075119019
1771073351080230100,9.536230224609374,-0.901878833770752,-0.011984216049313545,0.6607297658920288
1771073351090170000,9.546170166015624,-1.114931583404541,0.11371689289808273,0.5094623565673828
1771073351100110000,9.556110107421874,-1.2630032300949097,0.2277000993490219,0.303866446018219
1771073351110050000,9.566050048828124,-1.3269190788269043,0.2671148478984833,0.08016108721494675
1771073351119989800,9.57598974609375,-1.278982162475586,0.16804534196853638,-0.11371689289808273
1771073351129929700,9.5859296875,-1.131975769996643,-0.06311687082052231,-0.24367906153202057
1771073351139869700,9.59586962890625,-0.9508809447288513,-0.38589176535606384,-0.31611698865890503
1771073351149809700,9.6058095703125,-0.8358324766159058,-0.7118624448776245,-0.3640538454055786
1771073351159749600,9.61574951171875,-0.859268307685852,-0.9174582958221436,-0.41838228702545166
1771073351169689600,9.625689697265624,-0.9977525472640991,-0.9867004752159119,-0.5206475853919983
1771073351179629600,9.635629638671874,-1.1671295166015625,-0.9643298983573914,-0.7070687413215637
1771073351189569500,9.645569580078124,-1.278982162475586,-0.8950877785682678,-0.9829720258712769
1771073351199509500,9.655509521484374,-1.3215926885604858,-0.7864308953285217,-1.310007929801941
1771073351209449500,9.665449462890624,-1.3024179935455322,-0.651142418384552,-1.601890206336975
1771073351219389400,9.675389404296874,-1.2225232124328613,-0.4913528561592102,-1.7840502262115479
1771073351229329400,9.685329345703124,-1.0882999897003174,-0.3134538233280182,-1.8053555488586426
1771073351239269400,9.695269287109374,-0.9285104274749756,-0.11318425834178925,-1.6583491563796997
1771073351249209000,9.705208984375,-0.7687208652496338,0.13608743250370026,-1.3654016256332397
1771073351259149000,9.715149169921874,-0.6174534559249878,0.43329599499702454,-0.9584709405899048
1771073351269089000,9.725089111328124,-0.4427502155303955,0.7496792674064636,-0.48016759753227234
1771073351279029000,9.735029052734374,-0.22969746589660645,1.011734127998352,0.0023968431632965803
1771073351288969000,9.744968994140624,0.020639482885599136,1.2492879629135132,0.4434159994125366
1771073351298909000,9.754908935546876,0.2773680090904236,1.3941638469696045,0.7970834970474243
1771073351308849000,9.764848876953126,0.4914860129356384,1.3867069482803345,1.0282456874847412
1771073351318788900,9.774788818359376,0.5830987095832825,1.166197419166565,1.1134668588638306
1771073351328728600,9.784728515625,0.5383576154708862,0.7848330140113831,1.0655299425125122
1771073351338668500,9.79466845703125,0.41585230827331543,0.3544664680957794,0.9227846264839172
1771073351348608500,9.8046083984375,0.2720417082309723,-0.04394212365150452,0.7129276990890503
1771073351358548500,9.814548583984376,0.1399490088224411,-0.3464770019054413,0.4593949317932129
1771073351368488200,9.82448828125,0.04301001876592636,-0.46046021580696106,0.19414429366588593
1771073351378428200,9.83442822265625,-0.02197106182575226,-0.4221107065677643,-0.040213704109191895
1771073351388368100,9.8443681640625,-0.07949529588222504,-0.25379905104637146,-0.16484954953193665
1771073351398307800,9.854307861328126,-0.11997532099485397,0.0018642114009708166,-0.12543480098247528
1771073351408247800,9.864247802734376,-0.118910051882267,0.2649843394756317,0.0727042406797409
1771073351418187800,9.874187744140626,-0.06777740269899368,0.5547360181808472,0.3613906800746918
1771073351428127700,9.884127685546876,0.01957421936094761,0.844487726688385,0.6415550112724304
1771073351438067500,9.8940673828125,0.10799109935760498,1.0255825519561768,0.8673909306526184
1771073351448007400,9.90400732421875,0.19747324287891388,1.0671278238296509,1.0452899932861328
1771073351457947400,9.913947509765626,0.30719539523124695,0.9297088384628296,1.1603384017944336
1771073351467887000,9.92388720703125,0.40946072340011597,0.5941507816314697,1.2061448097229004
1771073351477827000,9.9338271484375,0.49468180537223816,0.040213704109191895,1.1326415538787842
1771073351487767000,9.94376708984375,0.5926860570907593,-0.5829655528068542,0.9568730592727661
1771073351497707000,9.95370703125,0.7119956016540527,-0.9835046529769897,0.7768434882164001
1771073351507646700,9.963646728515625,0.7801724672317505,-1.128380537033081,0.6394245028495789
1771073351517586700,9.973586669921875,0.749279797077179,-1.0580731630325317,0.546746551990509
1771073351527526700,9.983526611328125,0.6342313289642334,-0.8865656852722168,0.4679170548915863
1771073351547406300,10.00340625,0.28375959396362305,-0.5073317885398865,0.2761695981025696
1771073351557346300,10.01334619140625,0.12929637730121613,-0.2996053993701935,0.1771000772714615
1771073351567286300,10.023286376953125,0.05898897349834442,-0.13342426717281342,0.08335687965154648
1771073351577226000,10.03322607421875,0.08135951310396194,-0.02583264373242855,-0.002929474925622344
1771073351587166000,10.043166015625,0.1676458716392517,0.07430213689804077,-0.07430213689804077
1771073351597106000,10.05310595703125,0.29760801792144775,0.20532956719398499,-0.12117373943328857
1771073351607046000,10.0630458984375,0.4680502116680145,0.3747064769268036,-0.14674006402492523
1771073351616985600,10.072985595703125,0.673646092414856,0.5408875942230225,-0.15526217222213745
1771073351626925600,10.082925537109375,0.9090693593025208,0.6655234694480896,-0.1392832249403
1771073351636865500,10.092865478515625,1.1519495248794556,0.7305045127868652,-0.09241162240505219
1771073351646805500,10.102805419921875,1.3671327829360962,0.7337003350257874,-0.01784316636621952
1771073351656745500,10.112745361328125,1.5247917175292969,0.6676539778709412,0.08442214131355286
1771073351666685400,10.122685546875,1.6014907360076904,0.5355613231658936,0.1952095627784729
1771073351676625400,10.13262548828125,1.5929685831069946,0.3651190996170044,0.303866446018219
1771073351686565400,10.1425654296875,1.5226612091064453,0.1957421898841858,0.41465386748313904
1771073351696505300,10.15250537109375,1.4331790208816528,0.03701791167259216,0.5328981280326843
1771073351706445300,10.1624453125,1.3447622060775757,-0.11957584321498871,0.6447508335113525
1771073351716385000,10.172385009765625,1.2488884925842285,-0.28256118297576904,0.7299718856811523
1771073351726325000,10.182324951171875,1.125317931175232,-0.4679170548915863,0.7544729709625244
1771073351736265000,10.192264892578125,0.9548757076263428,-0.622380256652832,0.6831002831459045
1771073351746205000,10.202204833984375,0.7503450512886047,-0.6554034352302551,0.5115928649902344
1771073351756145000,10.212144775390625,0.5372923612594604,-0.5605949759483337,0.284691721200943
1771073351766084900,10.2220849609375,0.350871205329895,-0.3869570195674896,0.036485280841588974
1771073351776024800,10.23202490234375,0.19960378110408783,-0.1994706094264984,-0.19467693567276
1771073351785964800,10.24196484375,0.06325002759695053,-0.03009369783103466,-0.38642439246177673
1771073351795904800,10.25190478515625,-0.07203845679759979,0.08388951420783997,-0.5366265773773193
1771073351805844700,10.2618447265625,-0.19560903310775757,0.1712411344051361,-0.6239781975746155
1771073351815784700,10.27178466796875,-0.3021354079246521,0.2553969621658325,-0.6250434517860413
1771073351825724700,10.281724609375,-0.4139880836009979,0.26285380125045776,-0.5121254920959473
1771073351835664600,10.29166455078125,-0.5098618268966675,0.15952323377132416,-0.23622220754623413
1771073351845604400,10.301604248046875,-0.5066660046577454,0.06578002870082855,0.23568958044052124
1771073351855544300,10.31154443359375,-0.4342280924320221,-0.06524740159511566,0.793887734413147
1771073351865484300,10.321484375,-0.4480765163898468,-0.3400854170322418,1.2072100639343262
1771073351875424300,10.33142431640625,-0.654737651348114,-0.7470161318778992,1.2764521837234497
1771073351885364200,10.3413642578125,-0.9839041233062744,-1.0655299425125122,0.9920267462730408
1771073351895304200,10.35130419921875,-1.3301148414611816,-1.0804436206817627,0.4647212624549866
1771073351915184000,10.37118408203125,-1.8552898168563843,-0.27297380566596985,-0.7550055980682373
1771073351925124000,10.3811240234375,-1.9682077169418335,0.2553969621658325,-1.2215911149978638
1771073351935064000,10.39106396484375,-1.8893781900405884,0.7134603261947632,-1.4697974920272827
1771073351945004000,10.401004150390625,-1.6219969987869263,1.0170605182647705,-1.4516880512237549
1771073351954944000,10.410944091796875,-1.2555463314056396,1.140631079673767,-1.1821763515472412
1771073351964883700,10.4208837890625,-0.9125314950942993,1.0564751625061035,-0.7347655892372131
1771073351974823700,10.43082373046875,-0.6792387366294861,0.8583361506462097,-0.2191779911518097
1771073351984763600,10.440763671875,-0.5993439555168152,0.4929507374763489,0.24847275018692017
1771073351994703600,10.45070361328125,-0.6302366256713867,-0.05992107838392258,0.5254412889480591
1771073352004643600,10.4606435546875,-0.7069355845451355,-0.6543381810188293,0.538224458694458
1771073352014583600,10.47058349609375,-0.7719166874885559,-1.044224739074707,0.32836753129959106
1771073352024523500,10.4805234375,-0.7985482811927795,-1.1432942152023315,0.010918952524662018
1771073352034463500,10.49046337890625,-0.7942872047424316,-0.9973530769348145,-0.2756369709968567
1771073352044403500,10.500403564453125,-0.7314366698265076,-0.6703171730041504,-0.45566651225090027
1771073352054343400,10.510343505859375,-0.6121271252632141,-0.2900180220603943,-0.5036033987998962
1771073352064283400,10.520283447265625,-0.47364285588264465,0.08921582996845245,-0.41518649458885193
1771073352074223400,10.530223388671875,-0.3543333113193512,0.4173170328140259,-0.21278640627861023
1771073352084163300,10.540163330078125,-0.29574382305145264,0.6516750454902649,0.0727042406797409
1771073352094103000,10.55010302734375,-0.2786996066570282,0.8370308876037598,0.3837612271308899
1771073352104043000,10.56004296875,-0.30000486969947815,0.8530098795890808,0.6255760788917542
1771073352113983000,10.56998291015625,-0.37989965081214905,0.6729803085327148,0.7704519033432007
1771073352123923000,10.5799228515625,-0.5002744197845459,0.393881231546402,0.8620645999908447
1771073352133863000,10.58986279296875,-0.6153228878974915,0.11691268533468246,0.9174582958221436
1771073352143803000,10.599802978515624,-0.6952176690101624,-0.1952095627784729,0.9057404398918152
1771073352153742800,10.609742919921874,-0.7325019240379333,-0.5488771200180054,0.7800393104553223
1771073352163682800,10.619682861328124,-0.7314366698265076,-0.8578035235404968,0.45726442337036133
1771073352173622800,10.629622802734374,-0.683499813079834,-0.8652604222297668,-0.03275685757398605
1771073352183562800,10.639562744140624,-0.6046702861785889,-0.5882918238639832,-0.5472791790962219
1771073352193502700,10.649502685546874,-0.5269060134887695,-0.25806012749671936,-0.9179909229278564
1771073352203442700,10.659442626953124,-0.44594597816467285,0.02210422046482563,-0.9829720258712769
1771073352213382700,10.669382568359374,-0.39800912141799927,0.20532956719398499,-0.6836329698562622
1771073352223322400,10.679322265625,-0.3873564898967743,0.34274858236312866,-0.15419691801071167
1771073352233262300,10.689262451171874,-0.3830954432487488,0.32037803530693054,0.3986749053001404
1771073352243202300,10.699202392578124,-0.3213101327419281,0.016777902841567993,0.7523424625396729
1771073352253142300,10.709142333984374,-0.15832480788230896,-0.4498075842857361,0.8279761672019958
1771073352263082200,10.719082275390624,0.07816372066736221,-0.8439550995826721,0.7608645558357239
1771073352273022200,10.729022216796874,0.3604585826396942,-1.0282456874847412,0.6820350289344788
1771073352282962200,10.738962158203124,0.6384924054145813,-1.016527771949768,0.6159886717796326
1771073352292902100,10.748902099609374,0.8206524848937988,-0.8663256764411926,0.5147886276245117
1771073352302842000,10.758842041015624,0.8600672483444214,-0.5563339591026306,0.34754225611686707
1771073352322722000,10.77872216796875,0.5735113024711609,0.17763271927833557,-0.16378428041934967
1771073352332662000,10.788662109375,0.2763027548789978,0.2756369709968567,-0.5291697382926941
1771073352342602000,10.79860205078125,-0.0294279083609581,0.23835274577140808,-0.8636624813079834
1771073352352541700,10.808541748046874,-0.23395852744579315,0.17976324260234833,-1.0575405359268188
1771073352362481700,10.818481689453124,-0.29574382305145264,0.11797794699668884,-1.1416963338851929
1771073352372421600,10.828421630859374,-0.2733732759952545,0.04554001986980438,-1.2024163007736206
1771073352382361600,10.838361572265624,-0.19241324067115784,0.008255792781710625,-1.2492879629135132
1771073352392301600,10.848301513671874,-0.06351634114980698,0.014647374860942364,-1.2652668952941895
1771073352402241500,10.858241455078126,0.11118689179420471,0.027430538088083267,-1.2460922002792358
1771073352412181500,10.868181396484376,0.32530489563941956,0.01784316636621952,-1.1821763515472412
1771073352422121500,10.87812158203125,0.5649892091751099,0.003994738683104515,-1.0681930780410767
1771073352432061400,10.8880615234375,0.7844334840774536,0.027430538088083267,-0.9041424989700317
1771073352442001400,10.89800146484375,0.970854640007019,0.11371689289808273,-0.693220317363739
1771073352451941400,10.90794140625,1.1583410501480103,0.22983063757419586,-0.4737760126590729
1771073352461881300,10.91788134765625,1.3426316976547241,0.21598219871520996,-0.3075948655605316
1771073352471821000,10.927821044921876,1.4587453603744507,0.016777902841567993,-0.19254639744758606
1771073352481761000,10.937760986328126,1.476854920387268,-0.18455693125724792,-0.06684529036283493
1771073352491701000,10.947700927734376,1.4246569871902466,-0.2836264371871948,0.12277163565158844
1771073352501641000,10.957640869140626,1.3223916292190552,-0.2878875136375427,0.360325425863266
1771073352511581000,10.967580810546876,1.2105389833450317,-0.22290641069412231,0.5701823830604553
1771073352521521000,10.97752099609375,1.1072083711624146,-0.11318425834178925,0.7150582075119019
1771073352531460900,10.9874609375,1.0198568105697632,0.021038956940174103,0.7928224802017212
1771073352541400800,10.99740087890625,0.9761809706687927,0.16911059617996216,0.8141277432441711
1771073352551340800,11.0073408203125,0.9644630551338196,0.2980075180530548,0.802409827709198
1771073352561280800,11.01728076171875,0.9388967156410217,0.3597927987575531,0.7715172171592712
1771073352571220700,11.027220703125,0.849414587020874,0.393881231546402,0.7289066314697266
1771073352581160700,11.03716064453125,0.6992124319076538,0.4013380706310272,0.6692518591880798
1771073352591100700,11.0471005859375,0.5202481150627136,0.383228600025177,0.5829655528068542
1771073352601040400,11.057040283203126,0.3221091032028198,0.3278348743915558,0.48496127128601074
1771073352610980400,11.06698046875,0.11757847666740417,0.2788327634334564,0.4221107065677643
1771073352620920300,11.07692041015625,-0.059255290776491165,0.261788547039032,0.4593949317932129
1771073352630860300,11.0868603515625,-0.13595427572727203,0.2894853949546814,0.6703171730041504
1771073352640800300,11.09680029296875,-0.08908267319202423,0.3704454302787781,1.0623341798782349
1771073352650740200,11.106740234375,-0.034754227846860886,0.33422645926475525,1.529984951019287
1771073352660680200,11.11668017578125,-0.11464899778366089,0.08282424509525299,1.8303892612457275
1771073352670620200,11.1266201171875,-0.37563860416412354,-0.3454117476940155,1.731319785118103
1771073352680560000,11.13656005859375,-0.6813692450523376,-1.086835265159607,1.096422553062439
1771073352690500000,11.1465,-1.030775785446167,-1.4447637796401978,0.26764747500419617
1771073352700440000,11.156440185546876,-1.395095944404602,-1.1400984525680542,-0.5110602378845215
1771073352710380000,11.166380126953126,-1.7562202215194702,-0.4881570637226105,-1.1129342317581177
1771073352720320000,11.176320068359376,-2.033188819885254,0.030626330524683,-1.527321696281433
1771073352730259700,11.186259765625,-2.0896477699279785,0.04660528525710106,-1.736113429069519
1771073352740199700,11.19619970703125,-1.9255971908569336,-0.2708432674407959,-1.6349133253097534
1771073352750139600,11.2061396484375,-1.626258134841919,-0.6820350289344788,-1.4005553722381592
1771073352760079400,11.216079345703125,-1.337571620941162,-0.9856351613998413,-1.2013510465621948
1771073352770019300,11.226019287109375,-1.1053441762924194,-1.1315762996673584,-1.0404962301254272
1771073352779959300,11.235959228515625,-0.9295756816864014,-1.0697909593582153,-0.8487488031387329
1771073352789899300,11.245899169921875,-0.8155924677848816,-0.8290414214134216,-0.5419528484344482
1771073352799839000,11.2558388671875,-0.7495461106300354,-0.4679170548915863,-0.1765674501657486
1771073352809779000,11.265779052734375,-0.6558029055595398,-0.1483379602432251,0.11318425834178925
1771073352819719000,11.275718994140625,-0.5173186659812927,-0.0141147430986166,0.25912538170814514
1771073352829658600,11.28565869140625,-0.37031227350234985,-0.0141147430986166,0.2655169665813446
1771073352839598600,11.2955986328125,-0.1892174482345581,-0.04607265070080757,0.21118851006031036
1771073352849538600,11.30553857421875,0.06857634335756302,-0.08016108721494675,0.2005358785390854
1771073352859478500,11.315478515625,0.35832804441452026,-0.06311687082052231,0.26338642835617065
1771073352869418200,11.325418212890625,0.615056574344635,0.025300011038780212,0.36671701073646545
1771073352879358200,11.335358154296875,0.8174566626548767,0.1243695318698883,0.4764391779899597
1771073352889298200,11.345298095703125,0.9687241315841675,0.23515695333480835,0.5637907981872559
1771073352899238000,11.35523779296875,1.0528799295425415,0.3842938542366028,0.6330329179763794
1771073352909177900,11.365177734375,1.0166609287261963,0.5675191879272461,0.6862961053848267
1771073352919117800,11.375117919921875,0.8334356546401978,0.7496792674064636,0.7193192839622498
1771073352929057800,11.385057861328125,0.5149217844009399,0.8700540661811829,0.7097318768501282
1771073352938997500,11.39499755859375,0.10586057603359222,0.8796414732933044,0.6362286806106567
1771073352948937500,11.4049375,-0.34794172644615173,0.7432876825332642,0.49454864859580994
1771073352958877400,11.41487744140625,-0.7815040349960327,0.550475001335144,0.3123885691165924
1771073352968817200,11.424817138671875,-1.1085399389266968,0.41305598616600037,0.13981585204601288
1771073352978757000,11.434757080078125,-1.206544280052185,0.48016759753227234,0.015180006623268127
1771073352988697000,11.444697021484375,-1.0861694812774658,0.571780264377594,0.004527370445430279
1771073352998637000,11.454636962890625,-0.8869651556015015,0.6005423665046692,0.13022847473621368
1771073353008576800,11.46457666015625,-0.6600639820098877,0.5898897647857666,0.29747486114501953
1771073353018516700,11.474516845703125,-0.5151881575584412,0.5323655009269714,0.4721781015396118
1771073353028456700,11.484456787109375,-0.524775505065918,0.6154560446739197,0.5829655528068542
1771073353038396700,11.494396728515625,-0.5524723529815674,0.8764456510543823,0.6404897570610046
1771073353048336600,11.504336669921875,-0.4001396596431732,1.1715236902236938,0.772582471370697
1771073353058276600,11.514276611328125,-0.06032055243849754,1.4836459159851074,0.9707214832305908
1771073353068216300,11.52421630859375,0.3327617347240448,1.7307871580123901,1.1017489433288574
1771073353078156300,11.53415625,0.6576671600341797,1.7638102769851685,0.9973530769348145
1771073353088096300,11.54409619140625,0.819587230682373,1.4602100849151611,0.5872265696525574
1771073353098036200,11.5540361328125,0.8142609000205994,1.0266478061676025,0.0141147430986166
1771073353107976200,11.56397607421875,0.7428882122039795,0.7006771564483643,-0.48016759753227234
1771073353117916200,11.573916259765625,0.6203829050064087,0.48549389839172363,-0.8476835489273071
1771073353127856000,11.583856201171875,0.4446144104003906,0.2788327634334564,-1.1076078414916992
1771073353137796000,11.593796142578125,0.2763027548789978,0.04127896577119827,-1.2343742847442627
1771073353147736000,11.603736083984375,0.16977639496326447,-0.1344895362854004,-1.2290478944778442
1771073353157676000,11.613676025390625,0.14847111701965332,-0.25486433506011963,-1.1171952486038208
1771073353167616000,11.623615966796875,0.2347574681043625,-0.35393384099006653,-0.9478183388710022
1771073353177556000,11.633555908203125,0.4222438633441925,-0.4114580750465393,-0.7699192762374878
1771073353187496000,11.643495849609375,0.6715155839920044,-0.4221107065677643,-0.6325002908706665
1771073353197435600,11.653435546875,0.9442230463027954,-0.4114580750465393,-0.5664539337158203
1771073353207375600,11.663375732421875,1.2041473388671875,-0.39974018931388855,-0.5611276030540466
1771073353217315600,11.673315673828125,1.4246569871902466,-0.3848264813423157,-0.5558013319969177
1771073353227255600,11.683255615234375,1.5897728204727173,-0.3123885691165924,-0.4929507374763489
1771073353237195500,11.693195556640624,1.6792550086975098,-0.18775272369384766,-0.34274858236312866
1771073353247135500,11.703135498046874,1.7154738903045654,-0.06418213248252869,-0.110521100461483
1771073353257075500,11.713075439453124,1.7112128734588623,0.05725792050361633,0.1675127148628235
1771073353267015400,11.723015380859374,1.6931034326553345,0.16378428041934967,0.45619916915893555
1771073353276955400,11.732955322265624,1.6771245002746582,0.21704746782779694,0.7097318768501282
1771073353286895400,11.742895263671874,1.6526234149932861,0.20106850564479828,0.8791088461875916
1771073353296835300,11.75283544921875,1.5887075662612915,0.10839057713747025,0.9345025420188904
1771073353306775300,11.762775390625,1.4608758687973022,-0.11424952745437622,0.8620645999908447
1771073353316715300,11.77271533203125,1.2424968481063843,-0.4082622826099396,0.6564686894416809
1771073353326655000,11.782655029296874,0.9740504622459412,-0.6213150024414062,0.3507380485534668
1771073353336595000,11.792594970703124,0.73649662733078,-0.6287718415260315,-0.007190529722720385
1771073353346535000,11.802534912109374,0.5937513113021851,-0.39547911286354065,-0.3597927987575531
1771073353356475000,11.812474853515624,0.5213133692741394,-0.13662005960941315,-0.6548708081245422
1771073353366414800,11.822414794921874,0.47657233476638794,0.011451584286987782,-0.827443540096283
1771073353376354800,11.832354736328124,0.4307659864425659,0.07856319099664688,-0.8764456510543823
1771073353386294800,11.842294677734374,0.3700459599494934,0.11584742367267609,-0.851944625377655
1771073353396234800,11.85223486328125,0.2869553864002228,0.08495477586984634,-0.8306393027305603
1771073353406174700,11.8621748046875,0.16551533341407776,-0.03435475379228592,-0.8157256245613098
1771073353416114700,11.87211474609375,0.03235738351941109,-0.1898832470178604,-0.7273087501525879
1771073353426054700,11.8820546875,-0.07310371845960617,-0.24421168863773346,-0.5238434076309204
1771073353435994600,11.89199462890625,-0.06458161026239395,-0.2516685426235199,-0.16804534196853638
1771073353445934300,11.901934326171874,0.061119500547647476,-0.2697780132293701,0.3273022472858429
1771073353455874300,11.911874267578124,0.15592797100543976,-0.2857569754123688,0.8290414214134216
1771073353465814300,11.921814208984374,0.0003994738799519837,-0.38056543469429016,1.128380537033081
1771073353475754200,11.931754150390624,-0.47790390253067017,-0.5733781456947327,1.0399636030197144
1771073353485694200,11.941694091796874,-1.12025785446167,-0.726776123046875,0.5094623565673828
1771073353495634200,11.95163427734375,-1.6475633382797241,-0.5733781456947327,-0.1808284968137741
1771073353505574100,11.96157421875,-1.8808561563491821,-0.18455693125724792,-0.7028076648712158
1771073353515514000,11.97151416015625,-1.903226613998413,0.18935060501098633,-0.9755151867866516
1771073353525454000,11.9814541015625,-1.8052223920822144,0.4013380706310272,-1.031974196434021
1771073353535394000,11.99139404296875,-1.6390413045883179,0.40986019372940063,-0.9243825078010559
1771073353545334000,12.001333984375,-1.4536854028701782,0.23196116089820862,-0.7006771564483643
1771073353555274000,12.01127392578125,-1.2779169082641602,-0.0684431865811348,-0.4311654567718506
1771073353565214000,12.0212138671875,-1.1106704473495483,-0.46046021580696106,-0.1723063886165619
1771073353575153700,12.031153564453126,-0.9540767669677734,-0.8631298542022705,0.026897907257080078
1771073353585093600,12.04109375,-0.8273103833198547,-1.14116370677948,0.10785794258117676
1771073353595033600,12.05103369140625,-0.7506113648414612,-1.219993233680725,0.052464235574007034
1771073353604973600,12.0609736328125,-0.6866955757141113,-1.1198583841323853,-0.07856319099664688
1771073353614913500,12.07091357421875,-0.5908218622207642,-0.860999345779419,-0.20746009051799774
1771073353624853500,12.080853515625,-0.466185986995697,-0.5243760347366333,-0.2788327634334564
1771073353634793500,12.09079345703125,-0.33728909492492676,-0.20373167097568512,-0.2798980176448822
1771073353644733400,12.1007333984375,-0.25845959782600403,0.012516847811639309,-0.20746009051799774
1771073353654673400,12.11067333984375,-0.25206801295280457,0.09880319982767105,-0.09454214572906494
1771073353664613400,12.12061328125,-0.2968090772628784,0.10945583879947662,0.010918952524662018
1771073353674553300,12.13055322265625,-0.39374807476997375,0.06151897460222244,0.06631266325712204
1771073353684493300,12.140493408203126,-0.54927659034729,0.007190529722720385,0.04607265070080757
1771073353694433300,12.150433349609376,-0.730371356010437,-0.031158961355686188,-0.03808317333459854
1771073353704373000,12.160373046875,-0.8912261724472046,-0.06737792491912842,-0.17763271927833557
1771073353714313000,12.17031298828125,-0.9977525472640991,-0.07483477145433426,-0.3683148920536041
1771073353724253000,12.1802529296875,-1.0190578699111938,-0.004527370445430279,-0.5696497559547424
1771073353734193000,12.19019287109375,-0.9338367581367493,0.17443692684173584,-0.7123950719833374
1771073353744132900,12.2001328125,-0.797482967376709,0.3544664680957794,-0.7645930051803589
1771073353754072800,12.21007275390625,-0.6579334735870361,0.47484126687049866,-0.7400919198989868
1771073353764012800,12.2200126953125,-0.5407544374465942,0.5217128396034241,-0.6655234694480896
1771073353773952800,12.229952880859376,-0.45979443192481995,0.5291697382926941,-0.5483444333076477
1771073353783892700,12.239892822265626,-0.3873564898967743,0.5355613231658936,-0.36192330718040466
1771073353793832700,12.249832763671876,-0.32450592517852783,0.5611276030540466,-0.10732531547546387
1771073353803772700,12.259772705078126,-0.28189539909362793,0.6601971387863159,0.2005358785390854
1771073353813712600,12.269712646484376,-0.24674169719219208,0.7965508699417114,0.5222455263137817
1771073353823652600,12.279652587890626,-0.2083922028541565,0.9062730669975281,0.8066709041595459
1771073353833592300,12.28959228515625,-0.13169321417808533,1.007473111152649,1.0271804332733154
1771073353843532300,12.2995322265625,0.028096329420804977,1.066062569618225,1.217862606048584
1771073353853472300,12.30947216796875,0.2571280002593994,1.0149298906326294,1.3861743211746216
1771073353863412200,12.319412109375,0.474441796541214,0.8530098795890808,1.4660691022872925
1771073353873352200,12.329352294921875,0.6129260659217834,0.48549389839172363,1.3488900661468506
1771073353883292200,12.339292236328125,0.6842987537384033,-0.05139897018671036,1.012266755104065
1771073353893232000,12.349232177734375,0.7684545516967773,-0.492418110370636,0.5861613154411316
1771073353903172000,12.359172119140625,0.8771114349365234,-0.7129276990890503,0.2527337968349457
1771073353913112000,12.369112060546875,0.9197220206260681,-0.7523424625396729,0.07909582555294037
1771073353923052000,12.379052001953125,0.9122651219367981,-0.659664511680603,0.06631266325712204
1771073353932992000,12.388991943359375,0.8419577479362488,-0.5243760347366333,0.18775272369384766
1771073353942932000,12.398931884765625,0.7173219323158264,-0.37097805738449097,0.37204334139823914
1771073353952871700,12.40887158203125,0.5649892091751099,-0.24314641952514648,0.49348339438438416
1771073353962811600,12.418811767578125,0.37856805324554443,-0.2324937880039215,0.42317599058151245
1771073353972751600,12.428751708984375,0.20706062018871307,-0.3070622384548187,0.13129374384880066
1771073353982691600,12.438691650390625,0.10479531437158585,-0.37736964225769043,-0.2905506491661072
1771073353992631600,12.448631591796875,0.08562056720256805,-0.31132328510284424,-0.6974813938140869
1771073354002571500,12.458571533203125,0.11864373832941055,-0.1430116444826126,-1.0106688737869263
1771073354012511500,12.468511474609375,0.1825595498085022,0.06471476703882217,-1.1949595212936401
1771073354022451500,12.478451416015625,0.3082606792449951,0.26818013191223145,-1.2343742847442627
1771073354032391400,12.488391357421875,0.5053344368934631,0.4311654567718506,-1.1523489952087402
1771073354042331400,12.498331298828125,0.749279797077179,0.5408875942230225,-0.9723193645477295
1771073354052271400,12.508271240234375,0.9964209794998169,0.5707150101661682,-0.7198519110679626
1771073354062211300,12.51821142578125,1.2062779664993286,0.5227781534194946,-0.4205128252506256
1771073354072151300,12.5281513671875,1.380981206893921,0.4812328517436981,-0.0966726765036583
1771073354082091000,12.538091064453125,1.5343791246414185,0.4673844277858734,0.23675484955310822
1771073354092031000,12.548031005859375,1.6483622789382935,0.45140546560287476,0.5499423742294312
1771073354101971000,12.557970947265625,1.719735026359558,0.4258391261100769,0.8279761672019958
1771073354111911000,12.567910888671875,1.7474318742752075,0.3928159773349762,1.0335720777511597
