time,seconds_elapsed,z,y,x
1771073480688415500,0.08741552734375,0,0,0
1771073480698348500,0.0973486328125,-0.10947418212890625,0.04222846031188965,0.013949178159236908
1771073480708282000,0.1072822265625,0.00786590576171875,0.11094045639038086,0.05123918876051903
1771073480728151800,0.12715185546875,0.7586278915405273,0.2306499481201172,0.16566328704357147
1771073480738088200,0.137088134765625,0.7031631469726562,0.0040476322174072266,0.12960268557071686
1771073480748025900,0.14702587890625,0.4071521759033203,-0.2126779556274414,0.07114112377166748
1771073480757964800,0.15696484375,0.1489715576171875,-0.27492594718933105,0.014428913593292236
1771073480767904800,0.16690478515625,-0.09379768371582031,-0.12433028221130371,-0.006041422486305237
1771073480777846000,0.176845947265625,-0.14268112182617188,0.003198862075805664,-0.09513905644416809
1771073480787788500,0.18678857421875,-0.21892261505126953,0.01598191261291504,-0.19018323719501495
1771073480797731800,0.19673193359375,-0.2929658889770508,-0.07555198669433594,-0.2423677295446396
1771073480807676000,0.206676025390625,-0.39235496520996094,-0.1870415210723877,-0.2885933220386505
1771073480817620700,0.216620849609375,-0.5520687103271484,-0.3463306427001953,-0.4608675241470337
1771073480827565800,0.22656591796875,-1.282970905303955,-0.7390377521514893,-0.9964421391487122
1771073480837511000,0.236510986328125,-1.297107219696045,-0.555830717086792,-1.02332603931427
1771073480847454700,0.246454833984375,-0.6578502655029297,-0.2550504207611084,-0.6021129488945007
1771073480857394700,0.256394775390625,-0.47818851470947266,-0.2728550434112549,-0.2496950626373291
1771073480867334700,0.266334716796875,-0.09919452667236328,-0.2888782024383545,0.008089601993560791
1771073480877274600,0.276274658203125,0.5647239685058594,0.1617889404296875,0.28753161430358887
1771073480887214600,0.286214599609375,1.0588512420654297,0.5410799980163574,0.44462698698043823
1771073480897154600,0.296154541015625,1.2622060775756836,0.7038013935089111,0.583321213722229
1771073480907094500,0.306094482421875,1.113142967224121,0.7029473781585693,0.6579110026359558
1771073480917034200,0.3160341796875,0.7169837951660156,0.6761860847473145,0.6672070026397705
1771073480926974200,0.32597412109375,0.25815582275390625,0.706343412399292,0.6303685903549194
1771073480936914200,0.3359140625,0.10038566589355469,0.7190108299255371,0.5159677267074585
1771073480946854100,0.345854248046875,0.35645484924316406,0.620128870010376,0.3473004400730133
1771073480956794000,0.355794189453125,0.6342678070068359,0.4789869785308838,0.1816270351409912
1771073480966734000,0.365734130859375,0.6082124710083008,0.38843536376953125,0.09487549960613251
1771073480976674000,0.375674072265625,0.3041810989379883,0.30376505851745605,0.02237686514854431
1771073480986614000,0.385614013671875,0.17677593231201172,0.16465210914611816,-0.18639791011810303
1771073480996554000,0.395553955078125,0.11488819122314453,0.07067608833312988,-0.36972030997276306
1771073481006494000,0.405493896484375,0.1783590316772461,0.029687881469726562,-0.5508202314376831
1771073481016434000,0.415433837890625,0.2075185775756836,0.04613900184631348,-0.5648868083953857
1771073481026374000,0.425373779296875,0.1401500701904297,0.01076054573059082,-0.42206239700317383
1771073481036313900,0.43531396484375,0.022867202758789062,-0.02793431282043457,-0.25300127267837524
1771073481046253600,0.445253662109375,-0.17142295837402344,0.04741716384887695,-0.022982925176620483
1771073481056193500,0.455193603515625,-0.6341705322265625,0.284775972366333,0.24974428117275238
1771073481066133500,0.465133544921875,-0.8546113967895508,0.31202173233032227,0.22734099626541138
1771073481076073500,0.475073486328125,-0.48264312744140625,0.2598838806152344,-0.12432758510112762
1771073481086013400,0.485013427734375,-0.2551460266113281,0.3562498092651367,-0.32588428258895874
1771073481095953400,0.494953369140625,-0.10488510131835938,0.3984377384185791,-0.44714388251304626
1771073481105893400,0.504893310546875,0.20737266540527344,0.31216001510620117,-0.5146121978759766
1771073481115833300,0.514833251953125,0.5461368560791016,0.17630314826965332,-0.5191711783409119
1771073481125773300,0.524773193359375,0.7129793167114258,0.06418013572692871,-0.5907346606254578
1771073481135713300,0.53471337890625,0.717036247253418,-0.03956937789916992,-0.7604848146438599
1771073481145653200,0.5446533203125,0.6367359161376953,-0.05257582664489746,-0.9015145897865295
1771073481155593200,0.55459326171875,0.44965457916259766,0.4384427070617676,-0.6608843803405762
1771073481165533200,0.564533203125,-0.07756614685058594,1.581941843032837,0.3114026188850403
1771073481175473000,0.574472900390625,0.03496551513671875,1.250605821609497,0.43987682461738586
1771073481185412900,0.584412841796875,0.6948480606079102,0.717055082321167,0.3456835150718689
1771073481195352800,0.594352783203125,1.5899763107299805,0.4007904529571533,0.47646617889404297
1771073481205292800,0.604292724609375,3.0000810623168945,0.16094398498535156,0.3778286576271057
1771073481215232800,0.614232666015625,4.581236839294434,-0.2883915901184082,0.09033530950546265
1771073481225172700,0.6241728515625,5.813019752502441,-0.9613884687423706,-0.23768943548202515
1771073481235112700,0.63411279296875,6.100371360778809,-1.5549230575561523,-0.4781475067138672
1771073481245052700,0.644052734375,5.891087532043457,-1.9618291854858398,-0.7544749975204468
1771073481254992600,0.65399267578125,5.26689338684082,-2.1950080394744873,-0.8895893692970276
1771073481264932600,0.6639326171875,4.010237693786621,-2.0863895416259766,-0.9897645115852356
1771073481274872600,0.67387255859375,2.503046989440918,-1.5645287036895752,-1.1759703159332275
1771073481284812500,0.6838125,1.171640396118164,-0.956792950630188,-1.291168451309204
1771073481294752300,0.693752197265625,0.0915985107421875,-0.3626444339752197,-1.474745750427246
1771073481304692200,0.703692138671875,-0.6504449844360352,0.13114142417907715,-1.6100469827651978
1771073481314632200,0.713632080078125,-0.6075029373168945,0.45752739906311035,-1.5085158348083496
1771073481324572200,0.723572265625,0.16593360900878906,0.47070956230163574,-1.2352538108825684
1771073481334512000,0.73351220703125,1.1682243347167969,0.306473970413208,-1.0114097595214844
1771073481344452000,0.7434521484375,2.0918121337890625,-0.009802818298339844,-0.7662253975868225
1771073481354392000,0.75339208984375,2.921351432800293,-0.45076751708984375,-0.485840380191803
1771073481364332000,0.76333203125,3.4343128204345703,-0.8935983180999756,-0.2811815142631531
1771073481374272000,0.77327197265625,3.287468910217285,-1.1531636714935303,-0.20410001277923584
1771073481384212000,0.7832119140625,2.523019790649414,-1.16410231590271,-0.18929451704025269
1771073481394152000,0.79315185546875,1.3224163055419922,-1.0606061220169067,-0.24441790580749512
1771073481404092000,0.803091796875,0.23009872436523438,-0.9860204458236694,-0.45416682958602905
1771073481414032000,0.813031982421875,-0.6790637969970703,-0.9937645196914673,-0.6835952997207642
1771073481423971600,0.8229716796875,-1.4275293350219727,-1.0451949834823608,-0.9238817691802979
1771073481433911600,0.83291162109375,-2.2050700187683105,-1.088141918182373,-1.133425235748291
1771073481443851500,0.8428515625,-2.9155430793762207,-1.0540008544921875,-1.1791620254516602
1771073481453791500,0.85279150390625,-3.295844078063965,-0.9749739170074463,-1.117982029914856
1771073481463731500,0.8627314453125,-3.262437343597412,-0.9230473041534424,-1.1841189861297607
1771073481473671400,0.87267138671875,-2.972804546356201,-1.0219088792800903,-1.153090476989746
1771073481483611400,0.882611328125,-2.648427963256836,-1.1812726259231567,-0.8346845507621765
1771073481493551400,0.89255126953125,-2.127164840698242,-1.3576956987380981,-0.5013405680656433
1771073481503491300,0.9024912109375,-1.475687026977539,-1.547126293182373,-0.14120307564735413
1771073481513431300,0.912431396484375,-1.0916433334350586,-1.7209205627441406,0.3202802538871765
1771073481523371300,0.922371337890625,-1.063450813293457,-1.8643211126327515,0.7283340096473694
1771073481533311200,0.932311279296875,-1.03668212890625,-1.941938877105713,1.1544064283370972
1771073481543251200,0.942251220703125,-1.0919818878173828,-1.8229284286499023,1.6787307262420654
1771073481553191000,0.95219091796875,-1.304703712463379,-1.781164526939392,1.9270106554031372
1771073481563131000,0.962130859375,-1.7730560302734375,-1.933184027671814,1.9125279188156128
1771073481573070800,0.97207080078125,-2.3903188705444336,-2.0276498794555664,1.900209903717041
1771073481583010800,0.9820107421875,-3.333087921142578,-2.097588539123535,2.145340919494629
1771073481592950800,0.99195068359375,-4.309930324554443,-2.176023483276367,2.564795732498169
1771073481602890800,1.001890869140625,-4.670010089874268,-1.704969882965088,2.319653272628784
1771073481612830700,1.011830810546875,-4.650022029876709,-1.2168376445770264,1.609657645225525
1771073481622770700,1.021770751953125,-4.45077657699585,-0.9498779773712158,0.8691627979278564
1771073481632710700,1.031710693359375,-4.076964855194092,-1.039154052734375,0.21257126331329346
1771073481642650600,1.041650634765625,-3.324981212615967,-1.624179482460022,-0.2610344886779785
1771073481652590600,1.051590576171875,-2.453040599822998,-2.5106308460235596,-0.9886443018913269
1771073481662530600,1.061530517578125,-2.110086441040039,-3.08449649810791,-1.6024283170700073
1771073481672470500,1.071470458984375,-1.6658244132995605,-3.099187135696411,-1.7942509651184082
1771073481682410200,1.08141015625,-0.9317197799682617,-2.311516523361206,-1.3327739238739014
1771073481692350200,1.09135009765625,0.082305908203125,-0.9952267408370972,-0.5235792994499207
1771073481702290200,1.101290283203125,1.514516830444336,0.448978066444397,0.3005518615245819
1771073481712230100,1.111230224609375,3.605055809020996,1.814276933670044,1.1111958026885986
1771073481722170000,1.121170166015625,6.2226409912109375,3.1374990940093994,1.9900001287460327
1771073481732110000,1.131110107421875,8.385420799255371,4.094407081604004,3.2176239490509033
1771073481742050000,1.141050048828125,9.698601722717285,4.203693866729736,4.697948932647705
1771073481751990000,1.150989990234375,9.810246467590332,3.4672141075134277,5.872429370880127
1771073481761930000,1.160929931640625,9.392662048339844,2.2321412563323975,6.2803521156311035
1771073481771870000,1.170869873046875,8.721969604492188,0.8692764043807983,5.744067668914795
1771073481781810000,1.180809814453125,8.038227081298828,-0.4770660400390625,4.310193061828613
1771073481791750000,1.19075,7.397218704223633,-1.7918115854263306,2.3328354358673096
1771073481801689600,1.200689697265625,6.524930000305176,-2.71286678314209,0.4360593259334564
1771073481811629600,1.210629638671875,5.230644226074219,-3.073949098587036,-1.0470696687698364
1771073481821569500,1.220569580078125,3.6462221145629883,-2.82536244392395,-1.7809072732925415
1771073481831509500,1.230509521484375,2.0330915451049805,-2.070507526397705,-1.9312195777893066
1771073481841449500,1.240449462890625,0.5311908721923828,-0.9840539693832397,-1.7089276313781738
1771073481851389400,1.250389404296875,-0.8257350921630859,0.19282281398773193,-1.4961488246917725
1771073481861329400,1.260329345703125,-2.153998851776123,1.0601727962493896,-1.4264107942581177
1771073481871269400,1.270269287109375,-3.5192599296569824,1.4817372560501099,-1.4114919900894165
1771073481881209300,1.280209228515625,-4.6755547523498535,1.565520167350769,-1.289652943611145
1771073481891149300,1.2901494140625,-5.464077949523926,1.3331623077392578,-1.0285096168518066
1771073481901089300,1.30008935546875,-5.769471168518066,0.8052339553833008,-0.7935241460800171
1771073481911029200,1.310029296875,-5.718638896942139,0.22960197925567627,-0.6468450427055359
1771073481920969200,1.31996923828125,-5.163384914398193,-0.09690868854522705,-0.540198802947998
1771073481930909000,1.329908935546875,-4.371589183807373,-0.0875241756439209,-0.3960210680961609
1771073481940849000,1.339848876953125,-3.6448464393615723,-0.01648402214050293,-0.393373042345047
1771073481950788900,1.349788818359375,-3.0000548362731934,0.01586127281188965,-0.5128688812255859
1771073481960728800,1.359728759765625,-2.558979034423828,0.08781111240386963,-0.3548044264316559
1771073481970668800,1.369668701171875,-2.799448013305664,0.13974273204803467,-0.026400893926620483
1771073481980608800,1.37960888671875,-3.431365489959717,0.13754022121429443,0.26521801948547363
1771073481990548700,1.389548828125,-3.8816628456115723,0.1856071949005127,0.7651157379150391
1771073482000488700,1.39948876953125,-4.332427024841309,0.18581318855285645,1.1410679817199707
1771073482010428700,1.4094287109375,-4.803092002868652,0.04744255542755127,1.1180542707443237
1771073482020368600,1.41936865234375,-5.149359703063965,-0.07599413394927979,0.9894480109214783
1771073482030308600,1.42930859375,-5.380160331726074,-0.1836450695991516,0.8133402466773987
1771073482040248600,1.43924853515625,-5.473605632781982,-0.34958767890930176,0.5753934979438782
1771073482050188500,1.4491884765625,-4.839919567108154,-0.5634633898735046,0.20676621794700623
1771073482060128300,1.459128173828125,-3.6676688194274902,-0.8022339344024658,-0.4205642342567444
1771073482070068200,1.469068115234375,-2.1291942596435547,-1.1121727228164673,-1.164551019668579
1771073482080008200,1.47900830078125,-0.23004913330078125,-1.6697089672088623,-2.026071071624756
1771073482089948200,1.4889482421875,1.1409826278686523,-2.275041341781616,-3.035642623901367
1771073482099888000,1.49888818359375,1.7875442504882812,-2.775806427001953,-3.8151636123657227
1771073482109828000,1.508828125,2.0622997283935547,-2.809213161468506,-4.41698694229126
1771073482119768000,1.51876806640625,1.8741788864135742,-2.103691816329956,-4.953629493713379
1771073482129708000,1.5287080078125,1.7309865951538086,-0.885627806186676,-5.377561092376709
1771073482139648000,1.53864794921875,1.8751182556152344,0.41208982467651367,-5.771374225616455
1771073482149588000,1.548587890625,2.39864444732666,1.2166996002197266,-5.734255313873291
1771073482159528000,1.55852783203125,2.745706558227539,1.3086602687835693,-5.084274768829346
1771073482169468000,1.568468017578125,2.4686241149902344,0.9789433479309082,-3.8159475326538086
1771073482179408000,1.578407958984375,1.3457221984863281,0.805382251739502,-1.9546456336975098
1771073482189347600,1.58834765625,0.1885213851928711,1.3570678234100342,-0.026334047317504883
1771073482199287600,1.59828759765625,-0.11756610870361328,2.4693119525909424,1.6757822036743164
1771073482209227500,1.6082275390625,1.0904474258422852,3.3577821254730225,2.797758102416992
1771073482219167500,1.61816748046875,4.609786033630371,3.3241820335388184,3.182382583618164
1771073482229107500,1.628107421875,8.490153312683105,1.954815149307251,2.610799551010132
1771073482239047400,1.63804736328125,9.821122169494629,0.10492229461669922,1.3828482627868652
1771073482248987400,1.6479873046875,9.774763107299805,-1.6179176568984985,-0.5719113945960999
1771073482258927400,1.65792724609375,8.848480224609375,-2.9094080924987793,-2.8493192195892334
1771073482268867300,1.667867431640625,7.2075700759887695,-3.6302032470703125,-4.6006083488464355
1771073482278807300,1.677807373046875,5.1345014572143555,-3.6610519886016846,-5.227445602416992
1771073482288747300,1.687747314453125,2.7945737838745117,-3.3316802978515625,-4.754239082336426
1771073482298687200,1.697687255859375,0.6870326995849609,-2.7504706382751465,-3.735034704208374
1771073482308627000,1.707626953125,-0.9415969848632812,-2.1893506050109863,-2.583693027496338
1771073482318567000,1.71756689453125,-2.098090171813965,-1.7147492170333862,-1.4513682126998901
1771073482328507000,1.7275068359375,-2.776432514190674,-1.3775722980499268,-0.48672816157341003
1771073482338446800,1.73744677734375,-3.1125669479370117,-1.1495590209960938,0.31211376190185547
1771073482348386800,1.74738671875,-3.1028995513916016,-0.9478145837783813,0.9591185450553894
1771073482358326800,1.757326904296875,-3.0957870483398438,-0.9102808237075806,1.3864789009094238
1771073482368266800,1.767266845703125,-3.233090877532959,-1.0809528827667236,1.5950042009353638
1771073482378206700,1.777206787109375,-3.17057466506958,-1.3722584247589111,1.757807970046997
1771073482388146700,1.787146728515625,-2.7328414916992188,-1.6634337902069092,2.0302791595458984
1771073482398086700,1.797086669921875,-2.329244613647461,-1.997353196144104,2.2524075508117676
1771073482408026600,1.807026611328125,-2.314941883087158,-2.462141275405884,2.332911491394043
1771073482417966600,1.816966552734375,-2.793403148651123,-2.914371967315674,2.159693956375122
1771073482427906600,1.826906494140625,-3.394791603088379,-3.2575812339782715,1.5955402851104736
1771073482437846300,1.83684619140625,-3.946732521057129,-3.5370655059814453,0.9115176796913147
1771073482447786200,1.8467861328125,-3.9314146041870117,-3.8817663192749023,0.11383400112390518
1771073482457726200,1.856726318359375,-3.6742968559265137,-4.194900035858154,-0.4238384962081909
1771073482467666200,1.866666259765625,-3.7032504081726074,-4.211966037750244,-0.14987727999687195
1771073482477606100,1.876606201171875,-3.521636962890625,-3.8723087310791016,0.8622190356254578
1771073482487546000,1.886546142578125,-3.7885866165161133,-3.4155118465423584,1.8555253744125366
1771073482497486000,1.896486083984375,-4.275991916656494,-2.865781784057617,2.4401962757110596
1771073482507426000,1.906426025390625,-4.978964805603027,-2.2250919342041016,2.5693047046661377
1771073482517366000,1.916365966796875,-4.277685165405273,-1.7788316011428833,1.7411810159683228
1771073482527306000,1.926305908203125,-2.5183706283569336,-1.3140137195587158,0.12858989834785461
1771073482537246000,1.936245849609375,-1.8525586128234863,-0.8667607307434082,-0.4956836998462677
1771073482547186000,1.94618603515625,-2.4480886459350586,-0.4933032989501953,0.5034867525100708
1771073482557126000,1.9561259765625,-3.1419944763183594,0.26165342330932617,1.9970545768737793
1771073482567065600,1.966065673828125,-2.6181864738464355,1.7827186584472656,3.257700204849243
1771073482577005600,1.976005615234375,0.14777851104736328,3.563018798828125,4.266958236694336
1771073482586945500,1.985945556640625,3.9883575439453125,4.617696762084961,4.685675144195557
1771073482596885500,1.995885498046875,6.4569549560546875,3.941683292388916,4.5285844802856445
1771073482606825500,2.005825439453125,6.325029373168945,1.7252483367919922,3.8879659175872803
1771073482616765400,2.015765380859375,5.027800559997559,-0.5504109859466553,2.668813467025757
1771073482626705400,2.025705322265625,4.582097053527832,-1.7125226259231567,1.1745957136154175
1771073482636645400,2.035645263671875,5.51068115234375,-1.9394060373306274,-0.2350739985704422
1771073482646585300,2.04558544921875,7.083066940307617,-2.0281710624694824,-1.1960713863372803
1771073482656525300,2.055525390625,8.647112846374512,-2.3300445079803467,-1.476606011390686
1771073482666465300,2.06546533203125,9.655216217041016,-2.6858811378479004,-1.5370774269104004
1771073482676405200,2.0754052734375,9.826866149902344,-2.666412591934204,-1.5635457038879395
1771073482686345200,2.08534521484375,8.768726348876953,-2.3596198558807373,-1.7579267024993896
1771073482696285000,2.095284912109375,6.45700740814209,-1.808607578277588,-1.9693266153335571
1771073482706225000,2.105224853515625,4.081867218017578,-0.9352036714553833,-1.8756009340286255
1771073482716164900,2.115164794921875,2.0720252990722656,0.18757963180541992,-1.002650260925293
1771073482726104800,2.125104736328125,0.5751247406005859,1.3764042854309082,0.46943598985671997
1771073482736044800,2.135044921875,-0.3524007797241211,2.189138889312744,1.8610397577285767
1771073482745984800,2.14498486328125,-0.8847618103027344,2.3970298767089844,2.5455548763275146
1771073482755924700,2.1549248046875,-1.2586956024169922,2.221372127532959,2.572040557861328
1771073482765864700,2.16486474609375,-1.4940814971923828,1.8572113513946533,2.0870652198791504
1771073482775804700,2.1748046875,-1.7852883338928223,1.412670373916626,1.2570511102676392
1771073482785744600,2.18474462890625,-2.2910847663879395,0.7722363471984863,0.001128651201725006
1771073482795684600,2.1946845703125,-3.341444492340088,-0.19983649253845215,-1.6959306001663208
1771073482805624600,2.20462451171875,-4.9511566162109375,0.16273117065429688,-1.9438879489898682
1771073482815564300,2.214564208984375,-6.408237457275391,1.34763765335083,-1.032200813293457
1771073482825504300,2.224504150390625,-6.473724365234375,1.0125079154968262,-1.4701915979385376
1771073482835444200,2.2344443359375,-6.521631240844727,0.778289794921875,-1.978342056274414
1771073482845384200,2.24438427734375,-6.459733963012695,0.6731290817260742,-2.4166085720062256
1771073482855324200,2.25432421875,-5.802215576171875,-0.06025075912475586,-2.635972738265991
1771073482865264000,2.26426416015625,-5.267882347106934,-1.014297604560852,-2.456148862838745
1771073482875204000,2.2742041015625,-4.507439613342285,-1.584834098815918,-1.983571171760559
1771073482885144000,2.28414404296875,-3.1168746948242188,-1.8090200424194336,-1.5538523197174072
1771073482895084000,2.294083984375,-2.4497079849243164,-1.9796210527420044,-1.4461627006530762
1771073482905024000,2.30402392578125,-2.74442720413208,-2.316676139831543,-1.4817177057266235
1771073482914964000,2.3139638671875,-3.8289318084716797,-2.6234076023101807,-1.4409526586532593
1771073482924904000,2.323904052734375,-4.845370769500732,-2.7529349327087402,-1.4272290468215942
1771073482934844000,2.333843994140625,-5.287768363952637,-2.5129237174987793,-1.8173589706420898
1771073482944783600,2.34378369140625,-5.412533760070801,-1.5969611406326294,-2.539524555206299
1771073482954723600,2.3537236328125,-5.050586223602295,-0.6550488471984863,-3.613537549972534
1771073482964663600,2.36366357421875,-3.3501358032226562,-0.0231630802154541,-4.459287643432617
1771073482974603500,2.373603515625,-0.6457614898681641,0.37505197525024414,-4.510159492492676
1771073482984543500,2.38354345703125,1.926041603088379,0.4640350341796875,-3.8875696659088135
1771073482994483500,2.3934833984375,4.52000617980957,0.7052164077758789,-2.7940962314605713
1771073483004423400,2.40342333984375,6.610884666442871,1.1232402324676514,-0.8519086241722107
1771073483014363400,2.41336328125,6.201556205749512,1.5022716522216797,1.0744893550872803
1771073483024303400,2.423303466796875,4.354981422424316,2.0177090167999268,3.051027297973633
1771073483034243300,2.433243408203125,1.4679737091064453,2.420015811920166,4.577655792236328
1771073483044183300,2.443183349609375,0.3148050308227539,2.6681935787200928,5.106229782104492
1771073483054123300,2.453123291015625,1.8264656066894531,2.1481378078460693,4.490863800048828
1771073483064063200,2.463063232421875,4.15168571472168,0.904198408126831,3.045074224472046
1771073483074003000,2.4730029296875,6.331280708312988,-0.7232201099395752,1.0037826299667358
1771073483083943000,2.48294287109375,8.256729125976562,-2.4529733657836914,-1.4502533674240112
1771073483093883000,2.4928828125,9.001555442810059,-3.5922775268554688,-3.469773530960083
1771073483103822800,2.50282275390625,8.3925142288208,-3.880403995513916,-4.678177833557129
1771073483113762800,2.5127626953125,6.60997200012207,-3.4959146976470947,-4.819882869720459
1771073483123702800,2.522702880859375,4.015837669372559,-2.6918680667877197,-3.8778417110443115
1771073483133642800,2.532642822265625,1.4527511596679688,-1.802209496498108,-2.429142713546753
1771073483143582700,2.542582763671875,-1.2226991653442383,-1.085450291633606,-0.9691857695579529
1771073483153522700,2.552522705078125,-3.4717111587524414,-0.7313323020935059,-0.15761065483093262
1771073483163462700,2.562462646484375,-4.448447227478027,-0.6901288032531738,-0.186872661113739
1771073483173402600,2.572402587890625,-3.9104666709899902,-1.1091344356536865,-0.9603067636489868
1771073483183342600,2.582342529296875,-2.5502872467041016,-1.8058199882507324,-1.7858482599258423
1771073483193282600,2.592282470703125,-1.1996421813964844,-2.291264057159424,-2.092620849609375
1771073483203222300,2.60222216796875,0.15460491180419922,-2.5425171852111816,-1.923393964767456
1771073483213162200,2.612162353515625,0.9336071014404297,-2.6350083351135254,-1.1999998092651367
1771073483223102200,2.622102294921875,0.5450201034545898,-2.5567026138305664,-0.03913655877113342
1771073483233042200,2.632042236328125,-0.8060302734375,-2.309938907623291,1.3189632892608643
1771073483242982100,2.641982177734375,-2.479790210723877,-2.0824856758117676,2.4729366302490234
1771073483252922000,2.651922119140625,-4.096879005432129,-1.8849389553070068,3.425579309463501
1771073483262862000,2.661862060546875,-5.289109706878662,-1.788468837738037,4.035623073577881
1771073483272802000,2.671802001953125,-6.250296592712402,-1.934226155281067,4.149322509765625
1771073483282742000,2.681741943359375,-6.899923324584961,-1.9992953538894653,3.965545415878296
1771073483292682000,2.691681884765625,-6.793168067932129,-1.875654697418213,3.6299214363098145
1771073483302622000,2.7016220703125,-5.939079761505127,-1.6295599937438965,3.3821496963500977
1771073483312562000,2.71156201171875,-4.760993957519531,-1.406872034072876,3.302229642868042
1771073483322501600,2.721501708984375,-3.386880874633789,-1.2881277799606323,3.2511894702911377
1771073483332441600,2.731441650390625,-1.8878955841064453,-1.3182610273361206,3.2530741691589355
1771073483342381600,2.741381591796875,-0.1945962905883789,-1.3750450611114502,3.2724578380584717
1771073483352321500,2.751321533203125,1.5814104080200195,-1.1646158695220947,2.8245604038238525
1771073483362261500,2.761261474609375,3.261935234069824,-0.27924036979675293,1.396690845489502
1771073483372201500,2.771201416015625,4.39731502532959,0.9422276020050049,0.5768625140190125
1771073483382141400,2.781141357421875,3.87497615814209,1.8074188232421875,0.7618270516395569
1771073483392081400,2.791081298828125,1.2732887268066406,2.6955997943878174,1.7980875968933105
1771073483402021400,2.801021484375,-1.3534107208251953,4.019168853759766,2.9485843181610107
1771073483411961300,2.81096142578125,-1.169114112854004,4.784238815307617,3.5015575885772705
1771073483421901300,2.8209013671875,1.5827808380126953,4.381977081298828,4.126873016357422
1771073483431841300,2.83084130859375,4.334848403930664,2.939282178878784,5.13580322265625
1771073483441781200,2.84078125,6.396515846252441,1.0139777660369873,5.3654351234436035
1771073483451721000,2.850720947265625,7.803407669067383,-0.7171812057495117,4.506138801574707
1771073483461661000,2.860660888671875,8.569208145141602,-2.012171506881714,2.8933427333831787
1771073483471601000,2.870600830078125,9.053009033203125,-2.736394166946411,1.1399270296096802
1771073483481540900,2.880540771484375,8.893840789794922,-3.0510125160217285,-0.27064427733421326
1771073483491480800,2.890480712890625,7.847539901733398,-3.024271249771118,-1.245819091796875
1771073483501420800,2.9004208984375,6.103196144104004,-2.6384527683258057,-1.8547717332839966
1771073483511360800,2.91036083984375,3.752115249633789,-1.8188542127609253,-2.066969394683838
1771073483521300700,2.92030078125,1.3587217330932617,-0.7743334770202637,-2.1813905239105225
1771073483531240700,2.93024072265625,-0.31396007537841797,0.2143397331237793,-2.130664825439453
1771073483541180700,2.9401806640625,-1.3203420639038086,0.7696032524108887,-1.7617888450622559
1771073483551120600,2.95012060546875,-2.00459623336792,0.9073281288146973,-1.4655802249908447
1771073483561060600,2.960060546875,-2.4063587188720703,0.8620476722717285,-1.3935201168060303
1771073483571000600,2.97000048828125,-2.261956214904785,0.7980351448059082,-1.4338420629501343
1771073483580940300,2.979940185546875,-1.7800064086914062,0.6551880836486816,-1.4889190196990967
1771073483590880300,2.98988037109375,-1.4876518249511719,0.3712310791015625,-1.7055466175079346
1771073483600820200,2.9998203125,-1.571345329284668,0.1819620132446289,-1.9658195972442627
1771073483610760200,3.00976025390625,-2.0357890129089355,0.19469594955444336,-2.073009729385376
1771073483620700200,3.0197001953125,-2.7262072563171387,0.27744317054748535,-2.001445770263672
1771073483630640000,3.02964013671875,-3.223785877227783,0.27338337898254395,-1.8794587850570679
1771073483640580000,3.039580078125,-3.4928407669067383,0.16813039779663086,-1.7612369060516357
1771073483650520000,3.04952001953125,-3.7054433822631836,-0.048535704612731934,-1.5480775833129883
1771073483660460000,3.0594599609375,-3.935516357421875,-0.30245697498321533,-1.269196629524231
1771073483670400000,3.06939990234375,-4.159110069274902,-0.5136846303939819,-1.0373868942260742
1771073483680340000,3.079340087890625,-4.416741847991943,-0.6093394756317139,-0.8851854801177979
1771073483690280000,3.089280029296875,-4.572227478027344,-0.7480195760726929,-0.8536988496780396
1771073483700220000,3.099219970703125,-4.60161828994751,-0.9276625514030457,-0.8334487676620483
1771073483710159600,3.10915966796875,-4.757867336273193,-1.1688604354858398,-0.6988231539726257
1771073483720099600,3.119099609375,-5.121932506561279,-1.3793214559555054,-0.644791305065155
1771073483730039600,3.12903955078125,-5.350218772888184,-1.4510107040405273,-0.7272772192955017
1771073483739979500,3.1389794921875,-5.26028299331665,-1.460893154144287,-0.808281660079956
1771073483749919500,3.14891943359375,-5.092861652374268,-1.7540662288665771,-1.3755173683166504
1771073483759859500,3.158859375,-4.464084625244141,-1.797221064567566,-2.029376983642578
1771073483769799400,3.16879931640625,-2.820572853088379,-1.0738224983215332,-2.8000664710998535
1771073483779739400,3.178739501953125,-1.2108240127563477,-0.23258495330810547,-3.908133029937744
1771073483789679400,3.188679443359375,0.5045080184936523,0.07752418518066406,-5.014516353607178
1771073483799619300,3.198619384765625,1.199345588684082,0.13989615440368652,-5.653369426727295
1771073483809559300,3.208559326171875,2.08103084564209,0.04911231994628906,-5.260278701782227
1771073483819499300,3.218499267578125,3.6532630920410156,0.06005597114562988,-4.094985008239746
1771073483829439000,3.22843896484375,5.310664176940918,0.23676323890686035,-2.0045413970947266
1771073483839379000,3.23837890625,6.473182678222656,0.858670711517334,0.6059960722923279
1771073483849319000,3.24831884765625,6.339713096618652,1.6832668781280518,2.986361026763916
1771073483859259000,3.2582587890625,5.085841178894043,2.3732142448425293,4.408966541290283
1771073483869198800,3.26819873046875,3.77001953125,2.571007013320923,4.28980827331543
1771073483879138800,3.278138916015625,3.3514671325683594,1.9563977718353271,2.7088472843170166
1771073483889078800,3.288078857421875,3.3089466094970703,0.7406454086303711,0.8233975172042847
1771073483899018800,3.298018798828125,3.4531478881835938,-0.45726680755615234,-0.6887778043746948
1771073483908958700,3.307958740234375,3.9483823776245117,-1.1523815393447876,-1.8125600814819336
1771073483918898700,3.317898681640625,4.340475082397461,-1.314301609992981,-2.518702507019043
1771073483928838700,3.327838623046875,4.258631706237793,-1.21056067943573,-2.7171342372894287
1771073483938778600,3.337778564453125,3.6368465423583984,-1.1723426580429077,-2.545199155807495
1771073483948718600,3.347718505859375,2.6704788208007812,-1.396801233291626,-2.4968950748443604
1771073483958658300,3.357658203125,1.4108076095581055,-1.6454319953918457,-2.4746921062469482
1771073483968598300,3.367598388671875,-0.098724365234375,-1.6626628637313843,-2.230184316635132
1771073483978538200,3.377538330078125,-1.4810619354248047,-1.5727882385253906,-1.840228796005249
1771073483988478200,3.387478271484375,-2.5799670219421387,-1.34931218624115,-1.318636417388916
1771073483998418200,3.397418212890625,-3.3445792198181152,-1.032220721244812,-0.7364472150802612
1771073484008358100,3.407358154296875,-3.9723682403564453,-0.6771595478057861,-0.12089842557907104
1771073484018298000,3.417298095703125,-4.438205242156982,-0.3369274139404297,0.501693606376648
1771073484028238000,3.427238037109375,-4.649777889251709,-0.08146071434020996,0.9883313179016113
1771073484038178000,3.437177978515625,-4.676883697509766,-0.029262542724609375,1.2686567306518555
1771073484048118000,3.447117919921875,-4.536296367645264,-0.19945263862609863,1.4206433296203613
1771073484058058000,3.45705810546875,-4.421361446380615,-0.7165981531143188,1.4115996360778809
1771073484067998000,3.466998046875,-4.467751979827881,-1.305938720703125,1.3675496578216553
1771073484077938000,3.47693798828125,-4.944870471954346,-1.7804162502288818,1.3312245607376099
1771073484087877600,3.486877685546875,-5.704535484313965,-2.0773849487304688,1.441778302192688
1771073484097817600,3.496817626953125,-6.114878177642822,-2.1542396545410156,1.7147189378738403
1771073484107757600,3.506757568359375,-5.708307266235352,-2.0072391033172607,2.132772445678711
1771073484117697500,3.516697509765625,-4.6599860191345215,-1.807864785194397,2.4495270252227783
1771073484127637500,3.526637451171875,-3.0886659622192383,-1.8218121528625488,2.498556137084961
1771073484137577500,3.536577392578125,-0.6263952255249023,-2.0210254192352295,2.2810943126678467
1771073484147517400,3.546517333984375,2.24591064453125,-2.2761662006378174,2.146225690841675
1771073484157457400,3.55645751953125,4.523680686950684,-2.6620631217956543,1.6670609712600708
1771073484167397400,3.5663974609375,6.015725135803223,-2.549220085144043,0.8340416550636292
1771073484177337300,3.57633740234375,6.422636985778809,-1.7863394021987915,0.7041850090026855
1771073484187277300,3.58627734375,5.565655708312988,-1.0988705158233643,1.4049752950668335
1771073484197217300,3.59621728515625,3.7631969451904297,-0.16812849044799805,2.6283066272735596
1771073484207157200,3.6061572265625,1.5738801956176758,1.4283368587493896,4.026785373687744
1771073484217097000,3.616096923828125,0.8767004013061523,3.082082986831665,4.552217483520508
1771073484227037000,3.626036865234375,2.317000389099121,3.6893832683563232,4.267483234405518
1771073484236977000,3.635976806640625,3.8652563095092773,2.52946138381958,3.5997443199157715
1771073484246916900,3.645916748046875,4.356453895568848,0.6645998954772949,3.1644647121429443
1771073484256856800,3.65585693359375,4.748780250549316,-0.5948159694671631,2.5435540676116943
1771073484266796800,3.665796875,4.722877502441406,-1.047096848487854,1.9456599950790405
1771073484276736800,3.67573681640625,4.1741485595703125,-0.9643163681030273,1.6066842079162598
1771073484286676700,3.6856767578125,4.020328521728516,-0.8633553981781006,1.3672679662704468
1771073484296616700,3.69561669921875,4.344757080078125,-1.087791919708252,1.0772404670715332
1771073484306556700,3.705556640625,4.825638771057129,-1.3566495180130005,0.5157767534255981
1771073484316496600,3.71549658203125,4.815029144287109,-1.431614875793457,-0.1735316962003708
1771073484336376300,3.735376220703125,3.4025630950927734,-1.1443711519241333,-1.4665404558181763
1771073484346316300,3.74531640625,2.442875862121582,-1.0681053400039673,-2.1129162311553955
1771073484356256300,3.75525634765625,1.5495271682739258,-1.0201228857040405,-2.4944608211517334
1771073484366196200,3.7651962890625,0.7520742416381836,-0.9485906362533569,-2.459688186645508
1771073484376136200,3.77513623046875,-0.35959911346435547,-0.8106024265289307,-1.8543896675109863
1771073484386076200,3.785076171875,-1.7848052978515625,-0.4006417989730835,-1.04268479347229
1771073484396016000,3.79501611328125,-3.1656908988952637,0.17611145973205566,-0.40848952531814575
1771073484405956000,3.8049560546875,-4.331532001495361,0.6835014820098877,0.007672443985939026
1771073484415896000,3.81489599609375,-5.123744010925293,1.087857723236084,0.24973240494728088
1771073484425836000,3.8248359375,-5.682505130767822,1.464240550994873,0.5969454646110535
1771073484435776000,3.83477587890625,-6.257786273956299,1.516310691833496,0.8640191555023193
1771073484445716000,3.844716064453125,-6.385124206542969,1.3891181945800781,1.013588547706604
1771073484455656000,3.854656005859375,-5.887641906738281,1.2455193996429443,1.3158553838729858
1771073484465595600,3.864595703125,-4.769434452056885,1.176733136177063,1.5513237714767456
1771073484475535600,3.87453564453125,-3.444408893585205,1.1073732376098633,1.5939728021621704
1771073484485475600,3.8844755859375,-2.210155487060547,0.9005527496337891,1.4311383962631226
1771073484495415600,3.89441552734375,-1.549041748046875,0.3030734062194824,1.0996153354644775
1771073484505355500,3.90435546875,-1.3666839599609375,-0.41859352588653564,0.7474542260169983
1771073484515295500,3.91429541015625,-1.1920795440673828,-0.9213287830352783,0.2815038561820984
1771073484525235500,3.9242353515625,-1.035964012145996,-1.1802514791488647,-0.1688368022441864
1771073484535175400,3.934175537109375,-1.0748653411865234,-1.3573780059814453,-0.5399821996688843
1771073484545115400,3.944115478515625,-1.02490234375,-1.6108354330062866,-1.0799188613891602
1771073484555055400,3.954055419921875,-0.8081874847412109,-1.7414320707321167,-1.8403599262237549
1771073484564995300,3.963995361328125,-0.7698392868041992,-1.4765602350234985,-2.7757039070129395
1771073484574935300,3.973935302734375,-0.593571662902832,-0.9569869041442871,-4.078246116638184
1771073484584875300,3.983875244140625,0.14224624633789062,-0.5701769590377808,-5.543929576873779
1771073484594815000,3.99381494140625,0.8128576278686523,-0.4042015075683594,-6.602943420410156
1771073484604755000,4.0037548828125,0.5074195861816406,-0.24942421913146973,-6.898528575897217
1771073484614695000,4.01369482421875,0.3013038635253906,0.12043094635009766,-6.2545270919799805
1771073484624635000,4.023634765625,0.8702764511108398,0.6294353008270264,-4.155025959014893
1771073484634574800,4.033574951171875,1.4251089096069336,0.8405256271362305,-0.9748067855834961
1771073484644514800,4.043514892578125,1.0439729690551758,1.0153656005859375,2.1447343826293945
1771073484654454800,4.053454833984375,0.7350826263427734,1.557783842086792,3.8664727210998535
1771073484664394800,4.063394775390625,1.176100730895996,2.2092390060424805,3.955237865447998
1771073484674334700,4.073334716796875,2.338367462158203,2.398905038833618,3.5410068035125732
1771073484684274700,4.083274658203125,3.8397226333618164,1.9233431816101074,3.12288236618042
1771073484694214700,4.093214599609375,5.249087333679199,0.8784654140472412,2.1644248962402344
1771073484704154600,4.103154541015625,6.549030303955078,-0.4069545269012451,0.6185699701309204
1771073484714094600,4.113094482421875,7.546747207641602,-1.676029920578003,-1.0934737920761108
1771073484724034300,4.123034423828125,7.657727241516113,-2.5205538272857666,-2.2694344520568848
1771073484733974300,4.132974365234375,6.643141746520996,-2.698284864425659,-2.710516929626465
1771073484743914200,4.142914306640625,5.112646102905273,-2.408266067504883,-2.7351315021514893
1771073484753854200,4.152854248046875,3.579713821411133,-2.0123345851898193,-2.4950380325317383
1771073484763794200,4.162794189453125,2.1295900344848633,-1.6816155910491943,-2.006985664367676
1771073484773734100,4.172734130859375,1.079545021057129,-1.44303560256958,-1.5057528018951416
1771073484783674000,4.182674072265625,0.22177886962890625,-1.363342523574829,-1.0792787075042725
1771073484793614000,4.192614013671875,-0.7547540664672852,-1.3247816562652588,-0.6751065254211426
1771073484803554000,4.202553955078125,-2.0060982704162598,-1.1991679668426514,-0.1171010360121727
1771073484813494000,4.212493896484375,-3.4570579528808594,-1.0452213287353516,0.5940309762954712
1771073484823434000,4.22243408203125,-4.976101398468018,-0.8130006790161133,1.3263558149337769
1771073484833374000,4.2323740234375,-6.088486671447754,-0.517871618270874,1.8361033201217651
1771073484843313700,4.242313720703125,-6.353409767150879,-0.23772549629211426,1.9456976652145386
1771073484853253600,4.252253662109375,-5.773942470550537,-0.13054919242858887,1.7469700574874878
1771073484863193600,4.262193603515625,-4.499794006347656,-0.42926979064941406,1.2597047090530396
1771073484873133600,4.272133544921875,-3.422433376312256,-1.165763258934021,0.6767187118530273
1771073484883073500,4.282073486328125,-2.8081178665161133,-1.908819556236267,0.40990370512008667
1771073484893013500,4.292013427734375,-2.5142016410827637,-2.2950704097747803,0.6430515646934509
1771073484902953500,4.301953369140625,-2.271711826324463,-2.311424493789673,1.2011221647262573
1771073484912893400,4.3118935546875,-2.010776996612549,-1.988635540008545,1.8474124670028687
1771073484922833400,4.32183349609375,-2.1253390312194824,-1.5627378225326538,2.4557502269744873
1771073484932773400,4.3317734375,-2.333062171936035,-1.365539789199829,2.794271469116211
1771073484942713300,4.34171337890625,-2.1995577812194824,-1.3715826272964478,2.970106601715088
1771073484952653300,4.3516533203125,-1.7305855751037598,-1.438772439956665,3.0036942958831787
1771073484962593300,4.36159326171875,-0.5588760375976562,-1.4494926929473877,2.229255199432373
1771073484972533000,4.371532958984375,1.3753461837768555,-1.1610982418060303,0.4931192398071289
1771073484982473000,4.381472900390625,2.1097049713134766,-0.4151047468185425,-0.5089240074157715
1771073484992413000,4.391412841796875,2.0210494995117188,0.37843191623687744,0.21937668323516846
1771073485002353000,4.401352783203125,0.9876623153686523,1.5628955364227295,1.956230640411377
1771073485012292900,4.41129296875,0.014111518859863281,3.3029744625091553,4.110752582550049
1771073485022232800,4.42123291015625,0.29950428009033203,4.890598297119141,5.618901252746582
1771073485032172800,4.4311728515625,1.5546188354492188,4.937667369842529,6.405868053436279
1771073485042112800,4.44111279296875,2.284543037414551,3.293285608291626,6.8279643058776855
1771073485052052700,4.451052734375,2.6514511108398438,1.1896140575408936,6.752928733825684
1771073485061992700,4.46099267578125,3.4421615600585938,-0.4869968891143799,5.782474994659424
1771073485071932700,4.4709326171875,4.488645553588867,-1.6703242063522339,4.023599147796631
1771073485081872600,4.48087255859375,5.376269340515137,-2.454904794692993,1.9139025211334229
1771073485091812600,4.4908125,6.376678466796875,-2.943058490753174,0.05409926176071167
1771073485101752300,4.50075244140625,7.0242462158203125,-3.0121819972991943,-1.1689785718917847
1771073485111692300,4.5106923828125,6.859088897705078,-2.812486410140991,-1.9653871059417725
1771073485121632300,4.52063232421875,5.748526573181152,-2.294020175933838,-2.2448577880859375
1771073485131572200,4.530572265625,3.8744497299194336,-1.415016770362854,-2.0238983631134033
1771073485141512200,4.54051220703125,2.3072776794433594,-0.4576219320297241,-1.704927682876587
1771073485151452200,4.5504521484375,1.7393808364868164,0.6668339967727661,-1.056501865386963
1771073485161392000,4.56039208984375,1.7633800506591797,1.391847014427185,-0.45966264605522156
1771073485171332000,4.57033203125,1.8140411376953125,1.0668493509292603,-0.5495986938476562
1771073485181272000,4.58027197265625,1.1777029037475586,0.07071447372436523,-0.8566313982009888
1771073485191212000,4.5902119140625,-0.39206409454345703,-0.8246258497238159,-1.0868008136749268
1771073485201152000,4.600152099609375,-2.8771004676818848,-1.2385183572769165,-1.1931124925613403
1771073485211092000,4.610092041015625,-5.678251266479492,-1.0227457284927368,-1.235182762145996
1771073485221032000,4.620031982421875,-7.888657569885254,-0.2457953691482544,-1.1058406829833984
1771073485230971600,4.6299716796875,-8.815750122070312,0.6354701519012451,-0.9591672420501709
1771073485240911600,4.63991162109375,-8.559696197509766,1.0955278873443604,-0.8093538880348206
1771073485250851600,4.6498515625,-7.5076799392700195,0.9517737627029419,-0.6885862350463867
1771073485260791600,4.65979150390625,-6.30029296875,0.3890944719314575,-0.546879768371582
1771073485270731500,4.6697314453125,-5.191580295562744,-0.12681066989898682,-0.42118269205093384
1771073485280671200,4.679671142578125,-3.985295295715332,-0.5433391332626343,-0.5208394527435303
1771073485290611200,4.689611083984375,-3.0898900032043457,-0.9184406995773315,-0.8300886154174805
1771073485300551200,4.69955126953125,-2.885071277618408,-1.2141574621200562,-1.061741828918457
1771073485310491100,4.7094912109375,-3.6078081130981445,-1.433392882347107,-1.1726187467575073
1771073485320430800,4.719430908203125,-4.421304225921631,-1.5205422639846802,-1.32342529296875
1771073485330370800,4.729370849609375,-4.725349426269531,-1.573093056678772,-1.639134407043457
1771073485340310800,4.739310791015625,-4.462704658508301,-1.637454628944397,-2.0774521827697754
1771073485350250500,4.74925048828125,-3.5139265060424805,-1.6267980337142944,-2.7714576721191406
1771073485360190500,4.7591904296875,-2.038565158843994,-1.4486446380615234,-3.9204752445220947
1771073485370130400,4.76913037109375,-0.07581710815429688,-1.152451992034912,-5.455194473266602
1771073485380070400,4.7790703125,2.073605537414551,-0.6105815172195435,-6.816140174865723
1771073485390010000,4.789010009765625,3.587124824523926,0.02326071262359619,-7.345913410186768
1771073485399950000,4.7989501953125,3.8241939544677734,0.43076789379119873,-6.677280426025391
1771073485409890000,4.80889013671875,3.6115293502807617,1.0463718175888062,-5.197911262512207
1771073485419829800,4.818829833984375,4.120514869689941,1.735278844833374,-3.3114001750946045
1771073485429769700,4.828769775390625,5.53884220123291,1.7850427627563477,-0.6591960787773132
1771073485439709700,4.838709716796875,6.366626739501953,1.3947083950042725,1.9168092012405396
1771073485449649700,4.848649658203125,6.540979385375977,1.244091510772705,3.4929826259613037
1771073485459589400,4.85858935546875,6.931451797485352,1.3603332042694092,3.843737840652466
1771073485469529300,4.868529296875,7.430999755859375,1.046628475189209,3.0809361934661865
1771073485479469300,4.87846923828125,7.474272727966309,0.10245323181152344,1.7772858142852783
1771073485489409300,4.8884091796875,7.104269027709961,-1.0949790477752686,0.28628015518188477
1771073485499349000,4.898348876953125,6.649679183959961,-2.1181411743164062,-1.4039829969406128
1771073485509289000,4.9082890625,5.919578552246094,-2.6722524166107178,-2.8157315254211426
1771073485519229000,4.91822900390625,4.877079963684082,-2.702465295791626,-3.5337069034576416
1771073485529168600,4.928168701171875,3.3792476654052734,-2.3712360858917236,-3.559987783432007
1771073485539108600,4.938108642578125,1.7813100814819336,-1.9516602754592896,-3.0166678428649902
1771073485549048600,4.948048583984375,0.1978139877319336,-1.591142177581787,-2.1388204097747803
1771073485558988500,4.957988525390625,-1.257624626159668,-1.3096895217895508,-1.1592059135437012
1771073485568928500,4.967928466796875,-2.4287991523742676,-1.0944304466247559,-0.1651330590248108
1771073485578868500,4.977868408203125,-3.29079532623291,-0.9349347352981567,0.6874710321426392
1771073485588808400,4.987808349609375,-3.8972301483154297,-0.8255934715270996,1.318223237991333
1771073485598748200,4.997748046875,-4.336862087249756,-0.7556871175765991,1.7678258419036865
1771073485608688000,5.007688232421875,-4.760406494140625,-0.6880228519439697,2.1210367679595947
1771073485618628000,5.017628173828125,-5.509646892547607,-0.7900387048721313,2.3299784660339355
1771073485628568000,5.027568115234375,-6.386487007141113,-1.0094499588012695,2.4184420108795166
1771073485638508000,5.037508056640625,-7.184615612030029,-1.1260408163070679,2.476978302001953
1771073485648448000,5.047447998046875,-7.490561008453369,-1.5002179145812988,2.4508473873138428
1771073485658388000,5.057387939453125,-7.239168167114258,-1.7592871189117432,2.367300271987915
1771073485668328000,5.067327880859375,-6.517388343811035,-2.0076067447662354,2.147050619125366
1771073485678268000,5.077267822265625,-5.365716457366943,-2.185436725616455,2.0457561016082764
1771073485688208000,5.087207763671875,-3.898087978363037,-2.2618019580841064,2.1464951038360596
1771073485698147800,5.09714794921875,-2.342757225036621,-2.3761534690856934,2.3513081073760986
1771073485708087800,5.107087890625,-1.2163820266723633,-2.4533743858337402,2.5116305351257324
1771073485718027500,5.117027587890625,-0.4926929473876953,-2.397217035293579,2.9021928310394287
1771073485727967500,5.126967529296875,-0.38939857482910156,-2.2154829502105713,3.2300236225128174
1771073485737907500,5.136907470703125,-0.4440031051635742,-1.9644057750701904,3.1945877075195312
1771073485747847400,5.146847412109375,0.07233238220214844,-1.61476731300354,2.3104496002197266
1771073485757787400,5.156787353515625,0.7172927856445312,-0.9792654514312744,0.9020442962646484
1771073485767727400,5.166727294921875,0.3466835021972656,-0.23697030544281006,0.5116092562675476
1771073485777667300,5.176667236328125,-0.8652439117431641,0.6442720890045166,1.6327731609344482
1771073485787607300,5.186607177734375,-2.1896681785583496,2.0867323875427246,3.6960411071777344
1771073485797547300,5.19654736328125,-2.44276762008667,4.171137809753418,5.752040386199951
1771073485807487200,5.2064873046875,-0.5050144195556641,6.062749862670898,7.086658477783203
1771073485817427200,5.21642724609375,2.9440040588378906,6.363907337188721,7.89892053604126
1771073485827367200,5.2263671875,6.273647308349609,4.405510902404785,8.266073226928711
1771073485837307100,5.23630712890625,8.676251411437988,1.0345237255096436,7.670863628387451
1771073485847246800,5.246246826171875,10.403969764709473,-2.21268367767334,6.036914348602295
1771073485857186800,5.256186767578125,11.359264373779297,-4.066765785217285,3.7262706756591797
1771073485867126800,5.266126708984375,11.625537872314453,-4.421295166015625,1.3014116287231445
1771073485877066800,5.276066650390625,11.138932228088379,-3.9687728881835938,-0.5306235551834106
1771073485887006700,5.2860068359375,9.821867942810059,-3.38330078125,-1.4327555894851685
1771073485896946700,5.29594677734375,8.217615127563477,-2.880608081817627,-1.938092589378357
1771073485906886700,5.30588671875,6.203071594238281,-2.4139819145202637,-2.155069589614868
1771073485916826600,5.31582666015625,4.066690444946289,-1.8042831420898438,-2.1138358116149902
1771073485926766600,5.3257666015625,2.4298553466796875,-1.1701197624206543,-2.0098917484283447
1771073485936706600,5.33570654296875,1.3110637664794922,-0.6519020795822144,-1.8184044361114502
1771073485946646500,5.345646484375,0.9189863204956055,-0.3290262222290039,-1.5261409282684326
1771073485956586500,5.35558642578125,0.4620943069458008,-0.4439493417739868,-1.3082959651947021
1771073485966526500,5.3655263671875,-0.32383155822753906,-0.8020238280296326,-1.1754038333892822
1771073485976466200,5.375466064453125,-1.3444623947143555,-1.0895330905914307,-1.1604121923446655
1771073485986406100,5.38540625,-2.831005096435547,-1.207131028175354,-1.2230669260025024
1771073485996346000,5.39534619140625,-5.039113998413086,-1.077855110168457,-1.1569749116897583
1771073486006286000,5.4052861328125,-7.3369855880737305,-0.6026898622512817,-0.9904745221138
1771073486016226000,5.41522607421875,-8.784369468688965,0.027868270874023438,-0.9000304937362671
1771073486026166000,5.425166015625,-9.331050872802734,0.45421886444091797,-0.7799131274223328
1771073486036106000,5.43510595703125,-9.074078559875488,0.4945662021636963,-0.7056045532226562
1771073486046046000,5.4450458984375,-8.197408676147461,0.4115939140319824,-0.9397913813591003
1771073486055986000,5.45498583984375,-7.327937126159668,0.14486169815063477,-1.1414802074432373
1771073486065926000,5.46492578125,-6.504909992218018,-0.22457385063171387,-1.100639820098877
1771073486075865900,5.474865966796875,-5.773760795593262,-0.584525465965271,-0.8732411861419678
1771073486085805800,5.484805908203125,-5.337067604064941,-1.0365346670150757,-0.8822287917137146
1771073486095745800,5.494745849609375,-4.98455286026001,-1.4281446933746338,-1.1892592906951904
1771073486105685500,5.504685546875,-4.8847761154174805,-1.5706615447998047,-1.4968050718307495
1771073486115625500,5.51462548828125,-4.53541374206543,-1.4631515741348267,-1.720349907875061
1771073486125565400,5.5245654296875,-3.7601685523986816,-1.2731907367706299,-1.870285153388977
1771073486135505400,5.53450537109375,-2.2319679260253906,-1.0958964824676514,-2.135948657989502
1771073486145445400,5.5444453125,-0.6962547302246094,-0.9775110483169556,-2.760180711746216
1771073486155385300,5.55438525390625,0.2029714584350586,-0.933504045009613,-3.8613455295562744
1771073486165325300,5.5643251953125,1.0784759521484375,-0.7319320440292358,-5.147092342376709
1771073486175265300,5.574265380859375,1.6814203262329102,-0.11790919303894043,-6.138425350189209
1771073486185205200,5.584205322265625,2.3462562561035156,0.546916127204895,-6.648029804229736
1771073486195145200,5.594145263671875,2.678402900695801,1.1035829782485962,-6.211789131164551
1771073486205085200,5.604085205078125,2.880176544189453,1.6837108135223389,-4.867841720581055
1771073486215025200,5.614025146484375,3.8940601348876953,2.040379524230957,-2.987287759780884
1771073486224964900,5.62396484375,4.762789726257324,1.7260463237762451,-1.1939010620117188
1771073486234904800,5.63390478515625,4.635806083679199,1.0361075401306152,0.33029818534851074
1771073486244844800,5.6438447265625,4.05573844909668,0.9694139957427979,1.9236456155776978
1771073486254784800,5.65378466796875,4.062464714050293,1.603231430053711,2.8391644954681396
1771073486264724700,5.663724853515625,4.813286781311035,2.1366775035858154,2.975393772125244
1771073486274664700,5.673664794921875,5.601431846618652,2.064634084701538,2.8000473976135254
1771073486284604700,5.683604736328125,6.265056610107422,1.281351089477539,2.0762453079223633
1771073486294544600,5.693544677734375,6.787461280822754,0.058989763259887695,0.757177472114563
1771073486304484600,5.703484619140625,7.278943061828613,-0.9534180164337158,-0.691979169845581
1771073486314424600,5.713424560546875,7.581020355224609,-1.4159011840820312,-1.8419551849365234
1771073486324364500,5.723364501953125,7.207334518432617,-1.750378966331482,-2.7605514526367188
1771073486334304500,5.733304443359375,6.08588981628418,-2.0735015869140625,-3.3473501205444336
1771073486344244500,5.743244384765625,4.254889488220215,-2.292269229888916,-3.4591307640075684
1771073486354184200,5.75318408203125,2.3254165649414062,-2.501988410949707,-3.2968411445617676
1771073486364124200,5.763124267578125,0.4863920211791992,-2.6578850746154785,-2.9433720111846924
1771073486374064000,5.773064208984375,-1.047555923461914,-2.6704893112182617,-2.2651443481445312
1771073486384004000,5.783004150390625,-2.128999710083008,-2.6259231567382812,-1.405839443206787
1771073486393944000,5.792944091796875,-3.171947956085205,-2.556920051574707,-0.4488041400909424
1771073486403884000,5.802884033203125,-4.364858150482178,-2.4426844120025635,0.6042359471321106
1771073486413824000,5.812823974609375,-5.40455961227417,-2.3349506855010986,1.473870038986206
1771073486423764000,5.822763916015625,-6.0875020027160645,-2.1750917434692383,2.0927276611328125
1771073486433704000,5.832703857421875,-6.581187725067139,-2.289098024368286,2.382946491241455
1771073486443644000,5.842643798828125,-6.964267730712891,-2.673015594482422,2.306826591491699
1771073486453584000,5.852583984375,-7.068825721740723,-3.037456512451172,2.20469069480896
1771073486463523800,5.86252392578125,-6.905618667602539,-3.1491284370422363,2.1470658779144287
1771073486473463800,5.8724638671875,-6.319392204284668,-3.102156162261963,2.0682857036590576
1771073486483403500,5.882403564453125,-5.684440612792969,-3.0491220951080322,1.9551070928573608
1771073486493343500,5.892343505859375,-5.240180015563965,-2.9992454051971436,2.0188775062561035
1771073486503283500,5.902283447265625,-5.0757670402526855,-2.8770995140075684,2.2462549209594727
1771073486513223400,5.912223388671875,-4.798836708068848,-2.6891746520996094,2.410017728805542
1771073486523163400,5.922163330078125,-4.316629886627197,-2.3127760887145996,2.6581945419311523
1771073486533103400,5.932103271484375,-3.629852294921875,-1.706518530845642,2.776585102081299
1771073486543043300,5.942043212890625,-2.449768543243408,-0.8960920572280884,2.6446404457092285
1771073486552983300,5.9519833984375,-0.5615139007568359,0.19060635566711426,1.68580162525177
1771073486562923300,5.96192333984375,0.9532880783081055,1.3944604396820068,1.1152986288070679
1771073486572863200,5.97186328125,1.571493148803711,1.8673927783966064,1.3378320932388306
1771073486582803200,5.98180322265625,1.3904266357421875,1.8019983768463135,2.200434684753418
1771073486592743200,5.9917431640625,0.9256296157836914,2.1410834789276123,3.4132354259490967
1771073486602683100,6.00168310546875,1.7098636627197266,2.9880757331848145,4.476951599121094
1771073486612622800,6.011622802734375,3.547858238220215,3.4434127807617188,5.290932655334473
1771073486622562800,6.021562744140625,4.580113410949707,2.6217405796051025,5.712320327758789
1771073486632502800,6.031502685546875,4.567015647888184,0.7483782768249512,5.33057975769043
1771073486652382500,6.051382568359375,6.340847969055176,-2.4967758655548096,2.0642521381378174
1771073486662322400,6.061322509765625,7.789913177490234,-3.3005874156951904,0.0031718164682388306
1771073486672262400,6.071262451171875,9.148664474487305,-3.7646355628967285,-1.5584243535995483
1771073486682202000,6.0812021484375,9.671260833740234,-3.8827919960021973,-2.3448433876037598
1771073486692142000,6.09114208984375,9.177199363708496,-3.575486183166504,-2.4535512924194336
1771073486702082000,6.10108203125,7.558300971984863,-2.6558804512023926,-1.9605937004089355
1771073486712022000,6.11102197265625,5.7804107666015625,-1.2083499431610107,-1.066879391670227
1771073486721961700,6.120961669921875,3.6870126724243164,0.1560535430908203,-0.3474224805831909
1771073486731901700,6.130901611328125,1.4371280670166016,0.9712930917739868,-0.2749156355857849
1771073486741841700,6.140841552734375,-0.5574264526367188,1.1152738332748413,-0.8774844408035278
1771073486751781400,6.150781494140625,-2.026778221130371,0.7863916158676147,-1.6963996887207031
1771073486761721300,6.160721435546875,-2.3523855209350586,0.514938235282898,-2.064251184463501
1771073486771661300,6.170661376953125,-2.091315269470215,0.3294168710708618,-2.043635845184326
1771073486781601300,6.180601318359375,-2.0806422233581543,0.1184380054473877,-1.8798167705535889
1771073486791541000,6.190541015625,-2.5796241760253906,-0.05653035640716553,-1.7817015647888184
1771073486801481000,6.20048095703125,-3.4742746353149414,-0.1483062505722046,-1.729538917541504
1771073486811421000,6.2104208984375,-4.376375198364258,-0.12172293663024902,-1.7572728395462036
1771073486821361000,6.22036083984375,-5.195182800292969,0.03181052207946777,-1.6144967079162598
1771073486831300600,6.230300537109375,-6.301703929901123,0.3024104833602905,-1.1650798320770264
1771073486841240600,6.240240478515625,-7.310054779052734,0.5395457744598389,-0.7532346248626709
1771073486851180500,6.2501806640625,-7.620828151702881,0.7282828092575073,-0.27776074409484863
1771073486861120300,6.260120361328125,-6.666126251220703,0.9243428707122803,0.5446749329566956
1771073486871060200,6.270060302734375,-4.880806922912598,1.3721967935562134,1.7432600259780884
1771073486881000200,6.280000244140625,-2.9674410820007324,1.7862377166748047,2.813859462738037
1771073486890940200,6.289940185546875,-1.4881229400634766,1.6885284185409546,3.3071768283843994
1771073486900880000,6.2998798828125,-0.6309070587158203,1.052866816520691,3.127121686935425
1771073486910819800,6.30981982421875,-0.5517282485961914,0.10109555721282959,2.1297712326049805
1771073486920760600,6.319760498046875,-0.9954385757446289,-0.9907192587852478,0.3451409637928009
1771073486930700800,6.32970068359375,-1.1851749420166016,-2.082547426223755,-1.6521958112716675
1771073486940640800,6.339640869140625,-0.9755430221557617,-2.536515712738037,-2.492605209350586
1771073486950580700,6.349580810546875,-1.3662796020507812,-2.9296793937683105,-1.9279158115386963
1771073486960520700,6.359520751953125,-0.7469758987426758,-2.1963367462158203,-0.34031370282173157
1771073486970460700,6.369460693359375,1.6966485977172852,0.16498029232025146,0.949754536151886
1771073486980400400,6.379400390625,2.4674644470214844,2.1986773014068604,1.5560046434402466
1771073486990340400,6.38934033203125,1.4242448806762695,3.3010940551757812,1.0914905071258545
1771073487000280300,6.3992802734375,-0.6116666793823242,4.053583145141602,-0.5466009378433228
1771073487010220000,6.409219970703125,-2.6198997497558594,3.8054285049438477,-4.242181777954102
1771073487020160000,6.419159912109375,-3.354644775390625,2.4914369583129883,-7.78925895690918
1771073487030100000,6.429099853515625,-2.9491796493530273,1.0842094421386719,-8.638433456420898
1771073487040040000,6.4390400390625,-2.280838966369629,0.4036848545074463,-6.548085689544678
1771073487049979600,6.448979736328125,-1.0703859329223633,0.9780731201171875,-2.922132730484009
1771073487059919600,6.458919677734375,1.9137601852416992,1.8947513103485107,0.2886312007904053
1771073487069859600,6.468859619140625,5.2983245849609375,2.2090699672698975,2.6982951164245605
1771073487079799300,6.47879931640625,9.9014253616333,2.1998159885406494,5.425481796264648
1771073487089739300,6.4887392578125,14.079915046691895,1.7272968292236328,6.981335163116455
1771073487099679200,6.49867919921875,16.521835327148438,0.47702503204345703,6.165776252746582
1771073487109619200,6.508619140625,15.841774940490723,-1.5425169467926025,3.445143461227417
1771073487119559000,6.518558837890625,13.134329795837402,-3.4614810943603516,-0.21921813488006592
1771073487129499000,6.528498779296875,9.808156967163086,-4.473203182220459,-3.2589755058288574
1771073487139438800,6.53843896484375,6.037812232971191,-4.792961120605469,-4.96390438079834
1771073487149378600,6.548378662109375,2.745152473449707,-4.449501991271973,-5.211007595062256
1771073487159318500,6.558318603515625,0.43607425689697266,-3.7815890312194824,-4.627749919891357
1771073487169258500,6.568258544921875,-1.5471057891845703,-3.3159265518188477,-3.8316755294799805
1771073487179198500,6.578198486328125,-3.174564838409424,-3.08772611618042,-2.9608285427093506
1771073487189138200,6.58813818359375,-4.304136753082275,-2.9621694087982178,-1.9256309270858765
1771073487199078100,6.598078125,-5.110903739929199,-2.9558589458465576,-0.8955082893371582
1771073487209018000,6.60801806640625,-5.831355094909668,-2.9763710498809814,0.1552891731262207
1771073487218958000,6.6179580078125,-6.637092590332031,-2.947087526321411,1.2876462936401367
1771073487228897800,6.627897705078125,-7.3394060134887695,-2.9341394901275635,2.326688528060913
1771073487238837800,6.637837646484375,-7.552431106567383,-2.8917360305786133,3.1156954765319824
1771073487248777700,6.64777783203125,-7.058978080749512,-2.805131435394287,3.54885196685791
1771073487258717400,6.657717529296875,-6.248577117919922,-2.778689384460449,3.74058198928833
1771073487268657400,6.667657470703125,-5.264277935028076,-2.8886711597442627,3.832814931869507
1771073487278597400,6.677597412109375,-4.579909801483154,-3.087372303009033,3.878286838531494
1771073487288537300,6.687537353515625,-4.22697114944458,-3.2028980255126953,3.966447114944458
1771073487298477000,6.69747705078125,-4.065680503845215,-3.1399595737457275,4.048129558563232
1771073487308417000,6.7074169921875,-4.140329837799072,-2.8603017330169678,4.069160461425781
1771073487318357000,6.71735693359375,-4.588118553161621,-2.649980306625366,3.858497142791748
1771073487328297000,6.727296875,-5.247928619384766,-2.514131546020508,3.515761375427246
1771073487338237000,6.73723681640625,-5.6445817947387695,-2.333491802215576,3.215363025665283
1771073487348177000,6.747177001953125,-5.492806911468506,-2.0850324630737305,2.8336520195007324
1771073487358116900,6.757116943359375,-4.414188861846924,-1.7593860626220703,1.6473150253295898
1771073487368056800,6.767056884765625,-2.560009002685547,-1.2502162456512451,-0.2590070068836212
1771073487377996800,6.776996826171875,-1.0947999954223633,-0.7354037761688232,-1.539501428604126
1771073487387936800,6.786936767578125,-0.7696924209594727,-0.4069690704345703,-1.5626189708709717
1771073487397876500,6.79687646484375,-2.277324676513672,0.3840627670288086,-0.2842198610305786
1771073487407816400,6.80681640625,-4.0696868896484375,2.4713683128356934,1.878816843032837
1771073487417756400,6.81675634765625,-3.0637497901916504,4.765499114990234,3.822878837585449
1771073487427696400,6.8266962890625,1.4184494018554688,5.3780412673950195,5.253833770751953
1771073487437636400,6.83663623046875,5.909488677978516,4.1489410400390625,6.8052239418029785
1771073487447576300,6.846576416015625,8.771172523498535,1.6357109546661377,7.904959678649902
1771073487457516300,6.856516357421875,11.241216659545898,-1.1326959133148193,8.216163635253906
1771073487467456300,6.866456298828125,12.992883682250977,-3.7846131324768066,6.013167381286621
1771073487477396200,6.876396240234375,13.815521240234375,-5.494864463806152,2.7573654651641846
1771073487487336200,6.886336181640625,13.637521743774414,-6.479160308837891,-0.5875813961029053
1771073487497276200,6.896276123046875,12.977126121520996,-6.822915077209473,-3.2851614952087402
1771073487507216100,6.906216064453125,11.66378116607666,-6.291214942932129,-4.57913064956665
1771073487517156000,6.916156005859375,9.653115272521973,-4.995297908782959,-4.295274257659912
1771073487527095800,6.926095703125,7.497153282165527,-3.333453416824341,-2.8680827617645264
1771073487537035800,6.936035888671875,5.8598480224609375,-1.6651153564453125,-1.0559475421905518
1771073487546975700,6.945975830078125,4.360415458679199,-0.358925461769104,0.6502678394317627
1771073487556915700,6.955915771484375,2.858736038208008,0.6953674554824829,2.0169548988342285
1771073487566855700,6.965855712890625,1.0726127624511719,1.0785473585128784,2.703805446624756
1771073487576795600,6.975795654296875,-0.6749658584594727,1.166550874710083,2.890364408493042
1771073487586735600,6.985735595703125,-2.2787885665893555,1.1501820087432861,2.7500178813934326
1771073487596675600,6.995675537109375,-3.7113633155822754,1.104043960571289,2.568545341491699
1771073487606615600,7.005615478515625,-4.958337783813477,0.967383623123169,2.224266290664673
1771073487616555500,7.015555419921875,-6.037269115447998,0.8086409568786621,1.8307905197143555
1771073487626495500,7.02549560546875,-7.04964017868042,0.837548017501831,1.3262863159179688
1771073487636435500,7.035435546875,-7.983944416046143,0.8402719497680664,0.7722187042236328
1771073487646375400,7.04537548828125,-8.822775840759277,0.7850432395935059,0.47322338819503784
1771073487656315100,7.055315185546875,-9.318343162536621,0.6307168006896973,0.2997933626174927
1771073487666255000,7.065255126953125,-9.633176803588867,0.46776890754699707,0.2229831963777542
1771073487676195000,7.075195068359375,-9.71364688873291,0.6116797924041748,0.7397581338882446
1771073487686135000,7.085135009765625,-9.73776626586914,0.4645087718963623,0.35553592443466187
1771073487696075000,7.095074951171875,-9.920296669006348,0.20807886123657227,-0.2988013029098511
1771073487706015000,7.105014892578125,-9.709824562072754,-0.009129047393798828,-0.9375361800193787
1771073487715955000,7.114954833984375,-9.193890571594238,-0.15325427055358887,-1.3270150423049927
1771073487725895000,7.12489501953125,-8.443177223205566,-0.513099193572998,-1.8016185760498047
1771073487735835000,7.1348349609375,-7.500677108764648,-1.1629561185836792,-2.5815141201019287
1771073487745774800,7.14477490234375,-7.058424949645996,-1.5017597675323486,-2.676718235015869
1771073487755714800,7.15471484375,-5.588834762573242,-1.7453773021697998,-3.1683809757232666
1771073487765654800,7.16465478515625,-2.7978901863098145,-1.6324692964553833,-4.5903849601745605
1771073487775594500,7.174594482421875,0.03155803680419922,-1.2432562112808228,-6.401823997497559
1771073487785534500,7.184534423828125,2.248594284057617,-0.7024710178375244,-8.030974388122559
1771073487795474400,7.194474365234375,3.725449562072754,0.05641376972198486,-8.645703315734863
1771073487805414400,7.204414306640625,4.729617118835449,1.1325329542160034,-7.529642105102539
1771073487815354400,7.214354248046875,5.528912544250488,2.4179821014404297,-5.182925224304199
1771073487825294300,7.22429443359375,7.713822364807129,3.3620853424072266,-2.154050588607788
1771073487835234300,7.234234375,10.690897941589355,3.4796862602233887,1.3916192054748535
1771073487845174300,7.24417431640625,13.414977073669434,3.0570497512817383,4.717241287231445
1771073487855114200,7.2541142578125,14.907438278198242,2.1522440910339355,7.050406455993652
1771073487865054200,7.26405419921875,14.77138900756836,0.5670368671417236,7.852432727813721
1771073487874994200,7.273994140625,13.992452621459961,-1.4605796337127686,6.940892219543457
1771073487884934100,7.28393408203125,13.058548927307129,-3.0860724449157715,4.930632591247559
1771073487894874000,7.2938740234375,11.294804573059082,-4.105179786682129,2.5778603553771973
1771073487904813800,7.303813720703125,9.300535202026367,-4.671523571014404,0.1757381558418274
1771073487914753800,7.31375390625,7.1679840087890625,-4.64427375793457,-1.6162880659103394
1771073487924693800,7.32369384765625,5.213525772094727,-4.375489711761475,-2.7465436458587646
1771073487934633700,7.3336337890625,3.020862579345703,-4.207432746887207,-3.2668991088867188
1771073487944573700,7.34357373046875,1.0693597793579102,-4.029389381408691,-3.301872968673706
1771073487954513700,7.353513671875,-0.31780147552490234,-3.7117817401885986,-2.911196231842041
1771073487964453600,7.36345361328125,-1.1148710250854492,-3.2665915489196777,-2.2042484283447266
1771073487974393600,7.3733935546875,-1.579676628112793,-2.847336769104004,-1.3504548072814941
1771073487984333600,7.38333349609375,-1.992495059967041,-2.557955265045166,-0.45793217420578003
1771073487994273500,7.3932734375,-2.613661289215088,-2.3611881732940674,0.31975752115249634
1771073488004213500,7.403213623046875,-3.3686676025390625,-2.2746710777282715,0.9820796251296997
1771073488014153500,7.413153564453125,-4.2477922439575195,-2.2094156742095947,1.5485857725143433
1771073488024093400,7.423093505859375,-5.193868637084961,-2.1118574142456055,2.0429208278656006
1771073488034033200,7.433033203125,-6.18369197845459,-2.0193440914154053,2.460590124130249
1771073488043973000,7.44297314453125,-7.1897382736206055,-1.7399728298187256,2.7427167892456055
1771073488053913000,7.4529130859375,-7.948303699493408,-1.8165154457092285,2.8468127250671387
1771073488063853000,7.46285302734375,-8.327017784118652,-1.825364112854004,2.869476318359375
1771073488073793000,7.47279296875,-8.429316520690918,-1.784042477607727,2.9110357761383057
1771073488083733000,7.48273291015625,-8.652169227600098,-1.796221375465393,3.0048556327819824
1771073488093673000,7.4926728515625,-8.952627182006836,-1.8947042226791382,3.0172510147094727
1771073488103613000,7.502613037109375,-9.314711570739746,-1.9288681745529175,2.9383723735809326
1771073488113553000,7.512552978515625,-9.752130508422852,-1.6939715147018433,2.941983222961426
1771073488123492900,7.522492919921875,-9.825153350830078,-1.0402650833129883,3.3399057388305664
1771073488133432800,7.532432861328125,-9.675376892089844,-0.5172486305236816,3.585831642150879
1771073488143372500,7.54237255859375,-7.139400005340576,-0.36037158966064453,3.55258846282959
1771073488153312500,7.5523125,-5.195824146270752,-0.16171598434448242,4.258484363555908
1771073488163252500,7.56225244140625,-3.503035068511963,-0.6257259845733643,5.132913589477539
1771073488173192400,7.5721923828125,-1.114980697631836,-1.32076096534729,5.191493988037109
1771073488183132200,7.582132080078125,1.7878141403198242,-2.0762038230895996,4.75456428527832
1771073488193072000,7.592072021484375,5.597156524658203,-2.4995603561401367,3.8154239654541016
1771073488203012000,7.60201220703125,9.665556907653809,-2.241811752319336,2.959402561187744
1771073488212951800,7.611951904296875,10.874531745910645,-1.5641533136367798,2.5335965156555176
1771073488222891800,7.621891845703125,8.029168128967285,-0.41094064712524414,3.01881742477417
1771073488232831700,7.631831787109375,3.623861312866211,1.7414426803588867,4.41195821762085
1771073488252711400,7.65171142578125,4.09951114654541,4.52532958984375,5.650623321533203
1771073488262651400,7.6616513671875,8.167722702026367,3.4818902015686035,7.285463809967041
1771073488272591400,7.67159130859375,11.764169692993164,1.2153279781341553,9.006217956542969
1771073488282531000,7.681531005859375,14.227791786193848,-1.7555454969406128,8.835617065429688
1771073488292471000,7.691470947265625,14.956308364868164,-4.313808441162109,6.793056488037109
1771073488302411000,7.701410888671875,13.851884841918945,-5.607213973999023,3.786201000213623
1771073488312351000,7.71135107421875,11.273103713989258,-5.373261451721191,0.8575173020362854
1771073488322290700,7.721290771484375,8.02414608001709,-3.877505302429199,-0.6444392204284668
1771073488332230700,7.731230712890625,4.577116966247559,-1.8819953203201294,-0.7695884704589844
1771073488342170600,7.741170654296875,1.9289894104003906,0.17155861854553223,-0.23731422424316406
1771073488352110300,7.7511103515625,-0.2495737075805664,1.6721642017364502,0.5714512467384338
1771073488362050300,7.76105029296875,-2.129031181335449,2.35845685005188,1.0690958499908447
1771073488371990300,7.770990234375,-3.1549243927001953,2.198460340499878,1.142350196838379
1771073488381930200,7.78093017578125,-3.1164469718933105,1.3740403652191162,0.9621989727020264
1771073488391870000,7.790869873046875,-3.189174175262451,0.483051061630249,1.0302871465682983
1771073488401810000,7.800809814453125,-3.203646659851074,-0.014438629150390625,1.3591904640197754
1771073488411750000,7.81075,-3.074470043182373,-0.12005043029785156,1.6755542755126953
1771073488421689900,7.82068994140625,-2.810077667236328,-0.0736994743347168,1.978103518486023
1771073488431629600,7.830629638671875,-2.2541046142578125,0.047544002532958984,2.1796305179595947
1771073488441569500,7.840569580078125,-1.4910783767700195,-0.008197784423828125,2.1225035190582275
1771073488451509500,7.850509521484375,-1.1444740295410156,-0.3779113292694092,1.7757843732833862
1771073488461449200,7.86044921875,-1.5717220306396484,-0.7715563774108887,1.3248698711395264
1771073488471389200,7.87038916015625,-2.7003836631774902,-0.9867575168609619,1.0075819492340088
1771073488481329200,7.8803291015625,-4.488114356994629,-0.957119345664978,0.7500929236412048
1771073488491269000,7.89026904296875,-6.782639503479004,-0.742755651473999,0.518814742565155
1771073488501208800,7.900208740234375,-9.075732231140137,-0.5113589763641357,0.3413296937942505
1771073488511148800,7.910148681640625,-10.586352348327637,-0.3173034191131592,0.12685000896453857
1771073488521088800,7.9200888671875,-11.202779769897461,-0.1729722023010254,0.0008527636528015137
1771073488531028700,7.93002880859375,-11.354034423828125,-0.28118371963500977,-0.05671548843383789
1771073488540968700,7.93996875,-10.600288391113281,-0.8322033882141113,-0.5424579381942749
1771073488550908700,7.94990869140625,-8.015037536621094,-1.7828847169876099,-1.6956753730773926
1771073488560848600,7.9598486328125,-6.03989839553833,-1.9602866172790527,-1.2808022499084473
1771073488570788600,7.96978857421875,-3.5123047828674316,-1.9889026880264282,-0.7687546610832214
1771073488580728600,7.979728515625,-0.2799224853515625,-1.9646613597869873,-0.7505890130996704
1771073488590668500,7.98966845703125,3.0482168197631836,-1.8180285692214966,-0.5598228573799133
1771073488600608500,7.9996083984375,6.090041160583496,-1.8658925294876099,-0.36927950382232666
1771073488610548500,8.009548583984374,8.757563591003418,-2.06369686126709,0.12522238492965698
1771073488620488400,8.019488525390624,9.932605743408203,-2.730314254760742,-0.10742461681365967
1771073488630428200,8.02942822265625,9.724319458007812,-3.151437759399414,-0.7924420833587646
1771073488640368000,8.0393681640625,9.144145011901855,-2.994785785675049,-1.7165825366973877
1771073488650308000,8.04930810546875,7.493581771850586,-2.570185899734497,-3.2373483180999756
1771073488660248000,8.059248046875,4.223903656005859,-1.5666601657867432,-4.545252799987793
1771073488670188000,8.06918798828125,0.9655857086181641,0.2736663818359375,-5.027144432067871
1771073488680128000,8.0791279296875,-0.5128631591796875,2.3847250938415527,-4.321286678314209
1771073488690068000,8.08906787109375,0.06217765808105469,3.48185396194458,-2.130459785461426
1771073488700008000,8.099008056640624,1.482421875,3.26122784614563,1.2190438508987427
1771073488709948000,8.108947998046874,3.0037546157836914,2.797452926635742,4.286328315734863
1771073488719888000,8.118887939453124,4.760712623596191,2.5996620655059814,6.463242053985596
1771073488729827800,8.128827880859374,6.85723876953125,2.4172379970550537,7.604874610900879
1771073488739767800,8.138767822265624,8.63273811340332,1.7813262939453125,7.511075019836426
1771073488749707500,8.14870751953125,9.238546371459961,0.6223909854888916,6.4042558670043945
1771073488759647500,8.1586474609375,8.780238151550293,-0.645404577255249,4.68490743637085
1771073488769587500,8.16858740234375,7.495096206665039,-1.5724743604660034,2.844388246536255
1771073488779527400,8.17852734375,5.920507431030273,-2.126912832260132,1.0434057712554932
1771073488789467400,8.18846728515625,4.3007049560546875,-2.3495140075683594,-0.25322192907333374
1771073488799407400,8.198407470703126,2.76735782623291,-2.337646245956421,-0.9064918756484985
1771073488809347300,8.208347412109376,1.5543365478515625,-2.2060647010803223,-1.1122487783432007
1771073488819287300,8.218287353515626,0.5228824615478516,-2.052335262298584,-0.9823240041732788
1771073488829227300,8.228227294921876,-0.43180084228515625,-1.9386677742004395,-0.6746686100959778
1771073488839167200,8.238167236328126,-1.1707935333251953,-1.8456767797470093,-0.3029825687408447
1771073488849107200,8.248107177734376,-1.8136577606201172,-1.8562322854995728,0.04326587915420532
1771073488859047200,8.258047119140626,-2.4295239448547363,-1.9835524559020996,0.26881104707717896
1771073488868987100,8.267987060546876,-3.0348777770996094,-2.1330952644348145,0.41618630290031433
1771073488878926800,8.2779267578125,-3.722705841064453,-2.248333692550659,0.4964260160923004
1771073488888866800,8.28786669921875,-4.390351295471191,-2.2450733184814453,0.5366259217262268
1771073488898806800,8.297806884765626,-5.007339000701904,-2.198308229446411,0.6196781992912292
1771073488908746800,8.307746826171876,-5.555537223815918,-2.181628942489624,0.6924450397491455
1771073488918686700,8.317686767578126,-6.0575361251831055,-2.1582915782928467,0.8545582294464111
1771073488928626700,8.327626708984376,-6.249377250671387,-2.098428964614868,1.0508235692977905
1771073488938566700,8.337566650390626,-6.079883575439453,-2.1050355434417725,1.21246337890625
1771073488948506600,8.347506591796876,-5.676384925842285,-2.1855521202087402,1.366407871246338
1771073488958446600,8.357446533203126,-5.191936016082764,-2.2909750938415527,1.5304323434829712
1771073488968386600,8.367386474609376,-4.769286632537842,-2.1015372276306152,1.6987568140029907
1771073488978326500,8.377326416015626,-4.4100751876831055,-2.1909403800964355,1.9294441938400269
1771073488988266500,8.3872666015625,-4.0864715576171875,-2.3366429805755615,2.152845621109009
1771073488998206500,8.39720654296875,-4.279735088348389,-2.315314769744873,2.2936782836914062
1771073489008146200,8.407146240234376,-4.508388042449951,-2.2327303886413574,2.4933924674987793
1771073489018086100,8.417086181640625,-4.636622428894043,-2.0539867877960205,2.7498137950897217
1771073489028026000,8.427026123046875,-4.524990558624268,-1.724766731262207,3.1426334381103516
1771073489037966000,8.436966064453125,-4.015026092529297,-1.4213446378707886,3.58740496635437
1771073489047906000,8.446906005859375,-2.9988207817077637,-1.3528472185134888,3.7094240188598633
1771073489057846000,8.456845947265625,-1.3456835746765137,-1.489844799041748,2.9696297645568848
1771073489067786000,8.466785888671875,0.4670295715332031,-1.485121250152588,1.7119934558868408
1771073489077726000,8.476725830078125,2.4732484817504883,-1.1573094129562378,1.080275297164917
1771073489087666000,8.486666015625,3.0391979217529297,-0.5394537448883057,1.6249489784240723
1771073489097606000,8.49660595703125,2.6077089309692383,0.5600941181182861,3.248459815979004
1771073489107545900,8.5065458984375,1.8037948608398438,2.2979049682617188,5.107868671417236
1771073489117485800,8.51648583984375,1.7578163146972656,4.002095699310303,6.1719841957092285
1771073489127425800,8.52642578125,3.0728025436401367,4.53582763671875,6.2213006019592285
1771073489137365500,8.536365478515625,4.57028865814209,2.904406785964966,5.725500583648682
1771073489147305500,8.546305419921875,4.359867095947266,0.21714329719543457,5.57131290435791
1771073489157245400,8.556245361328125,4.644957542419434,-1.846006155014038,5.477829933166504
1771073489167185400,8.566185302734375,5.747633934020996,-2.9432876110076904,5.0909624099731445
1771073489177125400,8.57612548828125,6.922760009765625,-3.3096072673797607,4.3328423500061035
1771073489187065300,8.5860654296875,7.97042179107666,-3.356393814086914,3.181699275970459
1771073489197005300,8.59600537109375,8.714686393737793,-3.3336739540100098,2.042506456375122
1771073489206945300,8.6059453125,8.97642993927002,-3.1828510761260986,1.3575032949447632
1771073489216885200,8.61588525390625,8.754318237304688,-2.844345808029175,1.0922940969467163
1771073489226825000,8.625824951171875,8.016304969787598,-2.18850040435791,1.0559529066085815
1771073489236765000,8.635764892578125,6.779321670532227,-1.3339879512786865,1.1287226676940918
1771073489246705000,8.645704833984375,5.219609260559082,-0.40794670581817627,1.0138452053070068
1771073489256644600,8.65564453125,3.403017997741699,0.16368865966796875,0.7965379357337952
1771073489266584600,8.66558447265625,1.5460205078125,0.27714061737060547,0.4270841181278229
1771073489276524500,8.675524658203125,-0.034760475158691406,0.0848236083984375,0.05390491336584091
1771073489286464500,8.685464599609375,-1.1374397277832031,-0.24042987823486328,-0.3847677707672119
1771073489296404200,8.695404296875,-2.132998466491699,-0.5537173748016357,-0.6087721586227417
1771073489306344200,8.70534423828125,-3.178802013397217,-0.8256740570068359,-0.6776019334793091
1771073489316284200,8.7152841796875,-4.417684078216553,-1.0524531602859497,-0.7165408730506897
1771073489326224000,8.725223876953125,-5.997550010681152,-1.1823433637619019,-0.6274982690811157
1771073489336163800,8.735163818359375,-7.749676704406738,-1.1182100772857666,-0.3799031376838684
1771073489346103800,8.745103759765625,-9.211213111877441,-0.8149451017379761,-0.1580069661140442
1771073489356043800,8.755043701171875,-10.03124713897705,-0.41797566413879395,-0.03070329874753952
1771073489365983500,8.7649833984375,-9.945167541503906,-0.2894861698150635,-0.0944439098238945
1771073489375923500,8.77492333984375,-8.562824249267578,-0.4731028079986572,-0.07219061255455017
1771073489385863400,8.784863525390625,-6.449926853179932,-0.38915586471557617,0.5518333911895752
1771073489395803400,8.794803466796875,-3.8490233421325684,-0.11543130874633789,1.5127077102661133
1771073489405743000,8.8047431640625,-1.4092473983764648,-0.16690540313720703,2.118053436279297
1771073489415683000,8.81468310546875,0.3349189758300781,-0.8504952192306519,2.1569480895996094
1771073489425623000,8.824623046875,1.1049089431762695,-1.820707082748413,1.9613080024719238
1771073489435562800,8.834562744140625,1.0753955841064453,-2.557859420776367,1.703167200088501
1771073489445502700,8.844502685546875,0.3689136505126953,-2.9113922119140625,1.0504937171936035
1771073489455442700,8.854442626953125,-0.39408302307128906,-2.897695541381836,0.3141039311885834
1771073489465382700,8.864382568359375,-1.1135969161987305,-2.735354423522949,-0.2525928020477295
1771073489475322400,8.874322265625,-1.571354866027832,-2.4868364334106445,-1.0318455696105957
1771073489485262300,8.884262451171875,-1.376540184020996,-2.0339038372039795,-1.9705438613891602
1771073489495202300,8.894202392578125,-0.22455120086669922,-1.5737817287445068,-3.195201873779297
1771073489505142000,8.90414208984375,1.0966777801513672,-1.3323267698287964,-4.437912940979004
1771073489515082000,8.91408203125,1.4044866561889648,-0.9901515245437622,-4.730916500091553
1771073489525022000,8.92402197265625,1.4159736633300781,-0.30050551891326904,-3.760087013244629
1771073489534962000,8.9339619140625,2.4387378692626953,0.793853759765625,-1.774338960647583
1771073489544901600,8.943901611328124,4.073594093322754,1.5425825119018555,0.6183840036392212
1771073489554841600,8.953841552734374,5.610679626464844,1.2683706283569336,2.5353498458862305
1771073489564781600,8.963781494140624,5.796067237854004,0.33805346488952637,3.9665329456329346
1771073489574721300,8.97372119140625,4.972241401672363,-0.5537011623382568,4.8210930824279785
1771073489584661200,8.9836611328125,4.5265703201293945,-0.9235806465148926,5.012922763824463
1771073489594601200,8.993601318359374,4.807578086853027,-0.922029972076416,4.5422587394714355
1771073489604541200,9.003541259765624,5.21830940246582,-1.0104825496673584,3.6620585918426514
1771073489614481200,9.013481201171874,5.369594573974609,-1.3220072984695435,2.8307478427886963
1771073489624421000,9.023421142578124,5.3019208908081055,-1.822662591934204,1.9717485904693604
1771073489634361000,9.033361083984374,5.121295928955078,-2.24543833732605,1.1451520919799805
1771073489644300800,9.04330078125,4.706716537475586,-2.4397106170654297,0.3539852499961853
1771073489654240800,9.05324072265625,3.881892204284668,-2.3972203731536865,-0.3392435908317566
1771073489664180700,9.0631806640625,2.78057861328125,-2.2129738330841064,-0.7367685437202454
1771073489674120700,9.07312060546875,1.635030746459961,-1.8408031463623047,-0.8253646492958069
1771073489684060700,9.083060791015624,0.8291454315185547,-1.3874335289001465,-0.6489467024803162
1771073489694000600,9.093000732421874,0.16552734375,-0.9491384029388428,-0.23435258865356445
1771073489703940600,9.102940673828124,-0.3543672561645508,-0.6288838386535645,0.2821410894393921
1771073489713880600,9.112880615234374,-0.6141471862792969,-0.49430596828460693,0.696056604385376
1771073489723820500,9.122820556640624,-0.7599143981933594,-0.5293364524841309,1.0043236017227173
1771073489733760500,9.132760498046874,-0.9706964492797852,-0.6784796714782715,1.1032309532165527
1771073489743700500,9.142700439453124,-1.2626628875732422,-0.8580421209335327,0.9739611148834229
1771073489753640400,9.152640380859374,-1.6664400100708008,-1.005112648010254,0.7973475456237793
1771073489763580400,9.162580322265624,-2.2079033851623535,-1.1995127201080322,0.6739410161972046
1771073489773520100,9.17252001953125,-2.865345001220703,-1.3760290145874023,0.7783764600753784
1771073489783460000,9.182460205078126,-3.655661106109619,-1.548834204673767,1.0734888315200806
1771073489793400000,9.192400146484376,-4.436200141906738,-1.6958402395248413,1.4359571933746338
1771073489803340000,9.202340087890626,-4.7326531410217285,-1.740190029144287,1.8178291320800781
1771073489813280000,9.212280029296876,-4.5846991539001465,-1.6558226346969604,2.1465578079223633
1771073489823220000,9.222219970703126,-4.277017116546631,-1.6312751770019531,2.2745795249938965
1771073489833160000,9.232159912109376,-4.1287922859191895,-1.6027616262435913,2.1853818893432617
1771073489843100000,9.242099853515626,-4.155471324920654,-1.8521873950958252,2.697871685028076
1771073489853039900,9.252039794921876,-4.485289573669434,-1.8277833461761475,2.851278781890869
1771073489862979800,9.261979736328126,-4.580691814422607,-1.3857499361038208,2.9711520671844482
1771073489872919800,9.271919921875,-4.78689432144165,-0.6364295482635498,3.191132068634033
1771073489882859800,9.28185986328125,-5.134768962860107,0.3121830224990845,3.4384453296661377
1771073489892799700,9.2917998046875,-5.157146453857422,0.9358919858932495,3.668262004852295
1771073489902739500,9.301739501953126,-3.9939379692077637,1.2929166555404663,3.3656046390533447
1771073489912679400,9.311679443359376,-0.544987678527832,1.6588996648788452,2.9269800186157227
1771073489922619400,9.321619384765626,3.6835670471191406,1.722872018814087,3.218778610229492
1771073489932559400,9.331559326171876,7.691710472106934,1.4927960634231567,4.63349723815918
1771073489942499300,9.341499267578126,10.660137176513672,0.5961506366729736,6.186911582946777
1771073489952439300,9.351439208984376,12.39351749420166,-1.2120786905288696,7.0925397872924805
1771073489962379300,9.361379150390626,12.710622787475586,-3.191258430480957,7.0724663734436035
1771073489972319200,9.3713193359375,11.783622741699219,-4.56329345703125,6.234143257141113
1771073489982259200,9.38125927734375,9.623685836791992,-5.401780128479004,5.096249103546143
1771073489992199200,9.39119921875,7.094440460205078,-5.844606399536133,4.0557637214660645
1771073490002139100,9.40113916015625,4.932657241821289,-5.991456985473633,3.2259602546691895
1771073490012079000,9.4110791015625,3.3661441802978516,-5.466145992279053,3.19779109954834
1771073490022019000,9.42101904296875,2.1876049041748047,-4.345162868499756,3.9897942543029785
1771073490031958800,9.430958740234376,0.9987373352050781,-3.356922149658203,4.769779682159424
1771073490041898800,9.440898681640626,0.004586219787597656,-2.5845892429351807,4.946350574493408
1771073490051838700,9.450838623046875,-0.6301298141479492,-1.7261714935302734,4.735718250274658
1771073490061778700,9.46077880859375,-1.0834226608276367,-0.8406530618667603,4.402055263519287
1771073490071718700,9.47071875,-1.4007158279418945,-0.15222668647766113,3.824070930480957
1771073490081658600,9.48065869140625,-1.4141521453857422,0.21884489059448242,3.265994071960449
1771073490091598600,9.4905986328125,-1.5525436401367188,-0.007391452789306641,2.791884422302246
1771073490101538600,9.50053857421875,-1.6657342910766602,-0.6180963516235352,2.455944061279297
1771073490111478500,9.510478515625,-1.1939735412597656,-1.0777090787887573,2.1959736347198486
1771073490121418500,9.52041845703125,-0.22780513763427734,-1.332393765449524,1.900192141532898
1771073490131358500,9.5303583984375,0.39849281311035156,-1.5510270595550537,1.531683087348938
1771073490141298400,9.54029833984375,0.23786354064941406,-1.6507608890533447,1.1138668060302734
1771073490151238100,9.550238037109375,-0.7545881271362305,-1.5732876062393188,0.7070453763008118
1771073490161178000,9.56017822265625,-2.1333866119384766,-1.3643498420715332,0.5738767981529236
1771073490171118000,9.5701181640625,-3.7580227851867676,-1.1716077327728271,0.8695125579833984
1771073490181058000,9.58005810546875,-5.443597316741943,-1.193281650543213,1.4244767427444458
1771073490190998000,9.589998046875,-6.718057632446289,-1.4694199562072754,2.071072578430176
1771073490200938000,9.59993798828125,-7.456911563873291,-1.832322359085083,2.8581323623657227
1771073490210878000,9.6098779296875,-8.25395393371582,-2.2595102787017822,3.4522838592529297
1771073490220818000,9.61981787109375,-9.12057876586914,-2.5034971237182617,3.6749427318573
1771073490230757600,9.629757568359375,-9.821139335632324,-2.5343716144561768,3.6850340366363525
1771073490240697600,9.639697509765625,-10.472766876220703,-2.447580337524414,3.26702880859375
1771073490250637600,9.649637451171875,-10.211679458618164,-2.3678841590881348,2.213076114654541
1771073490260577500,9.65957763671875,-7.878376007080078,-2.4903440475463867,0.7224591970443726
1771073490270517200,9.669517333984375,-3.878265380859375,-2.6644363403320312,-0.4108658730983734
1771073490280457200,9.679457275390625,1.1435546875,-2.6344852447509766,-0.7674981355667114
1771073490290397200,9.689397216796875,5.587872505187988,-2.453702449798584,-0.8561644554138184
1771073490300337000,9.6993369140625,7.61857795715332,-2.8444690704345703,-1.0253063440322876
1771073490310276900,9.70927685546875,8.286450386047363,-2.92228364944458,-1.3229297399520874
1771073490320216800,9.719216796875,7.690752029418945,-2.3241050243377686,-1.9996464252471924
1771073490330156800,9.72915673828125,6.705509185791016,-0.9879477024078369,-2.5991694927215576
1771073490340096500,9.739096435546875,5.7542877197265625,0.5141439437866211,-2.6618735790252686
1771073490350036500,9.749036376953125,5.234086036682129,2.140166759490967,-2.382833957672119
1771073490359976400,9.7589765625,3.8029870986938477,3.3773674964904785,-2.4762015342712402
1771073490369916400,9.76891650390625,0.8779439926147461,3.8380026817321777,-3.8443286418914795
1771073490379856100,9.778856201171875,-1.5427794456481934,4.026514053344727,-5.795158863067627
1771073490389796000,9.788796142578125,-1.700711727142334,3.960529327392578,-6.990470886230469
1771073490399736000,9.798736083984375,0.24149608612060547,3.159454822540283,-6.430254936218262
1771073490409675800,9.80867578125,2.929037094116211,1.9619710445404053,-4.196081161499023
1771073490419615700,9.81861572265625,5.035245895385742,0.7879877090454102,-1.815945029258728
1771073490429555700,9.8285556640625,6.707776069641113,-0.2907750606536865,0.1839984953403473
1771073490439495700,9.83849560546875,8.780204772949219,-0.8289833068847656,2.238703727722168
1771073490449435400,9.848435302734375,10.287779808044434,-1.1401926279067993,3.9161622524261475
1771073490459375400,9.858375244140625,10.984877586364746,-1.4482710361480713,4.272481918334961
1771073490469315300,9.8683154296875,10.577803611755371,-1.6523704528808594,3.3615033626556396
1771073490479255000,9.878255126953125,8.746270179748535,-1.4566054344177246,2.0437140464782715
1771073490489195000,9.888195068359375,6.430006980895996,-1.097476601600647,1.0037336349487305
1771073490499135000,9.898135009765625,3.712453842163086,-1.0495797395706177,0.3071258068084717
1771073490509075000,9.908074951171875,0.9915933609008789,-1.1813938617706299,-0.33703774213790894
1771073490519014700,9.9180146484375,-1.4267768859863281,-1.1185663938522339,-0.6128661632537842
1771073490528954600,9.92795458984375,-3.123166561126709,-0.8393813371658325,-0.5071408152580261
1771073490538894600,9.93789453125,-4.1106672286987305,-0.432342529296875,0.010894343256950378
1771073490548834300,9.947834228515624,-4.1121602058410645,-0.12066364288330078,0.8212944865226746
1771073490558774300,9.957774169921874,-3.580171585083008,-0.11618661880493164,1.7559595108032227
1771073490568714200,9.96771435546875,-2.9678540229797363,-0.29558491706848145,2.5726470947265625
1771073490578654200,9.977654296875,-2.5816564559936523,-0.4736819267272949,3.040815591812134
1771073490588594000,9.987593994140624,-2.6228504180908203,-0.5685213804244995,3.2321853637695312
1771073490598534000,9.997533935546874,-2.8243865966796875,-0.6071007251739502,3.243473768234253
1771073490608473900,10.007473876953124,-3.282864570617676,-0.6353486776351929,3.152656316757202
1771073490618413600,10.01741357421875,-4.281657695770264,-0.569774866104126,3.2024426460266113
1771073490628353500,10.027353515625,-5.497946739196777,-0.4667562246322632,3.3647890090942383
1771073490638293500,10.03729345703125,-6.522561073303223,-0.33551275730133057,3.443354845046997
1771073490648233500,10.0472333984375,-6.565162181854248,-0.06745851039886475,3.559866428375244
1771073490658173400,10.05717333984375,-5.752354621887207,0.06962907314300537,3.589486598968506
1771073490668113400,10.067113525390624,-4.402640342712402,-0.20448434352874756,3.367661952972412
1771073490678053400,10.077053466796874,-2.1426548957824707,-0.7106636166572571,3.4233226776123047
1771073490687993300,10.086993408203124,-0.3861055374145508,-1.3353782892227173,3.640810251235962
1771073490697933300,10.096933349609374,0.8575000762939453,-1.9535911083221436,3.631488800048828
1771073490707873300,10.106873291015624,1.8134841918945312,-2.4935925006866455,3.185209274291992
1771073490717813000,10.11681298828125,3.3371191024780273,-2.771955728530884,1.9964088201522827
1771073490727753000,10.1267529296875,4.403521537780762,-2.662515878677368,0.8541468381881714
1771073490737693000,10.13669287109375,4.594944953918457,-2.215924024581909,0.4029867649078369
1771073490747633000,10.1466328125,4.205065727233887,-0.9849448204040527,1.4630627632141113
1771073490757572900,10.15657275390625,3.550708770751953,0.5231730937957764,3.1205687522888184
1771073490767512800,10.166512939453124,3.032360076904297,1.6590632200241089,4.421232223510742
1771073490777452800,10.176452880859374,3.211271286010742,2.201350212097168,5.129425048828125
1771073490787392800,10.186392822265624,3.6000423431396484,1.6941430568695068,5.070333480834961
1771073490797332700,10.196332763671874,3.444314956665039,0.7245891094207764,5.009438514709473
1771073490807272700,10.206272705078124,3.8741931915283203,0.008703231811523438,5.261332035064697
1771073490817212700,10.216212646484376,5.226742744445801,-0.4163327217102051,5.692605018615723
1771073490827152600,10.226152587890626,6.650712966918945,-0.6493016481399536,6.2819342613220215
1771073490837092600,10.236092529296876,7.306643486022949,-0.9423019886016846,6.528664588928223
1771073490847032300,10.2460322265625,7.3931379318237305,-1.1743292808532715,6.3789448738098145
1771073490856972300,10.25597216796875,6.6997833251953125,-1.2879844903945923,5.544687747955322
1771073490866912300,10.265912353515626,5.257549285888672,-1.1476671695709229,3.942964553833008
1771073490876852200,10.275852294921876,3.6052026748657227,-0.9846564531326294,2.161163330078125
1771073490886792200,10.285792236328126,2.0770177841186523,-0.9354459047317505,0.5316705107688904
1771073490896732200,10.295732177734376,0.7846288681030273,-0.9543415307998657,-1.0466357469558716
1771073490906672000,10.305672119140626,-0.2675628662109375,-1.0863608121871948,-2.3856639862060547
1771073490916612000,10.315612060546876,-1.242081642150879,-1.3110520839691162,-3.3819265365600586
1771073490926552000,10.325552001953126,-2.2341270446777344,-1.6464897394180298,-4.080545902252197
1771073490936492000,10.335491943359376,-3.166602611541748,-1.9130096435546875,-4.475747108459473
1771073490946432000,10.345431884765626,-3.744932174682617,-1.9389742612838745,-4.435944557189941
1771073490956372000,10.3553720703125,-4.367673397064209,-1.729715347290039,-3.9866466522216797
1771073490966312000,10.36531201171875,-5.074578285217285,-1.3096957206726074,-3.2963271141052246
1771073490976251600,10.375251708984376,-5.712643146514893,-0.7441529035568237,-2.48417329788208
1771073490986191600,10.385191650390626,-6.002851486206055,-0.14996182918548584,-1.6335951089859009
1771073490996131600,10.395131591796876,-6.005912780761719,0.16473126411437988,-0.9302735328674316
1771073491006071600,10.405071533203126,-6.014247894287109,0.08391618728637695,-0.507793128490448
1771073491016011500,10.415011474609376,-6.279174327850342,-0.36505770683288574,-0.3081004321575165
1771073491025951500,10.424951416015626,-6.681292533874512,-0.8969175815582275,-0.21503028273582458
1771073491035891500,10.434891357421876,-7.371894836425781,-1.269806981086731,-0.13625892996788025
1771073491045831400,10.44483154296875,-7.862576484680176,-1.4585583209991455,-0.07406419515609741
1771073491055771400,10.454771484375,-7.561124801635742,-1.539802074432373,-0.15239068865776062
1771073491065711400,10.46471142578125,-6.191013813018799,-1.4932254552841187,-0.4184534549713135
1771073491075651300,10.4746513671875,-3.973473072052002,-1.4923242330551147,-0.933985710144043
1771073491085591300,10.48459130859375,-0.7618217468261719,-1.8815863132476807,-1.7232565879821777
1771073491095531000,10.494531005859375,2.598033905029297,-2.388270854949951,-2.1301894187927246
1771073491105471000,10.504470947265625,5.110979080200195,-2.8404884338378906,-2.0733702182769775
1771073491115411000,10.514410888671875,6.582910537719727,-2.961348295211792,-2.1764750480651855
1771073491125351000,10.524350830078125,7.693840980529785,-2.15039324760437,-2.9792399406433105
1771073491135291000,10.534290771484375,7.250547409057617,-0.9637219309806824,-4.45143985748291
1771073491145230800,10.54423095703125,4.560091972351074,0.012348651885986328,-5.91336727142334
1771073491155170800,10.5541708984375,0.53570556640625,0.8025493621826172,-6.759832859039307
1771073491165110800,10.56411083984375,-2.583935260772705,1.719374179840088,-7.623826026916504
1771073491175050800,10.57405078125,-3.6513619422912598,2.636671543121338,-7.458086013793945
1771073491184990700,10.58399072265625,-3.129810333251953,2.912466049194336,-4.810251712799072
1771073491194930700,10.5939306640625,-1.7771801948547363,2.6213362216949463,-0.7510255575180054
1771073491204870400,10.603870361328125,0.5346708297729492,2.517671585083008,2.854288339614868
1771073491214810400,10.613810302734375,3.2934885025024414,2.5331757068634033,5.116559028625488
1771073491224750300,10.623750244140625,6.192266464233398,2.1154916286468506,5.9516496658325195
1771073491234690300,10.633690185546875,8.638835906982422,1.1773171424865723,5.221664905548096
1771073491244630000,10.643630126953125,8.924872398376465,-0.16191911697387695,2.7433524131774902
1771073491254570000,10.653570068359375,7.603117942810059,-1.4980772733688354,-0.1600308120250702
1771073491264510000,10.663510009765625,6.251100540161133,-2.588909387588501,-2.873384952545166
1771073491274449700,10.67344970703125,5.253656387329102,-3.3151159286499023,-4.817588806152344
1771073491284389600,10.6833896484375,4.053714752197266,-3.6138057708740234,-5.604214191436768
1771073491294329600,10.69332958984375,2.612691879272461,-3.445193290710449,-5.103224754333496
1771073491304269600,10.70326953125,1.4361143112182617,-2.938570022583008,-3.6757090091705322
1771073491314209300,10.713209228515625,0.6563444137573242,-2.4478795528411865,-2.0086374282836914
1771073491324149200,10.723149169921875,0.2273244857788086,-2.0857346057891846,-0.6384403705596924
1771073491334089200,10.733089111328125,-0.015468597412109375,-1.8006601333618164,0.46474358439445496
1771073491344029000,10.74302880859375,-0.5132598876953125,-1.510624647140503,1.4718960523605347
1771073491353969000,10.752968994140625,-1.314814567565918,-1.2496588230133057,2.3375885486602783
1771073491363908900,10.762908935546875,-2.627033233642578,-1.0491254329681396,3.003880500793457
1771073491373848800,10.772848876953125,-4.17737340927124,-0.8066986799240112,3.269219398498535
1771073491383788500,10.78278857421875,-5.417535305023193,-0.4389246702194214,3.247493028640747
1771073491393728500,10.792728515625,-6.366483688354492,-0.18226587772369385,3.031818389892578
1771073491403668500,10.80266845703125,-7.157622814178467,0.00809621810913086,2.533501625061035
1771073491413608400,10.8126083984375,-7.400522232055664,-0.0929267406463623,2.2064316272735596
1771073491423548200,10.822548095703125,-7.641427040100098,-0.2368718385696411,1.604155421257019
1771073491433488100,10.832488037109375,-7.372237205505371,-0.4783743619918823,1.0509716272354126
1771073491443428000,10.842427978515625,-6.806306838989258,-0.6872483491897583,1.1785471439361572
1771073491453367800,10.852367919921875,-6.046090126037598,-0.8752502202987671,1.6807353496551514
1771073491463307800,10.862307861328125,-4.723158359527588,-0.7936686277389526,2.3292956352233887
1771073491473247700,10.872247802734375,-2.8324623107910156,-0.4668532609939575,3.1795742511749268
1771073491483187700,10.882187744140625,-0.7597188949584961,-0.21477758884429932,4.059077262878418
1771073491493127400,10.89212744140625,0.37874317169189453,-0.28169000148773193,4.694573402404785
1771073491503067400,10.9020673828125,1.3905696868896484,-0.7488762140274048,4.705624580383301
1771073491513007400,10.91200732421875,2.542168617248535,-1.3914899826049805,3.8980727195739746
1771073491522947000,10.921947021484375,3.065643310546875,-2.002310276031494,2.0877573490142822
1771073491532887000,10.931886962890625,2.0472373962402344,-2.464608669281006,0.3864106833934784
1771073491542827000,10.941826904296875,-0.4996776580810547,-2.522881031036377,-0.3574685752391815
1771073491552767000,10.95176708984375,-3.525545597076416,-1.7915425300598145,0.052783116698265076
1771073491562706700,10.961706787109375,-5.8751115798950195,0.3226919174194336,1.680789828300476
1771073491572646700,10.971646728515625,-5.398502826690674,3.694683790206909,3.905306816101074
1771073491582586600,10.981586669921874,-0.5784940719604492,5.884871482849121,4.641164302825928
1771073491592526300,10.9915263671875,4.84999942779541,5.192939758300781,4.381216049194336
1771073491602466300,11.00146630859375,7.3591108322143555,2.2698044776916504,4.319070339202881
1771073491612406300,11.01140625,7.604888916015625,-1.1348398923873901,3.724928140640259
1771073491622346200,11.02134619140625,7.041665077209473,-3.819394588470459,2.0588741302490234
1771073491632286000,11.031285888671874,6.6515045166015625,-4.820828437805176,0.04155588150024414
1771073491642226000,11.041225830078124,6.164247512817383,-4.345904350280762,-1.8286402225494385
1771073491652166000,11.051165771484374,5.760631561279297,-3.2411632537841797,-2.874450206756592
1771073491662105900,11.06110595703125,5.518077850341797,-2.3375303745269775,-3.288092613220215
1771073491672045800,11.0710458984375,5.210325241088867,-1.8991221189498901,-3.3806064128875732
1771073491681985800,11.08098583984375,4.797341346740723,-1.7118061780929565,-3.1802258491516113
1771073491691925800,11.09092578125,4.451541900634766,-1.4901080131530762,-2.9230852127075195
1771073491701865700,11.10086572265625,4.414228439331055,-1.0318212509155273,-2.536496162414551
1771073491711805400,11.110805419921874,4.92375373840332,-0.35485804080963135,-1.9771406650543213
1771073491721745400,11.120745361328124,5.2913713455200195,0.15097546577453613,-1.3033111095428467
1771073491731685400,11.130685302734374,5.486753463745117,0.30309605598449707,-0.6700779795646667
1771073491741625300,11.140625244140624,4.672364234924316,0.30642175674438477,-0.09291565418243408
1771073491751565300,11.1505654296875,2.7864112854003906,0.35681402683258057,0.30419793725013733
1771073491761505300,11.16050537109375,0.208953857421875,0.5213277339935303,0.51202392578125
1771073491771445200,11.1704453125,-2.6527457237243652,0.8338929414749146,0.5785029530525208
1771073491781385200,11.18038525390625,-5.452847003936768,1.3290178775787354,0.6112691164016724
1771073491791325200,11.1903251953125,-7.3788347244262695,1.9223796129226685,0.7142406702041626
1771073491801265200,11.20026513671875,-8.563539505004883,2.316303014755249,0.6069462895393372
1771073491811205000,11.210205078125,-9.15107536315918,2.318830728530884,0.3714537024497986
1771073491821145000,11.22014501953125,-8.921536445617676,1.9474477767944336,0.024475477635860443
1771073491831085000,11.2300849609375,-7.501919746398926,1.2518399953842163,-0.4664144515991211
1771073491841024800,11.240024658203126,-5.703396320343018,0.5234942436218262,-0.6264702081680298
1771073491850964700,11.24996484375,-4.103189945220947,-0.03696274757385254,-0.6712721586227417
1771073491860904700,11.25990478515625,-1.9776639938354492,-0.6257959604263306,-1.1711957454681396
1771073491870844700,11.2698447265625,-0.5415401458740234,-1.2552967071533203,-1.5358105897903442
1771073491880784600,11.27978466796875,0.0007562637329101562,-1.8816847801208496,-1.7653779983520508
1771073491890724600,11.289724609375,-0.15927600860595703,-2.27162504196167,-1.9983937740325928
1771073491900664600,11.29966455078125,-0.43979644775390625,-2.1447463035583496,-2.378028392791748
1771073491910604500,11.3096044921875,-0.21742630004882812,-1.7846753597259521,-3.04685378074646
1771073491920544500,11.31954443359375,-0.4011697769165039,-1.2903201580047607,-3.9426820278167725
1771073491930484500,11.329484375,-0.3793516159057617,-0.6482394933700562,-5.116563320159912
1771073491940424400,11.339424560546876,-0.13886165618896484,0.04905271530151367,-6.23701286315918
1771073491950364400,11.349364501953126,-0.2588310241699219,0.7175302505493164,-6.6328535079956055
1771073491960304400,11.359304443359376,-0.7189006805419922,1.4547057151794434,-6.103415012359619
1771073491970244000,11.369244140625,-0.7602434158325195,2.0883560180664062,-5.030818462371826
1771073491980184000,11.37918408203125,0.15490245819091797,2.35188364982605,-3.72402024269104
1771073491990124000,11.3891240234375,1.0059070587158203,2.2243711948394775,-2.0468332767486572
1771073492000064000,11.39906396484375,0.8134946823120117,2.076742172241211,-0.3930326998233795
1771073492010004000,11.40900390625,0.736846923828125,2.1371827125549316,0.7542521357536316
1771073492019944000,11.41894384765625,1.5550765991210938,2.277714490890503,1.1425758600234985
1771073492029884000,11.4288837890625,2.88643741607666,2.2528462409973145,0.8185809850692749
1771073492039824000,11.438823974609376,3.7163877487182617,1.7635231018066406,-0.05312305688858032
1771073492049763800,11.448763916015626,4.101446151733398,0.988032341003418,-1.0172791481018066
1771073492059703800,11.458703857421876,4.635664939880371,0.23447322845458984,-1.8511147499084473
1771073492069643800,11.468643798828126,5.049116134643555,-0.4293234348297119,-2.522470712661743
1771073492079583700,11.478583740234376,4.952486038208008,-1.0396567583084106,-3.082754373550415
1771073492089523500,11.4885234375,4.1240234375,-1.5355098247528076,-3.424042224884033
1771073492099463400,11.49846337890625,2.687854766845703,-1.8741517066955566,-3.5147266387939453
1771073492109403400,11.5084033203125,1.2539644241333008,-1.9783885478973389,-3.310040235519409
1771073492119343400,11.51834326171875,0.29204654693603516,-2.0117790699005127,-3.0810184478759766
1771073492129283300,11.528283447265625,-0.27340126037597656,-2.117968797683716,-2.879814863204956
1771073492139223300,11.538223388671875,-0.7129831314086914,-2.258633852005005,-2.5918025970458984
1771073492149163300,11.548163330078125,-1.2392349243164062,-2.3097543716430664,-2.1688642501831055
1771073492159103200,11.558103271484375,-1.8280792236328125,-2.2578232288360596,-1.6772531270980835
1771073492169043200,11.568043212890625,-2.515371322631836,-2.205186605453491,-1.0425385236740112
1771073492178983000,11.57798291015625,-3.2369542121887207,-2.1200737953186035,-0.3852041959762573
1771073492188923000,11.5879228515625,-3.8622055053710938,-1.964586615562439,0.2586420774459839
1771073492198862800,11.59786279296875,-4.28014612197876,-1.8912938833236694,0.7783594131469727
1771073492208802800,11.607802734375,-4.544755935668945,-1.8433059453964233,1.1425405740737915
1771073492218742500,11.617742431640625,-4.575931549072266,-1.8773455619812012,1.1964938640594482
1771073492228682500,11.6276826171875,-4.262109756469727,-2.055814743041992,0.9168063402175903
1771073492238622500,11.63762255859375,-3.9569764137268066,-2.241611957550049,0.6438068151473999
1771073492248562200,11.647562255859375,-3.9486632347106934,-2.355656623840332,0.6525644063949585
1771073492258502100,11.657502197265625,-4.178610801696777,-2.246448516845703,1.1339945793151855
1771073492268442000,11.667442138671875,-4.034751892089844,-1.891266107559204,1.9096426963806152
1771073492278382000,11.677382080078125,-3.5489625930786133,-1.5044018030166626,2.7323100566864014
1771073492288321800,11.68732177734375,-2.683474540710449,-1.234462022781372,3.394899845123291
1771073492298261800,11.69726171875,-1.1549663543701172,-0.9681379795074463,3.7581286430358887
1771073492308201700,11.70720166015625,0.7623987197875977,-0.5998892784118652,3.5563454627990723
1771073492318141400,11.717141357421875,2.18878173828125,-0.3140193223953247,2.6391773223876953
1771073492328081400,11.727081298828125,2.128117561340332,-0.3091832399368286,1.5380500555038452
1771073492338021400,11.737021484375,0.5429706573486328,-0.3567253351211548,0.6446807384490967
1771073492347961300,11.74696142578125,-1.2844018936157227,0.1397465467453003,0.5201852321624756
1771073492357901000,11.756901123046875,-2.513679027557373,1.7807750701904297,1.227118968963623
1771073492367841000,11.766841064453125,-1.932948112487793,3.817864418029785,1.8819563388824463
1771073492377781000,11.776781005859375,0.7422323226928711,4.974305629730225,1.943403720855713
1771073492387720700,11.786720703125,3.5574045181274414,4.455209732055664,1.6078070402145386
1771073492397660700,11.79666064453125,5.379061698913574,2.7039666175842285,1.7173595428466797
1771073492407600600,11.8066005859375,6.428280830383301,0.6462150812149048,1.745193600654602
1771073492417540600,11.81654052734375,7.309429168701172,-0.9038574695587158,1.643870234489441
1771073492427480300,11.826480224609375,8.251455307006836,-1.630641222000122,1.3551639318466187
1771073492437420300,11.836420166015625,8.56561279296875,-1.6987223625183105,0.8214879035949707
1771073492447360300,11.8463603515625,8.359344482421875,-1.446983814239502,-0.15454721450805664
1771073492457300000,11.856300048828125,7.492086410522461,-1.3371763229370117,-1.4539639949798584
1771073492467240000,11.866239990234375,6.071300506591797,-1.3667179346084595,-2.522408962249756
1771073492477180000,11.876179931640625,4.558507919311523,-1.3117008209228516,-3.0703272819519043
1771073492487120000,11.886119873046875,3.6945343017578125,-1.2225099802017212,-3.1910831928253174
1771073492497059600,11.8960595703125,3.2143936157226562,-1.0753014087677002,-2.808079719543457
1771073492506999600,11.90599951171875,2.424344062805176,-1.0143506526947021,-2.1047120094299316
1771073492516939500,11.915939453125,1.4517993927001953,-0.9482061862945557,-1.4506028890609741
1771073492526879500,11.92587939453125,0.35366249084472656,-0.8989551663398743,-0.99085932970047
1771073492536819200,11.935819091796875,-1.0613679885864258,-0.8997219204902649,-0.7314181327819824
1771073492546759200,11.94575927734375,-2.7532734870910645,-0.8135004043579102,-0.6366459131240845
1771073492556699100,11.95569921875,-4.264556884765625,-0.6331292390823364,-0.613804817199707
1771073492566638800,11.965638916015624,-5.6269683837890625,-0.3124271631240845,-0.45426130294799805
1771073492576578800,11.975578857421874,-6.833806991577148,0.08204531669616699,-0.24934327602386475
1771073492586518800,11.985518798828124,-7.802176475524902,0.3988867998123169,-0.19561421871185303
1771073492596458800,11.995458740234374,-8.371417045593262,0.6679680347442627,-0.26435554027557373
1771073492606398500,12.0053984375,-8.326641082763672,0.9010699987411499,-0.37596333026885986
1771073492616338400,12.01533837890625,-7.493894577026367,0.871487021446228,-0.6228716969490051
1771073492626278400,12.0252783203125,-6.345693588256836,0.360251784324646,-1.14936101436615
1771073492636218000,12.035218017578124,-5.112551212310791,-0.26340770721435547,-1.5512382984161377
1771073492646158000,12.045157958984374,-3.8022212982177734,-0.8053070902824402,-1.8215371370315552
1771073492656098000,12.05509814453125,-3.1340460777282715,-1.251280665397644,-2.0152134895324707
1771073492666038000,12.0650380859375,-3.047010898590088,-1.5693763494491577,-2.1887974739074707
1771073492675978000,12.07497802734375,-3.1705403327941895,-1.699192762374878,-2.403616428375244
1771073492685918000,12.08491796875,-3.253141403198242,-1.6775460243225098,-2.717968463897705
1771073492695858000,12.09485791015625,-3.1494078636169434,-1.589920997619629,-3.1446337699890137
1771073492705798000,12.1047978515625,-2.3610310554504395,-1.452564001083374,-3.554762601852417
1771073492715737900,12.11473779296875,-0.723231315612793,-1.0827693939208984,-3.8712332248687744
1771073492725677800,12.124677734375,0.2828664779663086,-0.527121365070343,-4.28605842590332
1771073492735617800,12.13461767578125,0.9699068069458008,-0.30209052562713623,-5.308953762054443
1771073492745557800,12.144557861328124,1.4113168716430664,0.12575888633728027,-5.953061103820801
1771073492755497500,12.15449755859375,1.6172466278076172,0.9281003475189209,-5.935805797576904
1771073492765437400,12.1644375,1.9954051971435547,2.0096683502197266,-5.0065107345581055
1771073492775377400,12.17437744140625,2.746664047241211,3.0762128829956055,-3.204096794128418
1771073492785317400,12.1843173828125,3.8132705688476562,3.252941608428955,-1.4138774871826172
1771073492795257300,12.19425732421875,4.5572404861450195,2.5215506553649902,-0.023556172847747803
1771073492805197300,12.204197265625,4.839399337768555,1.5508971214294434,0.710809588432312
1771073492815137300,12.21413720703125,4.941679954528809,1.0291951894760132,1.0613011121749878
1771073492825077200,12.2240771484375,5.360764503479004,0.9196128845214844,0.9046553373336792
1771073492835017200,12.234017333984376,6.135668754577637,0.8941663503646851,0.171331524848938
1771073492844957200,12.243957275390626,6.852043151855469,0.665818452835083,-0.7006038427352905
1771073492854897200,12.253897216796876,7.317378997802734,0.010462641716003418,-1.6605840921401978
1771073492864837000,12.263837158203126,7.538076400756836,-0.8849396705627441,-2.531846284866333
1771073492874777000,12.273777099609376,7.2958526611328125,-1.7267494201660156,-3.257666826248169
1771073492884716800,12.283716796875,6.526315689086914,-2.305225372314453,-3.8590948581695557
1771073492894656800,12.29365673828125,5.364215850830078,-2.508484363555908,-4.254197120666504
1771073492904596700,12.3035966796875,4.103888511657715,-2.4707603454589844,-4.365747451782227
1771073492914536700,12.31353662109375,2.799586296081543,-2.3526079654693604,-4.223715782165527
1771073492924476700,12.3234765625,1.4263277053833008,-2.197502851486206,-3.761221408843994
1771073492934416600,12.333416748046876,0.2806415557861328,-1.95672607421875,-2.9903488159179688
1771073492944356600,12.343356689453126,-0.6242513656616211,-1.661789894104004,-2.017822504043579
1771073492954296600,12.353296630859376,-1.4950504302978516,-1.4174838066101074,-0.9992479681968689
1771073492964236500,12.363236572265626,-2.4710001945495605,-1.2521727085113525,-0.07003626227378845
1771073492974176500,12.373176513671876,-3.5045976638793945,-1.1376874446868896,0.8110082745552063
1771073492984116500,12.383116455078126,-4.839600563049316,-1.115827202796936,1.5768834352493286
1771073492994056400,12.393056396484376,-6.303618431091309,-1.1452891826629639,2.0982446670532227
1771073493003996400,12.402996337890626,-7.316679000854492,-1.058856725692749,2.3800735473632812
1771073493013936000,12.41293603515625,-7.384165287017822,-0.9279817342758179,2.4213247299194336
1771073493023876000,12.4228759765625,-6.595345497131348,-0.9942235946655273,2.317336082458496
1771073493033816000,12.432816162109376,-5.573436260223389,-1.205111026763916,2.139862060546875
1771073493043756000,12.442756103515626,-4.54063081741333,-1.480625867843628,1.9459081888198853
1771073493053696000,12.452696044921876,-3.6493725776672363,-1.7180681228637695,1.735615849494934
1771073493063636000,12.462635986328126,-2.9251933097839355,-1.9025287628173828,1.4054867029190063
1771073493073576000,12.472575927734376,-2.696711540222168,-1.8959949016571045,1.2915018796920776
1771073493083516000,12.482515869140625,-2.6922507286071777,-1.5349692106246948,1.5867961645126343
1771073493093456000,12.492455810546875,-2.454768180847168,-0.9673573970794678,1.8522733449935913
1771073493103395800,12.502395751953125,-1.659998893737793,-0.5184484720230103,1.5474464893341064
1771073493113335800,12.512335693359375,-0.5837087631225586,-0.159193754196167,1.0164120197296143
1771073493123275500,12.522275634765625,0.2055816650390625,0.09541857242584229,0.6211923360824585
1771073493133215500,12.532215576171875,0.7021102905273438,0.29639333486557007,0.33074644207954407
1771073493143155500,12.542155517578125,0.4795055389404297,1.0418777465820312,0.6791672706604004
1771073493153095400,12.552095458984375,-0.10750293731689453,2.3228344917297363,1.4535672664642334
1771073493163035100,12.56203515625,-0.07317924499511719,3.6311798095703125,1.8143157958984375
1771073493172975000,12.57197509765625,1.3162031173706055,4.320587158203125,1.6505351066589355
1771073493182915000,12.5819150390625,3.24200439453125,3.970388889312744,1.2454075813293457
1771073493192854800,12.591854736328125,4.552451133728027,2.81221866607666,1.600175142288208
1771073493202794800,12.601794677734375,5.749100685119629,1.4548701047897339,2.400614023208618
1771073493212734700,12.611734619140625,7.550441741943359,0.29150819778442383,3.0137295722961426
1771073493222674700,12.6216748046875,9.946911811828613,-0.6766430139541626,3.071014165878296
1771073493232614400,12.631614501953125,12.118956565856934,-1.7270779609680176,2.212156295776367
1771073493242554400,12.641554443359375,12.671125411987305,-2.9891600608825684,0.5697835087776184
1771073493252494300,12.651494384765625,12.317289352416992,-4.064940452575684,-1.342824935913086
1771073493262434000,12.66143408203125,10.997685432434082,-4.450340270996094,-2.736058235168457
1771073493272374000,12.6713740234375,8.696537017822266,-4.098228931427002,-3.3738768100738525
1771073493282314000,12.68131396484375,6.213149070739746,-3.3228073120117188,-3.317915916442871
