time,seconds_elapsed,z,y,x
1771073480698348500,0.0973486328125,0.1165132075548172,0.060453712940216064,-0.03808317333459854
1771073480708282000,0.1072822265625,0.09520793706178665,-0.0141147430986166,-0.02636527456343174
1771073480728151800,0.12715185546875,0.00892158318310976,-0.2090579867362976,0.1291632205247879
1771073480738088200,0.137088134765625,-0.051798444241285324,-0.21971063315868378,0.2569948434829712
1771073480748025900,0.14702587890625,-0.09867004305124283,-0.15899059176445007,0.33475908637046814
1771073480757964800,0.15696484375,-0.11677952855825424,-0.06631266325712204,0.3613906800746918
1771073480767904800,0.16690478515625,-0.11464899778366089,0.014647374860942364,0.33902016282081604
1771073480777846000,0.176845947265625,-0.0997353047132492,0.08069372177124023,0.2857569754123688
1771073480787788500,0.18678857421875,-0.0762995108962059,0.1435442715883255,0.21651484072208405
1771073480797731800,0.19673193359375,-0.04647212475538254,0.2000032514333725,0.1387505829334259
1771073480807676000,0.206676025390625,-0.01664474420249462,0.22983063757419586,0.056725289672613144
1771073480817620700,0.216620849609375,0.01850895583629608,0.2330264151096344,-0.03701791167259216
1771073480827565800,0.22656591796875,0.11331742256879807,0.22450430691242218,-0.19254639744758606
1771073480837511000,0.236510986328125,0.30613014101982117,0.15100112557411194,-0.4535360038280487
1771073480847454700,0.246454833984375,0.4467449486255646,0.1435442715883255,-0.6303697824478149
1771073480857394700,0.256394775390625,0.5511407852172852,0.22983063757419586,-0.7752456068992615
1771073480867334700,0.266334716796875,0.6395576596260071,0.33422645926475525,-0.9137299060821533
1771073480877274600,0.276274658203125,0.6864292621612549,0.40346860885620117,-0.9755151867866516
1771073480887214600,0.286214599609375,0.6800376772880554,0.4450138807296753,-0.9392961859703064
1771073480897154600,0.296154541015625,0.6331660747528076,0.4673844277858734,-0.8253130316734314
1771073480907094500,0.306094482421875,0.5511407852172852,0.4929507374763489,-0.6783066391944885
1771073480917034200,0.3160341796875,0.45207124948501587,0.49401602149009705,-0.5366265773773193
1771073480926974200,0.32597412109375,0.350871205329895,0.4215780794620514,-0.4162517786026001
1771073480936914200,0.3359140625,0.2613890767097473,0.2649843394756317,-0.31505173444747925
1771073480946854100,0.345854248046875,0.19747324287891388,0.0913463607430458,-0.2138516753911972
1771073480956794000,0.355794189453125,0.16231954097747803,-0.0141147430986166,-0.09880319982767105
1771073480966734000,0.365734130859375,0.1442100703716278,-0.05779055133461952,0.02263685315847397
1771073480976674000,0.375674072265625,0.1346226930618286,-0.09081372618675232,0.1291632205247879
1771073480986614000,0.385614013671875,0.13355742394924164,-0.13981585204601288,0.2047969400882721
1771073480996554000,0.395553955078125,0.15273217856884003,-0.18029586970806122,0.24421168863773346
1771073481006494000,0.405493896484375,0.19534271955490112,-0.2005358785390854,0.25486433506011963
1771073481016434000,0.415433837890625,0.2528669536113739,-0.18668745458126068,0.24847275018692017
1771073481026374000,0.425373779296875,0.3146522343158722,-0.12596742808818817,0.22290641069412231
1771073481036313900,0.43531396484375,0.3700459599494934,-0.05033370852470398,0.1909485012292862
1771073481046253600,0.445253662109375,0.417982816696167,0.025300011038780212,0.14940322935581207
1771073481056193500,0.455193603515625,0.43289652466773987,0.1627190262079239,0.03328948840498924
1771073481066133500,0.465133544921875,0.40519964694976807,0.27244117856025696,-0.1392832249403
1771073481076073500,0.475073486328125,0.3806985914707184,0.3086601495742798,-0.2522011697292328
1771073481086013400,0.485013427734375,0.3838943839073181,0.4066644012928009,-0.33316120505332947
1771073481095953400,0.494953369140625,0.38815543055534363,0.5249086618423462,-0.4077296555042267
1771073481105893400,0.504893310546875,0.39561229944229126,0.6037381887435913,-0.44714441895484924
1771073481115833300,0.514833251953125,0.41585230827331543,0.6708498001098633,-0.44714441895484924
1771073481125773300,0.524773193359375,0.4414186179637909,0.714525580406189,-0.41838228702545166
1771073481135713300,0.53471337890625,0.48189863562583923,0.684698224067688,-0.35659700632095337
1771073481145653200,0.5446533203125,0.530900776386261,0.5866939425468445,-0.27670222520828247
1771073481155593200,0.55459326171875,0.5649892091751099,0.42796966433525085,-0.19893798232078552
1771073481165533200,0.564533203125,0.4456796646118164,0.26285380125045776,-0.2287653684616089
1771073481175473000,0.574472900390625,0.21877852082252502,0.0774979293346405,-0.3416832983493805
1771073481185412900,0.584412841796875,0.0504668653011322,-0.1291632205247879,-0.4577970504760742
1771073481195352800,0.594352783203125,-0.07097318768501282,-0.32410645484924316,-0.5547360181808472
1771073481205292800,0.604292724609375,-0.18282587826251984,-0.425306499004364,-0.6218476295471191
1771073481215232800,0.614232666015625,-0.2605901062488556,-0.3699128031730652,-0.6111950278282166
1771073481225172700,0.6241728515625,-0.269112229347229,-0.17283903062343597,-0.4865591824054718
1771073481235112700,0.63411279296875,-0.22543641924858093,0.0913463607430458,-0.2745717167854309
1771073481245052700,0.644052734375,-0.1380847990512848,0.3406180441379547,-0.027430538088083267
1771073481254992600,0.65399267578125,-0.015579480677843094,0.5696497559547424,0.23675484955310822
1771073481264932600,0.6639326171875,0.11970899999141693,0.7464835047721863,0.4764391779899597
1771073481274872600,0.67387255859375,0.24434484541416168,0.7954856157302856,0.6458160877227783
1771073481284812500,0.6838125,0.3434143662452698,0.6974813938140869,0.7246456146240234
1771073481294752300,0.693752197265625,0.41478702425956726,0.45673179626464844,0.7278413772583008
1771073481304692200,0.703692138671875,0.4701807498931885,0.11691268533468246,0.6617950201034546
1771073481314632200,0.713632080078125,0.5053344368934631,-0.24527695775032043,0.5307676196098328
1771073481324572200,0.723572265625,0.5181176066398621,-0.5435507893562317,0.3784348964691162
1771073481334512000,0.73351220703125,0.5245091915130615,-0.689491868019104,0.237820103764534
1771073481344452000,0.7434521484375,0.5340965390205383,-0.7193192839622498,0.13022847473621368
1771073481354392000,0.75339208984375,0.5372923612594604,-0.7022750377655029,0.08016108721494675
1771073481364332000,0.76333203125,0.5351617932319641,-0.6095971465110779,0.09507478028535843
1771073481374272000,0.77327197265625,0.5372923612594604,-0.4306328296661377,0.14514216780662537
1771073481384212000,0.7832119140625,0.5340965390205383,-0.23355905711650848,0.19840535521507263
1771073481394152000,0.79315185546875,0.5159870982170105,-0.08122635632753372,0.21225377917289734
1771073481404092000,0.803091796875,0.4925512671470642,-0.00985368900001049,0.17923060059547424
1771073481414032000,0.813031982421875,0.482963889837265,-0.0002663159102667123,0.11638005077838898
1771073481423971600,0.8229716796875,0.4872249662876129,-0.019441060721874237,0.031158961355686188
1771073481433911600,0.83291162109375,0.5053344368934631,-0.06950845569372177,-0.07536740601062775
1771073481443851500,0.8428515625,0.5266396999359131,-0.15579481422901154,-0.20852535963058472
1771073481453791500,0.85279150390625,0.5447492003440857,-0.27297380566596985,-0.3608580529689789
1771073481463731500,0.8627314453125,0.5649892091751099,-0.40400123596191406,-0.5078644156455994
1771073481473671400,0.87267138671875,0.6086649894714355,-0.5233107805252075,-0.6197171211242676
1771073481483611400,0.882611328125,0.6715155839920044,-0.6159886717796326,-0.6921550631523132
1771073481493551400,0.89255126953125,0.7333008646965027,-0.6799045205116272,-0.7155908346176147
1771073481503491300,0.9024912109375,0.7940208911895752,-0.6703171730041504,-0.6793718934059143
1771073481513431300,0.912431396484375,0.8472840785980225,-0.5744433999061584,-0.5941507816314697
1771073481523371300,0.922371337890625,0.8739156723022461,-0.4593949317932129,-0.4673844277858734
1771073481533311200,0.932311279296875,0.8728504180908203,-0.35286858677864075,-0.31931278109550476
1771073481543251200,0.942251220703125,0.8238482475280762,-0.20799273252487183,-0.1627190262079239
1771073481553191000,0.95219091796875,0.7183871865272522,-0.017310533672571182,-0.013582111336290836
1771073481563131000,0.962130859375,0.6107955574989319,0.20639483630657196,0.12383689731359482
1771073481573070800,0.97207080078125,0.5170523524284363,0.4269044101238251,0.25379905104637146
1771073481583010800,0.9820107421875,0.41478702425956726,0.6186518669128418,0.3507380485534668
1771073481592950800,0.99195068359375,0.27310696244239807,0.7060034871101379,0.39441385865211487
1771073481602890800,1.001890869140625,0.09946899116039276,0.6761760711669922,0.40080544352531433
1771073481612830700,1.011830810546875,-0.043276336044073105,0.6367613673210144,0.3922833502292633
1771073481622770700,1.021770751953125,-0.11784479022026062,0.6207823753356934,0.3731085956096649
1771073481632710700,1.031710693359375,-0.10399636626243591,0.6303697824478149,0.32836753129959106
1771073481642650600,1.041650634765625,0.005725792143493891,0.6942855715751648,0.24101589620113373
1771073481652590600,1.051590576171875,0.22090904414653778,0.8199867010116577,0.09933583438396454
1771073481662530600,1.061530517578125,0.5404881238937378,0.9478183388710022,-0.09880319982767105
1771073481672470500,1.071470458984375,0.9154609441757202,0.99468994140625,-0.34274858236312866
1771073481682410200,1.08141015625,1.2350400686264038,0.927578330039978,-0.588824450969696
1771073481692350200,1.09135009765625,1.3948296308517456,0.760331928730011,-0.8221172094345093
1771073481702290200,1.101290283203125,1.3799158334732056,0.5270391702651978,-0.9904288649559021
1771073481712230100,1.111230224609375,1.2382358312606812,0.29587697982788086,-1.0458226203918457
1771073481722170000,1.121170166015625,1.0070736408233643,0.138217955827713,-0.9648625254631042
1771073481732110000,1.131110107421875,0.6779071688652039,0.009321057237684727,-0.7496792674064636
1771073481742050000,1.141050048828125,0.23582273721694946,-0.16431692242622375,-0.4205128252506256
1771073481751990000,1.150989990234375,-0.30852699279785156,-0.36671701073646545,-0.05938844755291939
1771073481761930000,1.160929931640625,-0.9125314950942993,-0.5669865608215332,0.23462431132793427
1771073481771870000,1.170869873046875,-1.484578013420105,-0.7118624448776245,0.40080544352531433
1771073481781810000,1.180809814453125,-1.928792953491211,-0.785365641117096,0.4444812536239624
1771073481791750000,1.19075,-2.1482372283935547,-0.6980140209197998,0.4221107065677643
1771073481801689600,1.200689697265625,-2.1141488552093506,-0.4402202069759369,0.38589176535606384
1771073481811629600,1.210629638671875,-1.886182427406311,-0.08016108721494675,0.3454117476940155
1771073481821569500,1.220569580078125,-1.5655380487442017,0.24900537729263306,0.31132328510284424
1771073481831509500,1.230509521484375,-1.2438284158706665,0.45673179626464844,0.28682222962379456
1771073481841449500,1.240449462890625,-0.9892304539680481,0.5153213143348694,0.2559295892715454
1771073481851389400,1.250389404296875,-0.8283756375312805,0.42264336347579956,0.21118851006031036
1771073481861329400,1.260329345703125,-0.7452850937843323,0.2372874766588211,0.14727269113063812
1771073481871269400,1.270269287109375,-0.6941524147987366,0.013582111336290836,0.04713791608810425
1771073481881209300,1.280209228515625,-0.6430197358131409,-0.21225377917289734,-0.1009337306022644
1771073481891149300,1.2901494140625,-0.5918871164321899,-0.41465386748313904,-0.2980075180530548
1771073481901089300,1.30008935546875,-0.5460807681083679,-0.5755086541175842,-0.5355613231658936
1771073481911029200,1.310029296875,-0.4960133731365204,-0.6937529444694519,-0.7848330140113831
1771073481920969200,1.31996923828125,-0.44594597816467285,-0.7629950642585754,-1.007473111152649
1771073481930909000,1.329908935546875,-0.4193144142627716,-0.726776123046875,-1.166197419166565
1771073481940849000,1.339848876953125,-0.40866175293922424,-0.6021402478218079,-1.242896318435669
1771073481950788900,1.349788818359375,-0.3884217441082001,-0.4103928208351135,-1.220525860786438
1771073481960728800,1.359728759765625,-0.35220280289649963,-0.171773761510849,-1.095889925956726
1771073481970668800,1.369668701171875,-0.33302804827690125,0.13076111674308777,-0.8977509140968323
1771073481980608800,1.37960888671875,-0.34687647223472595,0.46205809712409973,-0.6878939867019653
1771073481990548700,1.389548828125,-0.38416069746017456,0.7187866568565369,-0.47058022022247314
1771073482000488700,1.39948876953125,-0.45446810126304626,0.8711193203926086,-0.2468748539686203
1771073482010428700,1.4094287109375,-0.5503418445587158,0.9201214909553528,-0.035952646285295486
1771073482020368600,1.41936865234375,-0.6685860753059387,0.8487488031387329,0.15046848356723785
1771073482030308600,1.42930859375,-0.8038745522499084,0.7028076648712158,0.30599698424339294
1771073482040248600,1.43924853515625,-0.9370325207710266,0.5004075765609741,0.416784405708313
1771073482050188500,1.4491884765625,-1.0435588359832764,0.2191779911518097,0.4966791868209839
1771073482060128300,1.459128173828125,-1.1117358207702637,-0.06737792491912842,0.5584644675254822
1771073482070068200,1.469068115234375,-1.1309105157852173,-0.3507380485534668,0.6277065873146057
1771073482080008200,1.47900830078125,-1.0712558031082153,-0.5169191956520081,0.7502118945121765
1771073482089948200,1.4889482421875,-0.897617757320404,-0.41891491413116455,0.932371973991394
1771073482099888000,1.49888818359375,-0.6195839643478394,-0.11105373501777649,1.1358373165130615
1771073482109828000,1.508828125,-0.2744385600090027,0.2287653684616089,1.3126710653305054
1771073482119768000,1.51876806640625,0.06857634335756302,0.4546012580394745,1.4223933219909668
1771073482129708000,1.5287080078125,0.35406699776649475,0.5067991614341736,1.4596774578094482
1771073482139648000,1.53864794921875,0.5713807940483093,0.391750693321228,1.4394375085830688
1771073482149588000,1.548587890625,0.7396924495697021,0.23835274577140808,1.3883048295974731
1771073482159528000,1.55852783203125,0.8930904269218445,0.20639483630657196,1.3307806253433228
1771073482169468000,1.568468017578125,1.0347704887390137,0.27776750922203064,1.2647342681884766
1771073482179408000,1.578407958984375,1.117861032485962,0.3118559420108795,1.13370680809021
1771073482189347600,1.58834765625,1.05820631980896,0.06258423626422882,0.8492814302444458
1771073482199287600,1.59828759765625,0.7940208911895752,-0.5094623565673828,0.36671701073646545
1771073482209227500,1.6082275390625,0.3604585826396942,-1.1986879110336304,-0.27244117856025696
1771073482219167500,1.61816748046875,-0.13488900661468506,-1.7142754793167114,-0.8572708964347839
1771073482229107500,1.628107421875,-0.5577986836433411,-1.7622123956680298,-1.166197419166565
1771073482239047400,1.63804736328125,-0.8379629850387573,-1.3701953887939453,-1.2343742847442627
1771073482248987400,1.6479873046875,-0.9540767669677734,-0.9217193722724915,-1.1640667915344238
1771073482258927400,1.65792724609375,-0.8464851379394531,-0.5030707716941833,-0.9829720258712769
1771073482268867300,1.667867431640625,-0.5215796828269958,-0.12383689731359482,-0.7283740043640137
1771073482278807300,1.677807373046875,-0.08908267319202423,0.18935060501098633,-0.448209673166275
1771073482288747300,1.687747314453125,0.3221091032028198,0.3608580529689789,-0.204264298081398
1771073482298687200,1.697687255859375,0.6406229138374329,0.36618438363075256,-0.019973693415522575
1771073482308627000,1.707626953125,0.8568714261054993,0.2426137924194336,0.10998847335577011
1771073482318567000,1.71756689453125,0.9772462248802185,0.024234747514128685,0.19734008610248566
1771073482328507000,1.7275068359375,1.0092041492462158,-0.2239716798067093,0.25912538170814514
1771073482338446800,1.73744677734375,0.9793767333030701,-0.45193809270858765,0.31451907753944397
1771073482348386800,1.74738671875,0.9026777744293213,-0.6309024095535278,0.3848264813423157
1771073482358326800,1.757326904296875,0.7918903827667236,-0.7416898012161255,0.481765478849411
1771073482368266800,1.767266845703125,0.660862922668457,-0.7896266579627991,0.6000097393989563
1771073482378206700,1.777206787109375,0.5245091915130615,-0.7864308953285217,0.7342329621315002
1771073482388146700,1.787146728515625,0.3743070065975189,-0.6852308511734009,0.8801741003990173
1771073482398086700,1.797086669921875,0.2059953510761261,-0.4402202069759369,1.023984670639038
1771073482408026600,1.807026611328125,0.033422645181417465,-0.1344895362854004,1.1443594694137573
1771073482417966600,1.816966552734375,-0.11358373612165451,0.0913463607430458,1.2167973518371582
1771073482427906600,1.826906494140625,-0.2265016883611679,0.2191779911518097,1.2018836736679077
1771073482437846300,1.83684619140625,-0.2829606533050537,0.2852243483066559,1.1070752143859863
1771073482447786200,1.8467861328125,-0.24993747472763062,0.3352917432785034,0.9877657294273376
1771073482457726200,1.856726318359375,-0.0954742506146431,0.4407528340816498,0.9313067197799683
1771073482467666200,1.866666259765625,0.12397005409002304,0.5515402555465698,0.945155143737793
1771073482477606100,1.876606201171875,0.2869553864002228,0.5462139248847961,1.0303763151168823
1771073482487546000,1.886546142578125,0.3082606792449951,0.46631917357444763,1.163534164428711
1771073482497486000,1.896486083984375,0.19427745044231415,0.32037803530693054,1.272191047668457
1771073482507426000,1.906426025390625,-0.024101590737700462,0.03808317333459854,1.2700605392456055
1771073482517366000,1.916365966796875,-0.2456764280796051,-0.3784348964691162,1.1795132160186768
1771073482527306000,1.926305908203125,-0.31917962431907654,-0.6585992574691772,1.1379679441452026
1771073482537246000,1.936245849609375,-0.22117535769939423,-0.6703171730041504,1.1518163681030273
1771073482547186000,1.94618603515625,-0.11038794368505478,-0.6234455704689026,1.103879451751709
1771073482557126000,1.9561259765625,-0.1380847990512848,-0.7800393104553223,0.8918919563293457
1771073482567065600,1.966065673828125,-0.33728909492492676,-1.182708978652954,0.49987494945526123
1771073482577005600,1.976005615234375,-0.6739124059677124,-1.572595477104187,0.015180006623268127
1771073482586945500,1.985945556640625,-1.0723210573196411,-1.5747259855270386,-0.40346860885620117
1771073482596885500,1.995885498046875,-1.4451632499694824,-1.09855318069458,-0.6719150543212891
1771073482606825500,2.005825439453125,-1.7200013399124146,-0.45619916915893555,-0.8743151426315308
1771073482616765400,2.015765380859375,-1.8499634265899658,-0.04607265070080757,-1.121456265449524
1771073482626705400,2.025705322265625,-1.8382455110549927,0.030626330524683,-1.4357091188430786
1771073482636645400,2.035645263671875,-1.710413932800293,-0.06950845569372177,-1.7254607677459717
1771073482646585300,2.04558544921875,-1.4867085218429565,-0.1579253375530243,-1.8863155841827393
1771073482656525300,2.055525390625,-1.2129358053207397,-0.1760348230600357,-1.8596839904785156
1771073482666465300,2.06546533203125,-0.9221188426017761,-0.09294424951076508,-1.6402397155761719
1771073482676405200,2.0754052734375,-0.637693464756012,0.08495477586984634,-1.2780500650405884
1771073482686345200,2.08534521484375,-0.37563860416412354,0.32676962018013,-0.8466182947158813
1771073482696285000,2.095284912109375,-0.12423637509346008,0.4812328517436981,-0.43755704164505005
1771073482706225000,2.105224853515625,0.10479531437158585,0.45673179626464844,-0.11904320865869522
1771073482716164900,2.115164794921875,0.27843329310417175,0.33422645926475525,0.09507478028535843
1771073482726104800,2.125104736328125,0.3338269889354706,0.18189376592636108,0.19414429366588593
1771073482736044800,2.135044921875,0.2432795912027359,0.06471476703882217,0.17923060059547424
1771073482745984800,2.14498486328125,0.05685844644904137,0.06578002870082855,0.08335687965154648
1771073482755924700,2.1549248046875,-0.14767217636108398,0.2138516753911972,-0.0540621280670166
1771073482765864700,2.16486474609375,-0.31811434030532837,0.450340211391449,-0.19254639744758606
1771073482775804700,2.1748046875,-0.4289017617702484,0.7241129875183105,-0.2788327634334564
1771073482785744600,2.18474462890625,-0.4608596861362457,0.9797762632369995,-0.27244117856025696
1771073482795684600,2.1946845703125,-0.32344067096710205,1.1267826557159424,-0.18402428925037384
1771073482805624600,2.20462451171875,-0.05819002538919449,1.0937594175338745,-0.11691268533468246
1771073482815564300,2.214564208984375,-0.18176060914993286,1.0181257724761963,-0.2553969621658325
1771073482825504300,2.224504150390625,-0.42677125334739685,0.9936246871948242,-0.3779022693634033
1771073482835444200,2.2344443359375,-0.5056007504463196,0.9456877708435059,-0.38642439246177673
1771073482845384200,2.24438427734375,-0.4725775718688965,0.7667235136032104,-0.37683701515197754
1771073482855324200,2.25432421875,-0.3681817352771759,0.6463487148284912,-0.36192330718040466
1771073482865264000,2.26426416015625,-0.203065887093544,0.6420876383781433,-0.32463908195495605
1771073482875204000,2.2742041015625,-0.01771000772714615,0.6186518669128418,-0.24367906153202057
1771073482885144000,2.28414404296875,0.1442100703716278,0.6069339513778687,-0.06471476703882217
1771073482895084000,2.294083984375,0.28269433975219727,0.6601971387863159,0.22184115648269653
1771073482905024000,2.30402392578125,0.4190480709075928,0.7507445216178894,0.5392897129058838
1771073482914964000,2.3139638671875,0.5596628785133362,0.7912245988845825,0.7992140650749207
1771073482924904000,2.323904052734375,0.6874945163726807,0.7241129875183105,0.9419593811035156
1771073482934844000,2.333843994140625,0.7972166538238525,0.5994771122932434,0.9590035676956177
1771073482944783600,2.34378369140625,0.8877640962600708,0.42796966433525085,0.86952143907547
1771073482954723600,2.3537236328125,0.9751157164573669,0.15206637978553772,0.7139929533004761
1771073482964663600,2.36366357421875,1.1029473543167114,-0.22610220313072205,0.5510076284408569
1771073482974603500,2.373603515625,1.2819116115570068,-0.6127929091453552,0.4775044322013855
1771073482984543500,2.38354345703125,1.4832464456558228,-0.923849880695343,0.5169191956520081
1771073482994483500,2.3934833984375,1.6994949579238892,-0.982439398765564,0.48389601707458496
1771073483004423400,2.40342333984375,1.8038908243179321,-0.906805694103241,0.6905571818351746
1771073483014363400,2.41336328125,1.7729982137680054,-0.8492814302444458,0.9185235500335693
1771073483024303400,2.423303466796875,1.5769896507263184,-0.781104564666748,1.0143972635269165
1771073483034243300,2.433243408203125,1.1988210678100586,-0.8301066756248474,0.8386288285255432
1771073483044183300,2.443183349609375,0.7173219323158264,-0.9749825596809387,0.32517173886299133
1771073483054123300,2.453123291015625,0.24221432209014893,-0.9653951525688171,-0.3651190996170044
1771073483064063200,2.463063232421875,-0.11251847445964813,-0.6852308511734009,-0.99468994140625
1771073483074003000,2.4730029296875,-0.3202448785305023,-0.29214856028556824,-1.4282522201538086
1771073483083943000,2.48294287109375,-0.34261542558670044,0.10412952303886414,-1.5784543752670288
1771073483093883000,2.4928828125,-0.1753690242767334,0.4439486265182495,-1.4303827285766602
1771073483103822800,2.50282275390625,0.11864373832941055,0.6772413849830627,-1.0713889598846436
1771073483113762800,2.5127626953125,0.46165862679481506,0.7795066833496094,-0.638891875743866
1771073483123702800,2.522702880859375,0.7588672041893005,0.7645930051803589,-0.2660495936870575
1771073483133642800,2.532642822265625,0.9335704445838928,0.6623276472091675,-0.03488738462328911
1771073483143582700,2.542582763671875,0.9527451395988464,0.4961465299129486,0.0354200154542923
1771073483153522700,2.552522705078125,0.8366314172744751,0.22663484513759613,-0.0636495053768158
1771073483163462700,2.562462646484375,0.6672545075416565,-0.10466215014457703,-0.2894853949546814
1771073483173402600,2.572402587890625,0.5436839461326599,-0.37097805738449097,-0.5600623488426208
1771073483183342600,2.582342529296875,0.5522060394287109,-0.4764391779899597,-0.7805719375610352
1771073483193282600,2.592282470703125,0.6629934310913086,-0.44767704606056213,-0.8924246430397034
1771073483203222300,2.60222216796875,0.8281093239784241,-0.3091927766799927,-0.8785761594772339
1771073483213162200,2.612162353515625,1.0113346576690674,-0.08016108721494675,-0.7337003350257874
1771073483223102200,2.622102294921875,1.1626020669937134,0.16378428041934967,-0.4972118139266968
1771073483233042200,2.632042236328125,1.2307789325714111,0.3139864504337311,-0.2181127369403839
1771073483242982100,2.641982177734375,1.2041473388671875,0.37151068449020386,0.0492684431374073
1771073483252922000,2.651922119140625,1.1029473543167114,0.3363569974899292,0.28149592876434326
1771073483262862000,2.661862060546875,0.9420925378799438,0.2000032514333725,0.4647212624549866
1771073483272802000,2.671802001953125,0.7599324584007263,0.007190529722720385,0.58403080701828
1771073483282742000,2.681741943359375,0.5841639637947083,-0.19734008610248566,0.6032055616378784
1771073483292682000,2.691681884765625,0.41585230827331543,-0.3635212182998657,0.5094623565673828
1771073483302622000,2.7016220703125,0.2773680090904236,-0.416784405708313,0.34860754013061523
1771073483312562000,2.71156201171875,0.17190691828727722,-0.3177148699760437,0.1579253375530243
1771073483322501600,2.721501708984375,0.08135951310396194,-0.11211899667978287,-0.040213704109191895
1771073483332441600,2.731441650390625,-0.012383690103888512,0.0966726765036583,-0.18828535079956055
1771073483342381600,2.741381591796875,-0.10186583548784256,0.261788547039032,-0.20852535963058472
1771073483352321500,2.751321533203125,-0.1700427085161209,0.3502054214477539,-0.07856319099664688
1771073483362261500,2.761261474609375,-0.17323850095272064,0.3352917432785034,0.19627483189105988
1771073483372201500,2.771201416015625,-0.09227846562862396,0.270310640335083,0.5989444851875305
1771073483382141400,2.781141357421875,-0.003861580742523074,0.18935060501098633,1.0463552474975586
1771073483392081400,2.791081298828125,-0.034754227846860886,-0.04607265070080757,1.3318458795547485
1771073483402021400,2.801021484375,-0.2744385600090027,-0.568051815032959,1.238102674484253
1771073483411961300,2.81096142578125,-0.6281060576438904,-1.1390331983566284,0.7779088020324707
1771073483421901300,2.8209013671875,-0.9412935972213745,-1.342498540878296,0.17816534638404846
1771073483431841300,2.83084130859375,-1.2225232124328613,-1.178447961807251,-0.3363569974899292
1771073483441781200,2.84078125,-1.4771212339401245,-0.8918919563293457,-0.70174241065979
1771073483451721000,2.850720947265625,-1.6582159996032715,-0.6010749936103821,-0.9041424989700317
1771073483461661000,2.860660888671875,-1.7061529159545898,-0.3454117476940155,-0.9606015086174011
1771073483471601000,2.870600830078125,-1.61347496509552,-0.13342426717281342,-0.881771981716156
1771073483481540900,2.880540771484375,-1.4259885549545288,0.05938844755291939,-0.6793718934059143
1771073483491480800,2.890480712890625,-1.1980221271514893,0.21278640627861023,-0.4024033546447754
1771073483501420800,2.9004208984375,-0.9615336060523987,0.3033338189125061,-0.12756532430648804
1771073483511360800,2.91036083984375,-0.7516766786575317,0.3171822428703308,0.07163897901773453
1771073483521300700,2.92030078125,-0.6036050319671631,0.22130851447582245,0.13981585204601288
1771073483531240700,2.93024072265625,-0.5056007504463196,0.04767054691910744,0.08974846452474594
1771073483541180700,2.9401806640625,-0.466185986995697,-0.13129374384880066,-0.028495801612734795
1771073483551120600,2.95012060546875,-0.47364285588264465,-0.2804306447505951,-0.17337165772914886
1771073483561060600,2.960060546875,-0.4960133731365204,-0.3976096510887146,-0.3363569974899292
1771073483571000600,2.97000048828125,-0.5056007504463196,-0.44767704606056213,-0.5142560005187988
1771073483580940300,2.979940185546875,-0.4949481189250946,-0.3731085956096649,-0.6612623929977417
1771073483590880300,2.98988037109375,-0.46938177943229675,-0.18349166214466095,-0.75180983543396
1771073483600820200,2.9998203125,-0.4235754609107971,0.06471476703882217,-0.7816371917724609
1771073483610760200,3.00976025390625,-0.3628554344177246,0.32463908195495605,-0.7635276913642883
1771073483620700200,3.0197001953125,-0.30959224700927734,0.5313002467155457,-0.7198519110679626
1771073483630640000,3.02964013671875,-0.2659164369106293,0.647413969039917,-0.6612623929977417
1771073483640580000,3.039580078125,-0.2169143110513687,0.6985466480255127,-0.5749760270118713
1771073483650520000,3.04952001953125,-0.15299849212169647,0.7113298177719116,-0.4546012580394745
1771073483660460000,3.0594599609375,-0.08695214241743088,0.6964160799980164,-0.3086601495742798
1771073483670400000,3.06939990234375,-0.024101590737700462,0.6761760711669922,-0.14993585646152496
1771073483680340000,3.079340087890625,0.033422645181417465,0.6623276472091675,0.01837579719722271
1771073483690280000,3.089280029296875,0.08881635963916779,0.6399571299552917,0.19414429366588593
1771073483700220000,3.099219970703125,0.14847111701965332,0.5866939425468445,0.39974018931388855
1771073483710159600,3.10915966796875,0.20386482775211334,0.5238434076309204,0.6234455704689026
1771073483720099600,3.119099609375,0.23156169056892395,0.4173170328140259,0.8354330062866211
1771073483730039600,3.12903955078125,0.2251701056957245,0.23941799998283386,1.0186583995819092
1771073483739979500,3.1389794921875,0.17403744161128998,0.015712639316916466,1.158207893371582
1771073483749919500,3.14891943359375,0.12929637730121613,-0.2186453640460968,1.2359721660614014
1771073483759859500,3.158859375,0.18469008803367615,-0.3848264813423157,1.1773825883865356
1771073483769799400,3.16879931640625,0.23262694478034973,-0.4444812536239624,1.0474205017089844
1771073483779739400,3.178739501953125,0.2773680090904236,-0.4157191216945648,0.9110667109489441
1771073483789679400,3.188679443359375,0.41585230827331543,-0.3688475489616394,0.8141277432441711
1771073483799619300,3.198619384765625,0.652340829372406,-0.3890875577926636,0.7629950642585754
1771073483809559300,3.208559326171875,0.9175914525985718,-0.6277065873146057,0.705470860004425
1771073483819499300,3.218499267578125,1.1626020669937134,-0.9334372878074646,0.6660560965538025
1771073483829439000,3.22843896484375,1.3383705615997314,-1.1251847743988037,0.6905571818351746
1771073483839379000,3.23837890625,1.3671327829360962,-1.1145321130752563,0.7683213949203491
1771073483849319000,3.24831884765625,1.1934947967529297,-0.9014793634414673,0.8205193281173706
1771073483859259000,3.2582587890625,0.8291745781898499,-0.6042708158493042,0.7342329621315002
1771073483869198800,3.26819873046875,0.36258912086486816,-0.34754225611686707,0.45193809270858765
1771073483879138800,3.278138916015625,-0.039015281945466995,-0.1387505829334259,0.029028434306383133
1771073483889078800,3.288078857421875,-0.2456764280796051,0.08495477586984634,-0.4013380706310272
1771073483899018800,3.298018798828125,-0.27763432264328003,0.280963271856308,-0.760331928730011
1771073483908958700,3.307958740234375,-0.203065887093544,0.4301002025604248,-0.9893636107444763
1771073483918898700,3.317898681640625,-0.07736477255821228,0.5611276030540466,-1.0713889598846436
1771073483928838700,3.327838623046875,0.05898897349834442,0.6985466480255127,-1.041561484336853
1771073483938778600,3.337778564453125,0.1772332340478897,0.8295740485191345,-0.9531446695327759
1771073483948718600,3.347718505859375,0.2848248779773712,0.9424920082092285,-0.8508793115615845
1771073483958658300,3.357658203125,0.4169175624847412,1.0277130603790283,-0.7422224283218384
1771073483968598300,3.367598388671875,0.5660544633865356,1.041561484336853,-0.638891875743866
1771073483978538200,3.377538330078125,0.7077345252037048,0.9542099237442017,-0.5440834164619446
1771073483988478200,3.387478271484375,0.8227829933166504,0.7944203615188599,-0.45566651225090027
1771073483998418200,3.397418212890625,0.899482011795044,0.6101297736167908,-0.37577176094055176
1771073484008358100,3.407358154296875,0.937831461429596,0.43329599499702454,-0.3129211962223053
1771073484018298000,3.417298095703125,0.9303746223449707,0.24580958485603333,-0.2692453861236572
1771073484028238000,3.427238037109375,0.8739156723022461,0.07430213689804077,-0.23835274577140808
1771073484038178000,3.437177978515625,0.7780419588088989,-0.04713791608810425,-0.21065588295459747
1771073484048118000,3.447117919921875,0.6672545075416565,-0.11105373501777649,-0.17550218105316162
1771073484058058000,3.45705810546875,0.5639239549636841,-0.11851058155298233,-0.1296958476305008
1771073484067998000,3.466998046875,0.48615968227386475,-0.07909582555294037,-0.0774979293346405
1771073484077938000,3.47693798828125,0.4318312406539917,-0.011984216049313545,-0.03382211923599243
1771073484087877600,3.486877685546875,0.39561229944229126,-0.008788425475358963,-0.02636527456343174
1771073484097817600,3.496817626953125,0.3519364893436432,-0.11744531989097595,-0.07110634446144104
1771073484107757600,3.506757568359375,0.2869553864002228,-0.2836264371871948,-0.18722008168697357
1771073484117697500,3.516697509765625,0.19747324287891388,-0.38056543469429016,-0.3651190996170044
1771073484127637500,3.526637451171875,0.1069258376955986,-0.3965443968772888,-0.563258171081543
1771073484137577500,3.536577392578125,0.04727107286453247,-0.3230412006378174,-0.6985466480255127
1771073484147517400,3.546517333984375,0.025965800508856773,-0.1664474457502365,-0.6548708081245422
1771073484157457400,3.55645751953125,0.04833633825182915,0.05725792050361633,-0.3981422781944275
1771073484167397400,3.5663974609375,0.15273217856884003,0.3118559420108795,0.020506324246525764
1771073484177337300,3.57633740234375,0.3221091032028198,0.5376918315887451,0.5126581192016602
1771073484187277300,3.58627734375,0.482963889837265,0.6442182064056396,0.9547425508499146
1771073484197217300,3.59621728515625,0.5319660305976868,0.5771065950393677,1.238102674484253
1771073484207157200,3.6061572265625,0.3700459599494934,0.261788547039032,1.296692132949829
1771073484217097000,3.616096923828125,-0.0017310534603893757,-0.2857569754123688,1.1369025707244873
1771073484227037000,3.626036865234375,-0.45446810126304626,-0.7555382251739502,0.8791088461875916
1771073484236977000,3.635976806640625,-0.8060051202774048,-0.9004141092300415,0.6394245028495789
1771073484246916900,3.645916748046875,-0.9956220388412476,-0.8918919563293457,0.4210454523563385
1771073484256856800,3.65585693359375,-1.0712558031082153,-0.8460856676101685,0.22503694891929626
1771073484266796800,3.665796875,-1.0499504804611206,-0.7661908864974976,0.05033370852470398
1771073484276736800,3.67573681640625,-0.9839041233062744,-0.7523424625396729,-0.1478053331375122
1771073484286676700,3.6856767578125,-0.9199883341789246,-0.7992140650749207,-0.3736412227153778
1771073484296616700,3.69561669921875,-0.8677904009819031,-0.8162582516670227,-0.5760413408279419
1771073484306556700,3.705556640625,-0.8092008829116821,-0.7427550554275513,-0.7081339955329895
1771073484316496600,3.71549658203125,-0.7165229320526123,-0.5893571376800537,-0.7550055980682373
1771073484336376300,3.735376220703125,-0.44061967730522156,-0.2665822207927704,-0.7209171652793884
1771073484346316300,3.74531640625,-0.2648511826992035,-0.12064110487699509,-0.6761760711669922
1771073484356256300,3.75525634765625,-0.05819002538919449,0.007190529722720385,-0.5984118580818176
1771073484366196200,3.7651962890625,0.16231954097747803,0.12863057851791382,-0.4631233811378479
1771073484376136200,3.77513623046875,0.3668501675128937,0.24580958485603333,-0.2798980176448822
1771073484386076200,3.785076171875,0.4936165511608124,0.32463908195495605,-0.10412952303886414
1771073484396016000,3.79501611328125,0.5213133692741394,0.3693801760673523,0.011984216049313545
1771073484405956000,3.8049560546875,0.48189863562583923,0.37151068449020386,0.06950845569372177
1771073484415896000,3.81489599609375,0.40200385451316833,0.31931278109550476,0.08122635632753372
1771073484425836000,3.8248359375,0.2869553864002228,0.25326642394065857,0.05992107838392258
1771073484435776000,3.83477587890625,0.13355742394924164,0.19148114323616028,-0.008255792781710625
1771073484445716000,3.844716064453125,-0.026232117787003517,0.10945583879947662,-0.13608743250370026
1771073484455656000,3.854656005859375,-0.17217323184013367,0.056192658841609955,-0.3139864504337311
1771073484465595600,3.864595703125,-0.30000486969947815,0.08921582996845245,-0.4961465299129486
1771073484475535600,3.87453564453125,-0.41718387603759766,0.2553969621658325,-0.6399571299552917
1771073484485475600,3.8844755859375,-0.5141228437423706,0.5398223400115967,-0.72304767370224
1771073484495415600,3.89441552734375,-0.5684512853622437,0.8881635665893555,-0.72304767370224
1771073484505355500,3.90435546875,-0.5748428702354431,1.1906983852386475,-0.6495444774627686
1771073484515295500,3.91429541015625,-0.5450155138969421,1.3984248638153076,-0.5142560005187988
1771073484525235500,3.9242353515625,-0.466185986995697,1.5156038999557495,-0.3225085735321045
1771073484535175400,3.934175537109375,-0.34687647223472595,1.5049512386322021,-0.09560741484165192
1771073484545115400,3.944115478515625,-0.20945745706558228,1.3526184558868408,0.15472954511642456
1771073484555055400,3.954055419921875,-0.051798444241285324,1.1576752662658691,0.416784405708313
1771073484564995300,3.963995361328125,0.12503531575202942,0.9382309317588806,0.6671213507652283
1771073484574935300,3.973935302734375,0.29334697127342224,0.5749760270118713,0.9046751260757446
1771073484584875300,3.983875244140625,0.4605933725833893,0.1392832249403,1.1422289609909058
1771073484594815000,3.99381494140625,0.7034734487533569,-0.21544957160949707,1.4255890846252441
1771073484604755000,4.0037548828125,1.0315747261047363,-0.5478118062019348,1.6919050216674805
1771073484614695000,4.01369482421875,1.3735243082046509,-1.0037447214126587,1.8474334478378296
1771073484624635000,4.023634765625,1.6558191776275635,-1.540637493133545,1.9379808902740479
1771073484634574800,4.033574951171875,1.7708675861358643,-1.9486335515975952,2.0050923824310303
1771073484644514800,4.043514892578125,1.6387749910354614,-2.1968400478363037,1.959286093711853
1771073484654454800,4.053454833984375,1.3074779510498047,-2.4706127643585205,1.729189157485962
1771073484664394800,4.063394775390625,0.9090693593025208,-2.7326674461364746,1.3179974555969238
1771073484674334700,4.073334716796875,0.5511407852172852,-2.8264107704162598,0.772582471370697
1771073484684274700,4.083274658203125,0.24647536873817444,-2.6304023265838623,0.16857796907424927
1771073484694214700,4.093214599609375,-0.010253162123262882,-2.165947198867798,-0.43649178743362427
1771073484704154600,4.103154541015625,-0.16045533120632172,-1.4788522720336914,-0.9861677885055542
1771073484714094600,4.113094482421875,-0.13382373750209808,-0.6287718415260315,-1.4112080335617065
1771073484724034300,4.123034423828125,0.040879491716623306,0.25859275460243225,-1.674328088760376
1771073484733974300,4.132974365234375,0.26458486914634705,1.0330394506454468,-1.7936376333236694
1771073484743914200,4.142914306640625,0.4659196734428406,1.5859112739562988,-1.8255956172943115
1771073484753854200,4.152854248046875,0.6331660747528076,1.9331872463226318,-1.7925723791122437
1771073484763794200,4.162794189453125,0.7609977126121521,2.091911554336548,-1.7084165811538696
1771073484773734100,4.172734130859375,0.8558061718940735,2.0887157917022705,-1.5763238668441772
1771073484783674000,4.182674072265625,0.925048291683197,1.986450433731079,-1.376054286956787
1771073484793614000,4.192614013671875,0.9825725555419922,1.833052396774292,-1.1097383499145508
1771073484803554000,4.202553955078125,1.025183081626892,1.6253260374069214,-0.8125298619270325
1771073484813494000,4.212493896484375,1.0198568105697632,1.3611406087875366,-0.5281044244766235
1771073484823434000,4.22243408203125,0.9388967156410217,1.011734127998352,-0.3129211962223053
1771073484833374000,4.2323740234375,0.7748461365699768,0.5749760270118713,-0.20639483630657196
1771073484843313700,4.242313720703125,0.5500755310058594,0.11371689289808273,-0.204264298081398
1771073484853253600,4.252253662109375,0.32104381918907166,-0.24847275018692017,-0.270310640335083
1771073484863193600,4.262193603515625,0.13675321638584137,-0.40506649017333984,-0.3448790907859802
1771073484873133600,4.272133544921875,0.05153212696313858,-0.33475908637046814,-0.3779022693634033
1771073484883073500,4.282073486328125,0.07603318989276886,-0.13768532872200012,-0.3651190996170044
1771073484893013500,4.292013427734375,0.1442100703716278,0.0732368752360344,-0.30652961134910583
1771073484902953500,4.301953369140625,0.19534271955490112,0.2372874766588211,-0.19467693567276
1771073484912893400,4.3118935546875,0.19853851199150085,0.3502054214477539,-0.04554001986980438
1771073484922833400,4.32183349609375,0.13888375461101532,0.4109254479408264,0.11638005077838898
1771073484932773400,4.3317734375,0.025965800508856773,0.4109254479408264,0.25060325860977173
1771073484942713300,4.34171337890625,-0.10293109714984894,0.372575968503952,0.3507380485534668
1771073484952653300,4.3516533203125,-0.22011010348796844,0.2948117256164551,0.4444812536239624
1771073484962593300,4.36159326171875,-0.30426591634750366,0.19787272810935974,0.5584644675254822
1771073484972533000,4.371532958984375,-0.25206801295280457,0.09241162240505219,0.7779088020324707
1771073484982473000,4.381472900390625,-0.014514217153191566,-0.029028434306383133,1.1262500286102295
1771073484992413000,4.391412841796875,0.2528669536113739,-0.34328120946884155,1.5065491199493408
1771073485002353000,4.401352783203125,0.3466101586818695,-0.8737825155258179,1.8250629901885986
1771073485012292900,4.41129296875,0.12823110818862915,-1.5608775615692139,1.966742992401123
1771073485022232800,4.42123291015625,-0.3724428117275238,-2.1840567588806152,1.86980402469635
1771073485032172800,4.4311728515625,-0.9615336060523987,-2.447176933288574,1.552355408668518
1771073485042112800,4.44111279296875,-1.479251742362976,-2.3108232021331787,1.0761826038360596
1771073485052052700,4.451052734375,-1.8968350887298584,-1.9337198734283447,0.4551338851451874
1771073485061992700,4.46099267578125,-2.182325839996338,-1.3829785585403442,-0.25326642394065857
1771073485071932700,4.4709326171875,-2.2941784858703613,-0.6884266138076782,-0.9382309317588806
1771073485081872600,4.48087255859375,-2.236654281616211,0.0018642114009708166,-1.506016492843628
1771073485091812600,4.4908125,-2.0438413619995117,0.5824328660964966,-1.8767281770706177
1771073485101752300,4.50075244140625,-1.7785907983779907,1.0266478061676025,-1.9939072132110596
1771073485111692300,4.5106923828125,-1.4867085218429565,1.329182744026184,-1.8980334997177124
1771073485121632300,4.52063232421875,-1.204413652420044,1.4708627462387085,-1.6679365634918213
1771073485131572200,4.530572265625,-0.986034631729126,1.405881643295288,-1.3994901180267334
1771073485141512200,4.54051220703125,-0.8475503921508789,1.1480878591537476,-1.1257174015045166
1771073485151452200,4.5504521484375,-0.7878956198692322,0.8008119463920593,-0.8412919640541077
1771073485161392000,4.56039208984375,-0.8294408917427063,0.48016759753227234,-0.5355613231658936
1771073485171332000,4.57033203125,-0.8965525031089783,0.27670222520828247,-0.18722008168697357
1771073485181272000,4.58027197265625,-0.8944219946861267,0.2277000993490219,0.19414429366588593
1771073485191212000,4.5902119140625,-0.8145272135734558,0.28309381008148193,0.5605949759483337
1771073485201152000,4.600152099609375,-0.7026745080947876,0.3118559420108795,0.8407593369483948
1771073485211092000,4.610092041015625,-0.6068007946014404,0.2191779911518097,0.9600688815116882
1771073485221032000,4.620031982421875,-0.5599291920661926,-0.006657897960394621,0.8833698630332947
1771073485230971600,4.6299716796875,-0.579103946685791,-0.27830013632774353,0.651142418384552
1771073485240911600,4.63991162109375,-0.6419544816017151,-0.45726442337036133,0.3411506712436676
1771073485250851600,4.6498515625,-0.7048050761222839,-0.4721781015396118,0.02583264373242855
1771073485260791600,4.65979150390625,-0.7346324324607849,-0.3304980397224426,-0.23622220754623413
1771073485270731500,4.6697314453125,-0.7442198395729065,-0.11851058155298233,-0.4119907021522522
1771073485280671200,4.679671142578125,-0.7399587631225586,0.13076111674308777,-0.4631233811378479
1771073485290611200,4.689611083984375,-0.6994787454605103,0.3960117697715759,-0.3842938542366028
1771073485300551200,4.69955126953125,-0.6238450407981873,0.6676539778709412,-0.2287653684616089
1771073485310491100,4.7094912109375,-0.5386239290237427,0.8689888119697571,-0.07004108279943466
1771073485320430800,4.719430908203125,-0.45979443192481995,0.9392961859703064,0.029028434306383133
1771073485330370800,4.729370849609375,-0.3820301592350006,0.8743151426315308,0.0684431865811348
1771073485340310800,4.739310791015625,-0.2786996066570282,0.7262434959411621,0.08868319541215897
1771073485350250500,4.74925048828125,-0.1423458606004715,0.5366265773773193,0.09507478028535843
1771073485360190500,4.7591904296875,0.0366184376180172,0.3608580529689789,0.10040109604597092
1771073485370130400,4.76913037109375,0.2805638015270233,0.18508955836296082,0.13662005960941315
1771073485380070400,4.7790703125,0.5884249806404114,0.06897582113742828,0.22716747224330902
1771073485390010000,4.789010009765625,0.9357009530067444,-0.0002663159102667123,0.3922833502292633
1771073485399950000,4.7989501953125,1.2776505947113037,-0.1249021589756012,0.5893571376800537
1771073485409890000,4.80889013671875,1.5386401414871216,-0.43808966875076294,0.7065361142158508
1771073485419829800,4.818829833984375,1.6771245002746582,-0.8258456587791443,0.6980140209197998
1771073485429769700,4.828769775390625,1.6962991952896118,-1.096422553062439,0.6383592486381531
1771073485439709700,4.838709716796875,1.5652717351913452,-1.2167973518371582,0.6010749936103821
1771073485449649700,4.848649658203125,1.2819116115570068,-1.2700605392456055,0.538224458694458
1771073485459589400,4.85858935546875,0.9048082828521729,-1.2370374202728271,0.4029359817504883
1771073485469529300,4.868529296875,0.5500755310058594,-1.0378330945968628,0.21651484072208405
1771073485479469300,4.87846923828125,0.31145647168159485,-0.6713824272155762,0.004527370445430279
1771073485489409300,4.8884091796875,0.20812588930130005,-0.237820103764534,-0.2191779911518097
1771073485499349000,4.898348876953125,0.24008379876613617,0.22130851447582245,-0.4119907021522522
1771073485509289000,4.9082890625,0.41052597761154175,0.6303697824478149,-0.5206475853919983
1771073485519229000,4.91822900390625,0.6640587449073792,0.9084035754203796,-0.5195823311805725
1771073485529168600,4.928168701171875,0.9261136054992676,1.031974196434021,-0.43755704164505005
1771073485539108600,4.938108642578125,1.1530147790908813,1.0127993822097778,-0.31079065799713135
1771073485549048600,4.948048583984375,1.3213263750076294,0.8870983123779297,-0.16911059617996216
1771073485558988500,4.957988525390625,1.4214612245559692,0.6719150543212891,-0.03808317333459854
1771073485568928500,4.967928466796875,1.4608758687973022,0.40986019372940063,0.06631266325712204
1771073485578868500,4.977868408203125,1.444896936416626,0.15526217222213745,0.14514216780662537
1771073485588808400,4.987808349609375,1.3863074779510498,-0.05352949723601341,0.19734008610248566
1771073485598748200,4.997748046875,1.2957600355148315,-0.1994706094264984,0.2420811653137207
1771073485608688000,5.007688232421875,1.172189474105835,-0.2708432674407959,0.2751043438911438
1771073485618628000,5.017628173828125,1.0145304203033447,-0.2793653905391693,0.2857569754123688
1771073485628568000,5.027568115234375,0.8430230021476746,-0.27190855145454407,0.2516685426235199
1771073485638508000,5.037508056640625,0.6704503297805786,-0.24634221196174622,0.13768532872200012
1771073485648448000,5.047447998046875,0.5000081062316895,-0.1952095627784729,-0.05938844755291939
1771073485658388000,5.057387939453125,0.3476754128932953,-0.13235901296138763,-0.2788327634334564
1771073485668328000,5.067327880859375,0.22730062901973724,-0.0684431865811348,-0.48549389839172363
1771073485678268000,5.077267822265625,0.15699322521686554,0.0050600022077560425,-0.6431529521942139
1771073485688208000,5.087207763671875,0.11012163013219833,0.10732531547546387,-0.7262434959411621
1771073485698147800,5.09714794921875,0.08135951310396194,0.2692453861236572,-0.7262434959411621
1771073485708087800,5.107087890625,0.06218476593494415,0.4812328517436981,-0.6356960535049438
1771073485718027500,5.117027587890625,0.029161592945456505,0.7155908346176147,-0.4780370593070984
1771073485727967500,5.126967529296875,-0.03688475489616394,0.8828372359275818,-0.2660495936870575
1771073485737907500,5.136907470703125,-0.11784479022026062,0.9243825078010559,-0.04234423115849495
1771073485747847400,5.146847412109375,-0.17643429338932037,0.8785761594772339,0.1994706094264984
1771073485757787400,5.156787353515625,-0.12317110598087311,0.8018772006034851,0.49987494945526123
1771073485767727400,5.166727294921875,0.0366184376180172,0.6506097912788391,0.8119972348213196
1771073485777667300,5.176667236328125,0.15699322521686554,0.25965800881385803,1.0357025861740112
1771073485787607300,5.186607177734375,0.061119500547647476,-0.4530033767223358,1.1219888925552368
1771073485797547300,5.19654736328125,-0.33728909492492676,-1.406414270401001,1.0335720777511597
1771073485807487200,5.2064873046875,-0.9615336060523987,-2.349172592163086,0.7789740562438965
1771073485817427200,5.21642724609375,-1.667803406715393,-2.8977835178375244,0.3986749053001404
1771073485827367200,5.2263671875,-2.316549062728882,-2.874347686767578,-0.048735812306404114
1771073485837307100,5.23630712890625,-2.8097660541534424,-2.393913745880127,-0.4918854832649231
1771073485847246800,5.246246826171875,-3.0462546348571777,-1.6311849355697632,-0.8849677443504333
1771073485857186800,5.256186767578125,-3.0121660232543945,-0.7044056057929993,-1.1992205381393433
1771073485867126800,5.266126708984375,-2.771416425704956,0.21278640627861023,-1.3930984735488892
1771073485877066800,5.276066650390625,-2.4124226570129395,0.9648625254631042,-1.4239912033081055
1771073485887006700,5.2860068359375,-2.026797294616699,1.4239912033081055,-1.2908332347869873
1771073485896946700,5.29594677734375,-1.6901739835739136,1.5550185441970825,-1.041561484336853
1771073485906886700,5.30588671875,-1.4132053852081299,1.468732237815857,-0.7464835047721863
1771073485916826600,5.31582666015625,-1.1980221271514893,1.1374351978302002,-0.4407528340816498
1771073485926766600,5.3257666015625,-1.030775785446167,0.6335655450820923,-0.1339569091796875
1771073485936706600,5.33570654296875,-0.8997483253479004,0.05938844755291939,0.15899059176445007
1771073485946646500,5.345646484375,-0.8006787896156311,-0.4082622826099396,0.4316980838775635
1771073485956586500,5.35558642578125,-0.7207840085029602,-0.6415550112724304,0.6713824272155762
1771073485966526500,5.3655263671875,-0.6344976425170898,-0.7150582075119019,0.885500431060791
1771073485976466200,5.375466064453125,-0.5343628525733948,-0.6852308511734009,1.074052095413208
1771073485986406100,5.38540625,-0.4342280924320221,-0.5872265696525574,1.2242542505264282
1771073485996346000,5.39534619140625,-0.35220280289649963,-0.5073317885398865,1.2934963703155518
1771073486006286000,5.4052861328125,-0.31917962431907654,-0.5286371111869812,1.2231889963150024
1771073486016226000,5.41522607421875,-0.3490070104598999,-0.6330329179763794,1.0133320093154907
1771073486026166000,5.425166015625,-0.42144492268562317,-0.718254029750824,0.7107971906661987
1771073486036106000,5.43510595703125,-0.5109270811080933,-0.7214497923851013,0.36245596408843994
1771073486046046000,5.4450458984375,-0.5833650231361389,-0.5936181545257568,0.02157158963382244
1771073486055986000,5.45498583984375,-0.6068007946014404,-0.33795487880706787,-0.28309381008148193
1771073486065926000,5.46492578125,-0.5993439555168152,-0.04713791608810425,-0.5291697382926941
1771073486075865900,5.474865966796875,-0.5972134470939636,0.23941799998283386,-0.6942855715751648
1771073486085805800,5.484805908203125,-0.5972134470939636,0.4780370593070984,-0.768854022026062
1771073486095745800,5.494745849609375,-0.5652555227279663,0.6463487148284912,-0.7848330140113831
1771073486105685500,5.504685546875,-0.49814391136169434,0.7273087501525879,-0.777376115322113
1771073486115625500,5.51462548828125,-0.411857545375824,0.7198519110679626,-0.7624624371528625
1771073486125565400,5.5245654296875,-0.3308975100517273,0.6527402997016907,-0.7262434959411621
1771073486135505400,5.53450537109375,-0.2659164369106293,0.5760413408279419,-0.6218476295471191
1771073486145445400,5.5444453125,-0.20945745706558228,0.5014728307723999,-0.4077296555042267
1771073486155385300,5.55438525390625,-0.12636689841747284,0.35659700632095337,-0.10626004636287689
1771073486165325300,5.5643251953125,0.024900536984205246,0.14567480981349945,0.21544957160949707
1771073486175265300,5.574265380859375,0.2336922138929367,-0.09507478028535843,0.5115928649902344
1771073486185205200,5.584205322265625,0.4787028431892395,-0.35819488763809204,0.756603479385376
1771073486195145200,5.594145263671875,0.7482145428657532,-0.6159886717796326,0.9408941268920898
1771073486205085200,5.604085205078125,0.9825725555419922,-0.9004141092300415,1.0058752298355103
1771073486215025200,5.614025146484375,1.1167957782745361,-1.1124016046524048,0.9632646441459656
1771073486224964900,5.62396484375,1.1444926261901855,-1.1347720623016357,0.8918919563293457
1771073486234904800,5.63390478515625,1.1210567951202393,-1.0761826038360596,0.7960182428359985
1771073486244844800,5.6438447265625,1.0262483358383179,-1.103879451751709,0.6255760788917542
1771073486254784800,5.65378466796875,0.8259788155555725,-1.205079436302185,0.34754225611686707
1771073486264724700,5.663724853515625,0.5671197175979614,-1.2530163526535034,0.02583264373242855
1771073486274664700,5.673664794921875,0.31571751832962036,-1.1976226568222046,-0.28735485672950745
1771073486284604700,5.683604736328125,0.10905636847019196,-1.0921615362167358,-0.5547360181808472
1771073486294544600,5.693544677734375,-0.004926844500005245,-0.9664604663848877,-0.7219824194908142
1771073486304484600,5.703484619140625,0.0035952648613601923,-0.8066709041595459,-0.760331928730011
1771073486314424600,5.713424560546875,0.09733846783638,-0.5627255439758301,-0.6783066391944885
1771073486324364500,5.723364501953125,0.24221432209014893,-0.23675484955310822,-0.513190746307373
1771073486334304500,5.733304443359375,0.4371575713157654,0.10412952303886414,-0.30120328068733215
1771073486354184200,5.75318408203125,0.8824377655982971,0.5675191879272461,0.0918789878487587
1771073486364124200,5.763124267578125,1.1082736253738403,0.6697844862937927,0.22503694891929626
1771073486374064000,5.773064208984375,1.306412696838379,0.6964160799980164,0.31558436155319214
1771073486384004000,5.783004150390625,1.4417011737823486,0.6910898089408875,0.3976096510887146
1771073486393944000,5.792944091796875,1.5088127851486206,0.6804371476173401,0.4902876019477844
1771073486403884000,5.802884033203125,1.4907033443450928,0.6378266215324402,0.58403080701828
1771073486413824000,5.812823974609375,1.380981206893921,0.5536707639694214,0.6383592486381531
1771073486423764000,5.822763916015625,1.1945600509643555,0.46631917357444763,0.6255760788917542
1771073486433704000,5.832703857421875,0.9665936231613159,0.4205128252506256,0.546746551990509
1771073486443644000,5.842643798828125,0.7546061277389526,0.42264336347579956,0.40932756662368774
1771073486453584000,5.852583984375,0.5948165655136108,0.4631233811378479,0.22716747224330902
1771073486463523800,5.86252392578125,0.47231125831604004,0.5238434076309204,0.029028434306383133
1771073486473463800,5.8724638671875,0.3657849133014679,0.601607620716095,-0.1392832249403
1771073486483403500,5.882403564453125,0.2763027548789978,0.6942855715751648,-0.2372874766588211
1771073486493343500,5.892343505859375,0.21664799749851227,0.7805719375610352,-0.2607232630252838
1771073486503283500,5.902283447265625,0.17084164917469025,0.8349003791809082,-0.2468748539686203
1771073486513223400,5.912223388671875,0.12397005409002304,0.8647277355194092,-0.24154852330684662
1771073486523163400,5.922163330078125,0.07496792823076248,0.8668583035469055,-0.2468748539686203
1771073486533103400,5.932103271484375,0.016378428786993027,0.8263782858848572,-0.2649843394756317
1771073486543043300,5.942043212890625,-0.056059498339891434,0.7166560888290405,-0.2692453861236572
1771073486552983300,5.9519833984375,-0.09867004305124283,0.5962813496589661,-0.20639483630657196
1771073486562923300,5.96192333984375,-0.07949529588222504,0.4631233811378479,-0.03275685757398605
1771073486572863200,5.97186328125,-0.051798444241285324,0.20106850564479828,0.21651484072208405
1771073486582803200,5.98180322265625,-0.08801741153001785,-0.18242639303207397,0.4434159994125366
1771073486592743200,5.9917431640625,-0.25313326716423035,-0.6394245028495789,0.5371592044830322
1771073486602683100,6.00168310546875,-0.54927659034729,-1.019723653793335,0.4295675754547119
1771073486612622800,6.011622802734375,-0.9135967493057251,-1.0687257051467896,0.16431692242622375
1771073486622562800,6.021562744140625,-1.2768516540527344,-0.735298216342926,-0.204264298081398
1771073486632502800,6.031502685546875,-1.576190710067749,-0.33795487880706787,-0.6697844862937927
1771073486652382500,6.051382568359375,-1.714674949645996,0.19148114323616028,-1.543300747871399
1771073486662322400,6.061322509765625,-1.5303844213485718,0.3874896466732025,-1.7371786832809448
1771073486672262400,6.071262451171875,-1.2076095342636108,0.4929507374763489,-1.6732628345489502
1771073486682202000,6.0812021484375,-0.8102661371231079,0.4961465299129486,-1.3387700319290161
1771073486692142000,6.09114208984375,-0.40759649872779846,0.4119907021522522,-0.8082687854766846
1771073486702082000,6.10108203125,-0.08801741153001785,0.2553969621658325,-0.22983063757419586
1771073486712022000,6.11102197265625,0.06751108169555664,0.06258423626422882,0.2623211741447449
1771073486721961700,6.120961669921875,0.03874896466732025,-0.11424952745437622,0.613858163356781
1771073486731901700,6.130901611328125,-0.09867004305124283,-0.3592601716518402,0.7992140650749207
1771073486741841700,6.140841552734375,-0.24248063564300537,-0.6191844940185547,0.8290414214134216
1771073486751781400,6.150781494140625,-0.30107012391090393,-0.8343677520751953,0.7257108688354492
1771073486761721300,6.160721435546875,-0.27230802178382874,-0.9313067197799683,0.559529721736908
1771073486771661300,6.170661376953125,-0.2083922028541565,-0.8418245911598206,0.41891491413116455
1771073486781601300,6.180601318359375,-0.14447638392448425,-0.6095971465110779,0.34221595525741577
1771073486791541000,6.190541015625,-0.08162582665681839,-0.33475908637046814,0.3230412006378174
1771073486801481000,6.20048095703125,-0.008122635073959827,-0.10146636515855789,0.33475908637046814
1771073486811421000,6.2104208984375,0.07709845900535583,0.0540621280670166,0.3518033027648926
1771073486821361000,6.22036083984375,0.16018901765346527,0.1296958476305008,0.3507380485534668
1771073486831300600,6.230300537109375,0.2102564126253128,0.10412952303886414,0.2985401451587677
1771073486841240600,6.240240478515625,0.20493009686470032,-0.027963170781731606,0.14194637537002563
1771073486851180500,6.2501806640625,0.14740586280822754,-0.21331904828548431,-0.13502216339111328
1771073486861120300,6.260120361328125,0.05259739235043526,-0.33902016282081604,-0.4716454744338989
1771073486871060200,6.270060302734375,-0.08056056499481201,-0.30599698424339294,-0.7699192762374878
1771073486881000200,6.280000244140625,-0.28509119153022766,-0.10040109604597092,-0.9627320170402527
1771073486890940200,6.289940185546875,-0.5631250143051147,0.2649843394756317,-1.0277130603790283
1771073486900880000,6.2998798828125,-0.8582029938697815,0.7358308434486389,-0.9755151867866516
1771073486910819800,6.30981982421875,-1.0957567691802979,1.1693931818008423,-0.8210519552230835
1771073486920760600,6.319760498046875,-1.174586296081543,1.4207954406738281,-0.5898897647857666
1771073486930700800,6.32970068359375,-1.0147967338562012,1.4005553722381592,-0.26818013191223145
1771073486940640800,6.339640869140625,-0.616388201713562,1.2940289974212646,0.11638005077838898
1771073486950580700,6.349580810546875,-0.09121319651603699,1.133174180984497,0.5094623565673828
1771073486960520700,6.359520751953125,0.48189863562583923,0.6197171211242676,0.9579383134841919
1771073486970460700,6.369460693359375,0.8366314172744751,0.13502216339111328,1.3851090669631958
1771073486980400400,6.379400390625,0.8131956458091736,0.06897582113742828,1.7100144624710083
1771073486990340400,6.38934033203125,0.42970073223114014,0.1904158741235733,1.9283934831619263
1771073487000280300,6.3992802734375,-0.2360890507698059,0.35766226053237915,1.9731346368789673
1771073487010220000,6.409219970703125,-0.7751124501228333,0.31931278109550476,1.7600818872451782
1771073487020160000,6.419159912109375,-0.7495461106300354,0.04234423115849495,1.3243889808654785
1771073487030100000,6.429099853515625,-0.2541985511779785,-0.31878015398979187,0.7491466403007507
1771073487040040000,6.4390400390625,0.3455449044704437,-0.6692518591880798,0.105727419257164
1771073487049979600,6.448979736328125,0.7002776861190796,-1.158207893371582,-0.517451822757721
1771073487059919600,6.458919677734375,0.7162566184997559,-1.7728650569915771,-1.0170605182647705
1771073487069859600,6.468859619140625,0.5298355221748352,-2.359825372695923,-1.321725845336914
1771073487079799300,6.47879931640625,0.21238693594932556,-2.8019096851348877,-1.405881643295288
1771073487089739300,6.4887392578125,-0.27656906843185425,-2.8679559230804443,-1.1906983852386475
1771073487099679200,6.49867919921875,-0.8038745522499084,-2.4482421875,-0.7262434959411621
1771073487109619200,6.508619140625,-1.1799126863479614,-1.6780565977096558,-0.11265163123607635
1771073487119559000,6.518558837890625,-1.191630482673645,-0.9281109571456909,0.4498075842857361
1771073487129499000,6.528498779296875,-0.8379629850387573,-0.2878875136375427,0.8631298542022705
1771073487139438800,6.53843896484375,-0.2680469751358032,0.1808284968137741,1.1102709770202637
1771073487149378600,6.548378662109375,0.3274354040622711,0.4641886353492737,1.1912310123443604
1771073487159318500,6.558318603515625,0.8004124760627747,0.6740455627441406,1.158207893371582
1771073487169258500,6.568258544921875,1.1338399648666382,0.8135951161384583,1.061268925666809
1771073487179198500,6.578198486328125,1.3660674095153809,0.8657930493354797,0.9249151349067688
1771073487189138200,6.58813818359375,1.5215959548950195,0.8625972270965576,0.7747129797935486
1771073487199078100,6.598078125,1.6046864986419678,0.8189214468002319,0.6447508335113525
1771073487209018000,6.60801806640625,1.6270570755004883,0.7507445216178894,0.546746551990509
1771073487218958000,6.6179580078125,1.5801854133605957,0.6484792232513428,0.4689823091030121
1771073487228897800,6.627897705078125,1.457680106163025,0.4929507374763489,0.3784348964691162
1771073487238837800,6.637837646484375,1.2627369165420532,0.2948117256164551,0.25486433506011963
1771073487248777700,6.64777783203125,1.0187915563583374,0.14141374826431274,0.09720530360937119
1771073487258717400,6.657717529296875,0.7695198059082031,0.07536740601062775,-0.07110634446144104
1771073487268657400,6.667657470703125,0.5554018020629883,0.07536740601062775,-0.18722008168697357
1771073487278597400,6.677597412109375,0.3902859687805176,0.14141374826431274,-0.2191779911518097
1771073487288537300,6.687537353515625,0.2581932842731476,0.25433170795440674,-0.19467693567276
1771073487298477000,6.69747705078125,0.12183953076601028,0.40453386306762695,-0.14460954070091248
1771073487308417000,6.7074169921875,-0.03795001655817032,0.5568665862083435,-0.07536740601062775
1771073487318357000,6.71735693359375,-0.22437115013599396,0.684698224067688,0.007723161485046148
1771073487328297000,6.727296875,-0.40759649872779846,0.7486140131950378,0.07376950979232788
1771073487338237000,6.73723681640625,-0.5897566080093384,0.7326350808143616,0.09507478028535843
1771073487348177000,6.747177001953125,-0.7878956198692322,0.6154560446739197,0.07483477145433426
1771073487358116900,6.757116943359375,-0.9679251909255981,0.45247071981430054,0.05779055133461952
1771073487368056800,6.767056884765625,-1.0201231241226196,0.31505173444747925,0.10892320424318314
1771073487377996800,6.776996826171875,-0.8848345875740051,0.22450430691242218,0.27723485231399536
1771073487387936800,6.786936767578125,-0.637693464756012,0.09028109163045883,0.5350286364555359
1771073487397876500,6.79687646484375,-0.4534028470516205,-0.2239716798067093,0.7491466403007507
1771073487407816400,6.80681640625,-0.54181969165802,-0.915327787399292,0.6788392663002014
1771073487417756400,6.81675634765625,-0.9551420211791992,-1.8761955499649048,0.24314641952514648
1771073487427696400,6.8266962890625,-1.484578013420105,-2.4652864933013916,-0.33955278992652893
1771073487437636400,6.83663623046875,-1.9745993614196777,-2.4056315422058105,-0.8689888119697571
1771073487447576300,6.846576416015625,-2.4166836738586426,-1.9816566705703735,-1.3622058629989624
1771073487457516300,6.856516357421875,-2.8129618167877197,-1.3030837774276733,-1.7755281925201416
1771073487467456300,6.866456298828125,-3.050515651702881,-0.4721781015396118,-2.05143141746521
1771073487477396200,6.876396240234375,-3.0068397521972656,0.41518649458885193,-2.15156626701355
1771073487487336200,6.886336181640625,-2.672347068786621,1.163001537322998,-2.0897810459136963
1771073487497276200,6.896276123046875,-2.0704729557037354,1.6966986656188965,-1.8820545673370361
1771073487507216100,6.906216064453125,-1.3215926885604858,2.0098862648010254,-1.543300747871399
1771073487517156000,6.916156005859375,-0.6036050319671631,2.075932502746582,-1.1299784183502197
1771073487527095800,6.926095703125,-0.054994236677885056,1.8682061433792114,-0.7070687413215637
1771073487537035800,6.936035888671875,0.2581932842731476,1.4623407125473022,-0.27776750922203064
1771073487546975700,6.945975830078125,0.35300174355506897,0.9478183388710022,0.1813611388206482
1771073487556915700,6.955915771484375,0.28802067041397095,0.3640538454055786,0.651142418384552
1771073487566855700,6.965855712890625,0.12823110818862915,-0.20692746341228485,1.0729868412017822
1771073487576795600,6.975795654296875,-0.07203845679759979,-0.7044056057929993,1.3819133043289185
1771073487586735600,6.985735595703125,-0.2552638053894043,-1.0570077896118164,1.5768564939498901
1771073487596675600,6.995675537109375,-0.42144492268562317,-1.2338416576385498,1.6429028511047363
1771073487606615600,7.005615478515625,-0.5801692008972168,-1.242363691329956,1.5939006805419922
1771073487616555500,7.015555419921875,-0.7261103391647339,-1.1177278757095337,1.4532859325408936
1771073487626495500,7.02549560546875,-0.8603335618972778,-0.8897614479064941,1.2402331829071045
1771073487636435500,7.035435546875,-0.964729368686676,-0.5861613154411316,0.9845699071884155
1771073487646375400,7.04537548828125,-1.060603141784668,-0.31451907753944397,0.7118624448776245
1771073487656315100,7.055315185546875,-1.1628683805465698,-0.09081372618675232,0.44661179184913635
1771073487666255000,7.065255126953125,-1.2747211456298828,0.08282424509525299,0.21331904828548431
1771073487676195000,7.075195068359375,-1.4195969104766846,0.17763271927833557,0.03009369783103466
1771073487686135000,7.085135009765625,-1.600691795349121,0.20746009051799774,-0.09880319982767105
1771073487696075000,7.095074951171875,-1.7359802722930908,0.18189376592636108,-0.22024326026439667
1771073487706015000,7.105014892578125,-1.8254624605178833,0.15632744133472443,-0.36724963784217834
1771073487715955000,7.114954833984375,-1.8755297660827637,0.24580958485603333,-0.5440834164619446
1771073487725895000,7.12489501953125,-1.8883129358291626,0.4865591824054718,-0.7731150984764099
1771073487735835000,7.1348349609375,-1.8116140365600586,0.8796414732933044,-1.041561484336853
1771073487745774800,7.14477490234375,-1.6688686609268188,1.3249216079711914,-1.3685975074768066
1771073487755714800,7.15471484375,-1.5037528276443481,1.7510271072387695,-1.719069242477417
1771073487765654800,7.16465478515625,-1.2896348237991333,2.0578229427337646,-1.9598188400268555
1771073487775594500,7.174594482421875,-0.964729368686676,2.161153554916382,-1.9576882123947144
1771073487785534500,7.184534423828125,-0.4853607416152954,2.021604061126709,-1.7126775979995728
1771073487795474400,7.194474365234375,0.07922898232936859,1.4836459159851074,-1.2482227087020874
1771073487805414400,7.204414306640625,0.5788376331329346,0.4865591824054718,-0.6037381887435913
1771073487815354400,7.214354248046875,0.8653935790061951,-0.9430246353149414,0.1249021589756012
1771073487825294300,7.22429443359375,0.8930904269218445,-2.5110926628112793,0.8141277432441711
1771073487835234300,7.234234375,0.6832334399223328,-3.708449125289917,1.3744564056396484
1771073487845174300,7.24417431640625,0.30186909437179565,-4.2762346267700195,1.7579513788223267
1771073487855114200,7.2541142578125,-0.20519641041755676,-4.1963396072387695,1.9188060760498047
1771073487865054200,7.26405419921875,-0.7356976866722107,-3.480482578277588,1.7004270553588867
1771073487874994200,7.273994140625,-1.150085210800171,-2.423741102218628,1.2072100639343262
1771073487884934100,7.28393408203125,-1.3482242822647095,-1.2210584878921509,0.6905571818351746
1771073487894874000,7.2938740234375,-1.3492895364761353,-0.026897907257080078,0.1994706094264984
1771073487904813800,7.303813720703125,-1.1841737031936646,0.99468994140625,-0.2234390527009964
1771073487914753800,7.31375390625,-0.9050745964050293,1.6924376487731934,-0.49401602149009705
1771073487924693800,7.32369384765625,-0.5844302773475647,2.076997756958008,-0.5984118580818176
1771073487934633700,7.3336337890625,-0.2456764280796051,2.1867198944091797,-0.5898897647857666
1771073487944573700,7.34357373046875,0.09946899116039276,2.0343873500823975,-0.504668653011322
1771073487954513700,7.353513671875,0.42543965578079224,1.7148081064224243,-0.3651190996170044
1771073487964453600,7.36345361328125,0.7013429403305054,1.3249216079711914,-0.18508955836296082
1771073487974393600,7.3733935546875,0.9154609441757202,0.9563404321670532,0.024767380207777023
1771073487984333600,7.38333349609375,1.0720547437667847,0.6484792232513428,0.25379905104637146
1771073487994273500,7.3932734375,1.1785811185836792,0.40027281641960144,0.4785696864128113
1771073488004213500,7.403213623046875,1.2488884925842285,0.21278640627861023,0.672447681427002
1771073488014153500,7.413153564453125,1.2829768657684326,0.09560741484165192,0.8194540739059448
1771073488024093400,7.423093505859375,1.2776505947113037,0.040213704109191895,0.9121319651603699
1771073488034033200,7.433033203125,1.2297136783599854,0.025300011038780212,0.9494162201881409
1771073488043973000,7.44297314453125,1.146623134613037,0.03169159218668938,0.9302414655685425
1771073488053913000,7.4529130859375,1.0390315055847168,0.030626330524683,0.8631298542022705
1771073488063853000,7.46285302734375,0.908004105091095,0.05193160101771355,0.7704519033432007
1771073488073793000,7.47279296875,0.7812377214431763,0.12117373943328857,0.6820350289344788
1771073488083733000,7.48273291015625,0.6470144987106323,0.21172115206718445,0.6010749936103821
1771073488093673000,7.4926728515625,0.5010733604431152,0.2990727722644806,0.5137233734130859
1771073488103613000,7.502613037109375,0.35300174355506897,0.3789675533771515,0.39974018931388855
1771073488113553000,7.512552978515625,0.2059953510761261,0.3970770239830017,0.237820103764534
1771073488123492900,7.522492919921875,0.03768370300531387,0.31931278109550476,0.024767380207777023
1771073488133432800,7.532432861328125,-0.1796300858259201,0.18935060501098633,-0.2468748539686203
1771073488143372500,7.54237255859375,-0.4107922911643982,0.09773793816566467,-0.5249086618423462
1771073488153312500,7.5523125,-0.6291713118553162,0.12117373943328857,-0.655936062335968
1771073488163252500,7.56225244140625,-0.8773777484893799,0.13502216339111328,-0.7582014203071594
1771073488173192400,7.5721923828125,-1.1117358207702637,0.10519478470087051,-0.7816371917724609
1771073488183132200,7.582132080078125,-1.3002874851226807,-0.004527370445430279,-0.6815024018287659
1771073488193072000,7.592072021484375,-1.374855875968933,-0.06205160543322563,-0.44181808829307556
1771073488203012000,7.60201220703125,-1.3247884511947632,0.08388951420783997,0.008788425475358963
1771073488212951800,7.611951904296875,-1.1863042116165161,0.3363569974899292,0.651142418384552
1771073488222891800,7.621891845703125,-1.102148413658142,0.45673179626464844,1.1763173341751099
1771073488232831700,7.631831787109375,-1.241697907447815,0.0540621280670166,1.3414332866668701
1771073488252711400,7.65171142578125,-1.90642249584198,-1.686578631401062,0.6106624007225037
1771073488262651400,7.6616513671875,-2.1535634994506836,-2.025332450866699,0.11105373501777649
1771073488272591400,7.67159130859375,-2.4529027938842773,-1.8314545154571533,-0.28309381008148193
1771073488282531000,7.681531005859375,-2.757568120956421,-1.208275318145752,-0.5121254920959473
1771073488292471000,7.691470947265625,-2.9035091400146484,-0.3752391040325165,-0.5217128396034241
1771073488302411000,7.701410888671875,-2.792721748352051,0.4780370593070984,-0.3502054214477539
1771073488312351000,7.71135107421875,-2.410292148590088,1.1544795036315918,-0.08815056830644608
1771073488322290700,7.721290771484375,-1.8776602745056152,1.4229259490966797,0.24634221196174622
1771073488332230700,7.731230712890625,-1.407879114151001,1.2237216234207153,0.5616602301597595
1771073488342170600,7.741170654296875,-1.1170620918273926,0.7464835047721863,0.7896266579627991
1771073488352110300,7.7511103515625,-1.0350368022918701,0.15845796465873718,0.9270457029342651
1771073488362050300,7.76105029296875,-1.1064094305038452,-0.49987494945526123,0.9515467286109924
1771073488371990300,7.770990234375,-1.211870551109314,-1.1922963857650757,0.8503466844558716
1771073488381930200,7.78093017578125,-1.2523505687713623,-1.7057534456253052,0.6468813419342041
1771073488391870000,7.790869873046875,-1.2182620763778687,-1.9901788234710693,0.38589176535606384
1771073488401810000,7.800809814453125,-1.1671295166015625,-2.095639944076538,0.10679268091917038
1771073488411750000,7.81075,-1.144758939743042,-2.030658721923828,-0.16165375709533691
1771073488421689900,7.82068994140625,-1.157542109489441,-1.8335850238800049,-0.3981422781944275
1771073488431629600,7.830629638671875,-1.216131567955017,-1.559812307357788,-0.5749760270118713
1771073488441569500,7.840569580078125,-1.3120052814483643,-1.1965574026107788,-0.6601971387863159
1771073488451509500,7.850509521484375,-1.4036179780960083,-0.7608645558357239,-0.6250434517860413
1771073488461449200,7.86044921875,-1.4568811655044556,-0.3326285779476166,-0.4865591824054718
1771073488471389200,7.87038916015625,-1.4835127592086792,0.035952646285295486,-0.2852243483066559
1771073488481329200,7.8803291015625,-1.5133401155471802,0.32996541261672974,-0.07856319099664688
1771073488491269000,7.89026904296875,-1.56340754032135,0.48868969082832336,0.05459476262331009
1771073488501208800,7.900208740234375,-1.6337149143218994,0.45140546560287476,0.06418213248252869
1771073488511148800,7.910148681640625,-1.7168054580688477,0.25859275460243225,-0.060453712940216064
1771073488521088800,7.9200888671875,-1.7998961210250854,0.003994738683104515,-0.2852243483066559
1771073488531028700,7.93002880859375,-1.8702034950256348,-0.2761695981025696,-0.5675191879272461
1771073488540968700,7.93996875,-1.9117487668991089,-0.6159886717796326,-0.8849677443504333
1771073488550908700,7.94990869140625,-1.839310884475708,-0.8833698630332947,-1.1800458431243896
1771073488560848600,7.9598486328125,-1.6646076440811157,-1.0591384172439575,-1.3994901180267334
1771073488570788600,7.96978857421875,-1.5058833360671997,-1.1432942152023315,-1.5741933584213257
1771073488580728600,7.979728515625,-1.3546159267425537,-1.1901657581329346,-1.6434354782104492
1771073488590668500,7.98966845703125,-1.2171968221664429,-1.1028141975402832,-1.5347785949707031
1771073488600608500,7.9996083984375,-1.1000179052352905,-0.8279761672019958,-1.2556794881820679
1771073488610548500,8.009548583984374,-1.0211883783340454,-0.35712963342666626,-0.7816371917724609
1771073488620488400,8.019488525390624,-0.9444893598556519,0.16804534196853638,-0.1627190262079239
1771073488630428200,8.02942822265625,-0.81346195936203,0.5494097471237183,0.5147886276245117
1771073488640368000,8.0393681640625,-0.6483460664749146,0.7763108611106873,1.1550121307373047
1771073488650308000,8.04930810546875,-0.4246407151222229,0.940361499786377,1.694035530090332
1771073488660248000,8.059248046875,-0.11997532099485397,0.8583361506462097,2.0636820793151855
1771073488670188000,8.06918798828125,0.20173430442810059,0.3608580529689789,2.1638166904449463
1771073488680128000,8.0791279296875,0.4701807498931885,-0.4114580750465393,1.9933745861053467
1771073488690068000,8.08906787109375,0.6427534222602844,-1.1624689102172852,1.6705996990203857
1771073488700008000,8.099008056640624,0.6693850159645081,-1.6748607158660889,1.2903006076812744
1771073488709948000,8.108947998046874,0.5085302591323853,-1.9401113986968994,0.8759130239486694
1771073488719888000,8.118887939453124,0.1825595498085022,-2.051964044570923,0.4828307330608368
1771073488729827800,8.128827880859374,-0.26272064447402954,-1.986983060836792,0.1675127148628235
1771073488739767800,8.138767822265624,-0.7410240173339844,-1.6982965469360352,-0.029561065137386322
1771073488749707500,8.14870751953125,-1.1458241939544678,-1.2370374202728271,-0.11691268533468246
1771073488759647500,8.1586474609375,-1.4025527238845825,-0.7406245470046997,-0.1435442715883255
1771073488769587500,8.16858740234375,-1.492034912109375,-0.31984540820121765,-0.1339569091796875
1771073488779527400,8.17852734375,-1.4238580465316772,-0.026897907257080078,-0.12863057851791382
1771073488789467400,8.18846728515625,-1.2321105003356934,0.1669800728559494,-0.1478053331375122
1771073488799407400,8.198407470703126,-0.9828388690948486,0.2692453861236572,-0.17976324260234833
1771073488809347300,8.208347412109376,-0.7325019240379333,0.337422251701355,-0.2191779911518097
1771073488819287300,8.218287353515626,-0.5024049878120422,0.38962018489837646,-0.24367906153202057
1771073488829227300,8.228227294921876,-0.3063964545726776,0.4109254479408264,-0.24580958485603333
1771073488839167200,8.238167236328126,-0.15512901544570923,0.4077296555042267,-0.2277000993490219
1771073488849107200,8.248107177734376,-0.047537390142679214,0.4066644012928009,-0.19361166656017303
1771073488859047200,8.258047119140626,0.03129211813211441,0.39920756220817566,-0.14460954070091248
1771073488868987100,8.267987060546876,0.09733846783638,0.38003280758857727,-0.08282424509525299
1771073488878926800,8.2779267578125,0.15166690945625305,0.3459443747997284,-0.012516847811639309
1771073488888866800,8.28786669921875,0.1910816729068756,0.2894853949546814,0.05033370852470398
1771073488898806800,8.297806884765626,0.20706062018871307,0.2181127369403839,0.09507478028535843
1771073488908746800,8.307746826171876,0.20386482775211334,0.13608743250370026,0.10892320424318314
1771073488918686700,8.317686767578126,0.1825595498085022,0.04127896577119827,0.08868319541215897
1771073488928626700,8.327626708984376,0.13781848549842834,-0.060986343771219254,0.03009369783103466
1771073488938566700,8.337566650390626,0.06964161247015,-0.1387505829334259,-0.05193160101771355
1771073488948506600,8.347506591796876,-0.008122635073959827,-0.1621863842010498,-0.1296958476305008
1771073488958446600,8.357446533203126,-0.08056056499481201,-0.12170637398958206,-0.19361166656017303
1771073488968386600,8.367386474609376,-0.14767217636108398,-0.03861580789089203,-0.2287653684616089
1771073488978326500,8.377326416015626,-0.21904483437538147,0.0774979293346405,-0.24048326909542084
1771073488988266500,8.3872666015625,-0.3106575012207031,0.21172115206718445,-0.19787272810935974
1771073488998206500,8.39720654296875,-0.41292282938957214,0.32996541261672974,-0.11478215456008911
1771073489008146200,8.407146240234376,-0.5173186659812927,0.3747064769268036,-0.027430538088083267
1771073489018086100,8.417086181640625,-0.6355628967285156,0.3683148920536041,0.04394212365150452
1771073489028026000,8.427026123046875,-0.7772429585456848,0.31505173444747925,0.06950845569372177
1771073489037966000,8.436966064453125,-0.956207275390625,0.22024326026439667,0.06205160543322563
1771073489047906000,8.446906005859375,-1.150085210800171,0.12543480098247528,0.019441060721874237
1771073489057846000,8.456845947265625,-1.2970916032791138,0.0679105594754219,0.0002663159102667123
1771073489067786000,8.466785888671875,-1.3098747730255127,0.07536740601062775,0.05139897018671036
1771073489077726000,8.476725830078125,-1.1639336347579956,0.15952323377132416,0.22503694891929626
1771073489087666000,8.486666015625,-0.9530115127563477,0.1339569091796875,0.5115928649902344
1771073489097606000,8.49660595703125,-0.864594578742981,-0.14940322935581207,0.8119972348213196
1771073489107545900,8.5065458984375,-1.073386311531067,-0.6191844940185547,0.9898962378501892
1771073489117485800,8.51648583984375,-1.571929693222046,-1.1443594694137573,0.9547425508499146
1771073489127425800,8.52642578125,-2.171673059463501,-1.443698525428772,0.7289066314697266
1771073489137365500,8.536365478515625,-2.6265406608581543,-1.346759557723999,0.406131774187088
1771073489147305500,8.546305419921875,-2.840658664703369,-1.120923638343811,-0.0007989477599039674
1771073489157245400,8.556245361328125,-2.9141619205474854,-0.9984183311462402,-0.48868969082832336
1771073489167185400,8.566185302734375,-2.9184229373931885,-0.8428898453712463,-0.9637972712516785
1771073489177125400,8.57612548828125,-2.8843345642089844,-0.635163426399231,-1.317464828491211
1771073489187065300,8.5860654296875,-2.8044397830963135,-0.44767704606056213,-1.4953638315200806
1771073489197005300,8.59600537109375,-2.643584966659546,-0.3134538233280182,-1.4815154075622559
1771073489206945300,8.6059453125,-2.4124226570129395,-0.26764747500419617,-1.2823110818862915
1771073489216885200,8.61588525390625,-2.1535634994506836,-0.27723485231399536,-0.940361499786377
1771073489226825000,8.625824951171875,-1.923466682434082,-0.2942790687084198,-0.5419528484344482
1771073489236765000,8.635764892578125,-1.760481357574463,-0.3091927766799927,-0.16378428041934967
1771073489246705000,8.645704833984375,-1.6848475933074951,-0.303866446018219,0.1387505829334259
1771073489256644600,8.65564453125,-1.667803406715393,-0.303866446018219,0.34860754013061523
1771073489266584600,8.66558447265625,-1.6624770164489746,-0.3326285779476166,0.47963494062423706
1771073489276524500,8.675524658203125,-1.635845422744751,-0.3837612271308899,0.5520728826522827
1771073489286464500,8.685464599609375,-1.5751254558563232,-0.39974018931388855,0.5978792309761047
1771073489296404200,8.695404296875,-1.4824475049972534,-0.37736964225769043,0.6554034352302551
1771073489306344200,8.70534423828125,-1.383378028869629,-0.3454117476940155,0.7310371994972229
1771073489316284200,8.7152841796875,-1.2875043153762817,-0.3464770019054413,0.8162582516670227
1771073489326224000,8.725223876953125,-1.2033483982086182,-0.42317599058151245,0.8844351172447205
1771073489336163800,8.735163818359375,-1.1458241939544678,-0.6095971465110779,0.8823046088218689
1771073489346103800,8.745103759765625,-1.1298452615737915,-0.8833698630332947,0.7491466403007507
1771073489356043800,8.755043701171875,-1.1564768552780151,-1.165664792060852,0.4498075842857361
1771073489365983500,8.7649833984375,-1.1863042116165161,-1.3563469648361206,0.005592633970081806
1771073489375923500,8.77492333984375,-1.169260025024414,-1.3531510829925537,-0.504668653011322
1771073489385863400,8.784863525390625,-1.1298452615737915,-1.1550121307373047,-0.9723193645477295
1771073489395803400,8.794803466796875,-1.152215838432312,-0.7960182428359985,-1.3270522356033325
1771073489405743000,8.8047431640625,-1.266198992729187,-0.3177148699760437,-1.5134732723236084
1771073489415683000,8.81468310546875,-1.4068137407302856,0.21491694450378418,-1.4921680688858032
1771073489425623000,8.824623046875,-1.479251742362976,0.7209171652793884,-1.3078774213790894
1771073489435562800,8.834562744140625,-1.4856432676315308,1.1555447578430176,-1.0223867893218994
1771073489445502700,8.844502685546875,-1.441967487335205,1.4666017293930054,-0.7155908346176147
1771073489455442700,8.854442626953125,-1.3684643507003784,1.6466312408447266,-0.42264336347579956
1771073489465382700,8.864382568359375,-1.2981568574905396,1.6977639198303223,-0.1531316488981247
1771073489475322400,8.874322265625,-1.266198992729187,1.5156038999557495,0.1153147891163826
1771073489485262300,8.884262451171875,-1.253415822982788,1.074584722518921,0.39121806621551514
1771073489495202300,8.894202392578125,-1.2086747884750366,0.504668653011322,0.6937529444694519
1771073489505142000,8.90414208984375,-1.0723210573196411,-0.03009369783103466,1.0218541622161865
1771073489515082000,8.91408203125,-0.83476722240448,-0.5158539414405823,1.2977573871612549
1771073489525022000,8.92402197265625,-0.5695165991783142,-1.031441569328308,1.430915355682373
1771073489534962000,8.9339619140625,-0.3862912356853485,-1.4831132888793945,1.38404381275177
1771073489544901600,8.943901611328124,-0.3639206886291504,-1.7025575637817383,1.2146668434143066
1771073489554841600,8.953841552734374,-0.4800344407558441,-1.6034880876541138,1.023984670639038
1771073489564781600,8.963781494140624,-0.6589987277984619,-1.3350416421890259,0.8439550995826721
1771073489574721300,8.97372119140625,-0.8635293245315552,-1.165664792060852,0.6309024095535278
1771073489584661200,8.9836611328125,-1.0797778367996216,-1.1187931299209595,0.35286858677864075
1771073489594601200,8.993601318359374,-1.2853736877441406,-1.0559425354003906,0.032224226742982864
1771073489604541200,9.003541259765624,-1.4195969104766846,-0.885500431060791,-0.29268118739128113
1771073489614481200,9.013481201171874,-1.467533826828003,-0.6213150024414062,-0.5920202732086182
1771073489624421000,9.023421142578124,-1.4409022331237793,-0.33369383215904236,-0.8327698707580566
1771073489634361000,9.033361083984374,-1.350354790687561,-0.07590003311634064,-0.9808415174484253
1771073489644300800,9.04330078125,-1.2203927040100098,0.14674006402492523,-1.0277130603790283
1771073489654240800,9.05324072265625,-1.060603141784668,0.3022685647010803,-0.9904288649559021
1771073489664180700,9.0631806640625,-0.8837693333625793,0.3544664680957794,-0.8913593292236328
1771073489674120700,9.07312060546875,-0.7048050761222839,0.2990727722644806,-0.7827024459838867
1771073489684060700,9.083060791015624,-0.5439502596855164,0.18508955836296082,-0.6900244951248169
1771073489694000600,9.093000732421874,-0.41824913024902344,0.06258423626422882,-0.6186518669128418
1771073489703940600,9.102940673828124,-0.34261542558670044,-0.04181159660220146,-0.5696497559547424
1771073489713880600,9.112880615234374,-0.3127880394458771,-0.09400951862335205,-0.534496009349823
1771073489723820500,9.122820556640624,-0.31385329365730286,-0.08761793375015259,-0.4876244366168976
1771073489733760500,9.132760498046874,-0.33196279406547546,-0.048203181475400925,-0.4173170328140259
1771073489743700500,9.142700439453124,-0.3490070104598999,0.013582111336290836,-0.32037803530693054
1771073489753640400,9.152640380859374,-0.3532680571079254,0.08921582996845245,-0.20639483630657196
1771073489763580400,9.162580322265624,-0.33835434913635254,0.16911059617996216,-0.08282424509525299
1771073489773520100,9.17252001953125,-0.30852699279785156,0.23089589178562164,0.03435475379228592
1771073489783460000,9.182460205078126,-0.28509119153022766,0.25859275460243225,0.1249021589756012
1771073489793400000,9.192400146484376,-0.2829606533050537,0.2468748539686203,0.16005586087703705
1771073489803340000,9.202340087890626,-0.30426591634750366,0.23089589178562164,0.14088112115859985
1771073489813280000,9.212280029296876,-0.35539859533309937,0.2756369709968567,0.09720530360937119
1771073489823220000,9.222219970703126,-0.4257059693336487,0.3960117697715759,0.07483477145433426
1771073489833160000,9.232159912109376,-0.4587291479110718,0.5451486706733704,0.11105373501777649
1771073489843100000,9.242099853515626,-0.4938828647136688,0.6356960535049438,0.1994706094264984
1771073489853039900,9.252039794921876,-0.5620597004890442,0.6282392144203186,0.3219759464263916
1771073489862979800,9.261979736328126,-0.6419544816017151,0.5408875942230225,0.4338286221027374
1771073489872919800,9.271919921875,-0.7623292803764343,0.4173170328140259,0.5179844498634338
1771073489882859800,9.28185986328125,-0.9455546140670776,0.19467693567276,0.5030707716941833
1771073489892799700,9.2917998046875,-1.1884347200393677,-0.08548741042613983,0.32091066241264343
1771073489902739500,9.301739501953126,-1.4132053852081299,-0.37736964225769043,-0.044474758207798004
1771073489912679400,9.311679443359376,-1.568733811378479,-0.5616602301597595,-0.4727107286453247
1771073489922619400,9.321619384765626,-1.6699339151382446,-0.5339633822441101,-0.7731150984764099
1771073489932559400,9.331559326171876,-1.794569730758667,-0.32517173886299133,-0.8668583035469055
1771073489942499300,9.341499267578126,-1.995904564857483,0.04980107396841049,-0.7667235136032104
1771073489952439300,9.351439208984376,-2.2387847900390625,0.5121254920959473,-0.5227781534194946
1771073489962379300,9.361379150390626,-2.4220099449157715,0.9776456952095032,-0.17550218105316162
1771073489972319200,9.3713193359375,-2.4869911670684814,1.4548838138580322,0.18455693125724792
1771073489982259200,9.38125927734375,-2.424140691757202,1.8788588047027588,0.49880969524383545
1771073489992199200,9.39119921875,-2.251567840576172,2.040778875350952,0.7597993016242981
1771073490002139100,9.40113916015625,-1.9884477853775024,1.7797892093658447,1.0591384172439575
1771073490012079000,9.4110791015625,-1.7072181701660156,1.2098731994628906,1.393631100654602
1771073490022019000,9.42101904296875,-1.5548853874206543,0.5526055097579956,1.7174713611602783
1771073490031958800,9.430958740234376,-1.588973879814148,-0.08548741042613983,1.9731346368789673
1771073490041898800,9.440898681640626,-1.7242623567581177,-0.668186604976654,2.111618757247925
1771073490051838700,9.450838623046875,-1.8787256479263306,-1.0889657735824585,2.0871176719665527
1771073490061778700,9.46077880859375,-2.0299930572509766,-1.279647946357727,1.8666082620620728
1771073490071718700,9.47071875,-2.167412042617798,-1.284974217414856,1.4820480346679688
1771073490081658600,9.48065869140625,-2.2675468921661377,-1.1102709770202637,1.0026793479919434
1771073490091598600,9.4905986328125,-2.3229405879974365,-0.839694082736969,0.508397102355957
1771073490101538600,9.50053857421875,-2.3272016048431396,-0.6255760788917542,0.05033370852470398
1771073490111478500,9.510478515625,-2.3122878074645996,-0.4956139028072357,-0.3257043659687042
1771073490121418500,9.52041845703125,-2.2867214679718018,-0.34860754013061523,-0.5643234252929688
1771073490131358500,9.5303583984375,-2.2249362468719482,-0.1771000772714615,-0.6133255362510681
1771073490141298400,9.54029833984375,-2.1152141094207764,-0.05459476262331009,-0.4822981059551239
1771073490151238100,9.550238037109375,-1.9745993614196777,-0.05352949723601341,-0.2181127369403839
1771073490161178000,9.56017822265625,-1.8297234773635864,-0.18668745458126068,0.11744531989097595
1771073490171118000,9.5701181640625,-1.714674949645996,-0.4295675754547119,0.47111284732818604
1771073490181058000,9.58005810546875,-1.6443675756454468,-0.8045403361320496,0.802409827709198
1771073490190998000,9.589998046875,-1.6156054735183716,-1.296692132949829,1.109205722808838
1771073490200938000,9.59993798828125,-1.643302321434021,-1.8218671083450317,1.393631100654602
1771073490210878000,9.6098779296875,-1.7413065433502197,-2.308692693710327,1.6205322742462158
1771073490220818000,9.61981787109375,-1.8957698345184326,-2.795518159866333,1.7270586490631104
1771073490230757600,9.629757568359375,-2.1141488552093506,-3.2045793533325195,1.652490258216858
1771073490240697600,9.639697509765625,-2.3517026901245117,-3.509244680404663,1.3211932182312012
1771073490250637600,9.649637451171875,-2.547711133956909,-3.7318849563598633,0.6841655969619751
1771073490260577500,9.65957763671875,-2.6339974403381348,-3.723362684249878,-0.16165375709533691
1771073490270517200,9.669517333984375,-2.5562331676483154,-3.345194101333618,-0.9989509582519531
1771073490280457200,9.679457275390625,-2.368746757507324,-2.541985273361206,-1.651957631111145
1771073490290397200,9.689397216796875,-2.166346788406372,-1.3925658464431763,-2.005625009536743
1771073490300337000,9.6993369140625,-1.9767298698425293,-0.19734008610248566,-2.032256603240967
1771073490310276900,9.70927685546875,-1.7785907983779907,0.739026665687561,-1.7744629383087158
1771073490320216800,9.719216796875,-1.5378412008285522,1.3004206418991089,-1.2897679805755615
1771073490330156800,9.72915673828125,-1.2672642469406128,1.4847111701965332,-0.6783066391944885
1771073490340096500,9.739096435546875,-1.0424935817718506,1.3835111856460571,-0.0636495053768158
1771073490350036500,9.749036376953125,-0.956207275390625,1.1193257570266724,0.49880969524383545
1771073490359976400,9.7589765625,-1.0808430910110474,0.7890940308570862,1.0229194164276123
1771073490369916400,9.76891650390625,-1.2853736877441406,0.30013802647590637,1.4170669317245483
1771073490379856100,9.778856201171875,-1.3397021293640137,-0.4316980838775635,1.5161365270614624
1771073490389796000,9.788796142578125,-1.1628683805465698,-1.1922963857650757,1.292431116104126
1771073490399736000,9.798736083984375,-0.8251798748970032,-1.6599470376968384,0.8663256764411926
1771073490409675800,9.80867578125,-0.48855653405189514,-1.7398418188095093,0.41465386748313904
1771073490419615700,9.81861572265625,-0.2563290596008301,-1.559812307357788,0.00985368900001049
1771073490429555700,9.8285556640625,-0.09440898895263672,-1.272191047668457,-0.33955278992652893
1771073490439495700,9.83849560546875,0.00892158318310976,-0.8801741003990173,-0.5973466038703918
1771073490449435400,9.848435302734375,0.017443692311644554,-0.4103928208351135,-0.6836329698562622
1771073490459375400,9.858375244140625,-0.02090579830110073,0.027430538088083267,-0.6058686971664429
1771073490469315300,9.8683154296875,-0.004926844500005245,0.4546012580394745,-0.40559911727905273
1771073490479255000,9.878255126953125,0.10479531437158585,0.8008119463920593,-0.1531316488981247
1771073490489195000,9.888195068359375,0.2518016993999481,1.0351699590682983,0.06205160543322563
1771073490499135000,9.898135009765625,0.3934817612171173,1.1619362831115723,0.18668745458126068
1771073490509075000,9.908074951171875,0.5436839461326599,1.1555447578430176,0.2143843024969101
1771073490519014700,9.9180146484375,0.7098650336265564,1.03730046749115,0.15046848356723785
1771073490528954600,9.92795458984375,0.8675240874290466,0.8647277355194092,0.0023968431632965803
1771073490538894600,9.93789453125,0.9900293946266174,0.663392961025238,-0.2000032514333725
1771073490548834300,9.947834228515624,1.0539451837539673,0.47484126687049866,-0.4173170328140259
1771073490558774300,9.957774169921874,1.0539451837539673,0.36618438363075256,-0.5866939425468445
1771073490568714200,9.96771435546875,0.9996167421340942,0.3608580529689789,-0.6868287324905396
1771073490578654200,9.977654296875,0.908004105091095,0.45566651225090027,-0.7198519110679626
1771073490588594000,9.987593994140624,0.7993472218513489,0.6143907904624939,-0.7113298177719116
1771073490598534000,9.997533935546874,0.6768419146537781,0.8018772006034851,-0.6729803085327148
1771073490608473900,10.007473876953124,0.560728132724762,1.0042773485183716,-0.6058686971664429
1771073490618413600,10.01741357421875,0.4456796646118164,1.1470226049423218,-0.5376918315887451
1771073490628353500,10.027353515625,0.3146522343158722,1.1736541986465454,-0.504668653011322
1771073490638293500,10.03729345703125,0.15699322521686554,1.0692583322525024,-0.5472791790962219
1771073490648233500,10.0472333984375,-0.026232117787003517,0.9084035754203796,-0.6729803085327148
1771073490658173400,10.05717333984375,-0.2275669425725937,0.8157256245613098,-0.8199867010116577
1771073490668113400,10.067113525390624,-0.4065312445163727,0.7805719375610352,-0.9286435842514038
1771073490678053400,10.077053466796874,-0.5428850054740906,0.8114646077156067,-0.9520793557167053
1771073490687993300,10.086993408203124,-0.6600639820098877,0.8945551514625549,-0.8562056422233582
1771073490697933300,10.096933349609374,-0.7633945345878601,0.9669930934906006,-0.6644582152366638
1771073490707873300,10.106873291015624,-0.8443545699119568,0.9616667628288269,-0.42370861768722534
1771073490717813000,10.11681298828125,-0.8656598925590515,0.903077244758606,-0.13608743250370026
1771073490727753000,10.1267529296875,-0.7719166874885559,0.8476835489273071,0.25912538170814514
1771073490737693000,10.13669287109375,-0.579103946685791,0.6250434517860413,0.7587340474128723
1771073490747633000,10.1466328125,-0.4203796684741974,0.2234390527009964,1.2444941997528076
1771073490757572900,10.15657275390625,-0.45979443192481995,-0.31132328510284424,1.6215975284576416
1771073490767512800,10.166512939453124,-0.6930871605873108,-0.9334372878074646,1.8634123802185059
1771073490777452800,10.176452880859374,-1.0318410396575928,-1.4863090515136719,1.936915636062622
1771073490787392800,10.186392822265624,-1.3439632654190063,-1.7632776498794556,1.8303892612457275
1771073490797332700,10.196332763671874,-1.546363353729248,-1.852759838104248,1.555551290512085
1771073490807272700,10.206272705078124,-1.6699339151382446,-1.8793914318084717,1.1571426391601562
1771073490817212700,10.216212646484376,-1.7445024251937866,-1.8005619049072266,0.7555382251739502
1771073490827152600,10.226152587890626,-1.8041571378707886,-1.6034880876541138,0.4306328296661377
1771073490837092600,10.236092529296876,-1.8904434442520142,-1.3190627098083496,0.1952095627784729
1771073490847032300,10.2460322265625,-2.0097529888153076,-0.9621993899345398,0.026897907257080078
1771073490856972300,10.25597216796875,-2.161020517349243,-0.5627255439758301,-0.08495477586984634
1771073490866912300,10.265912353515626,-2.296308994293213,-0.21971063315868378,-0.16058848798274994
1771073490876852200,10.275852294921876,-2.368746757507324,-0.006657897960394621,-0.24048326909542084
1771073490886792200,10.285792236328126,-2.3676815032958984,0.1009337306022644,-0.33955278992652893
1771073490896732200,10.295732177734376,-2.2888519763946533,0.09986846894025803,-0.4407528340816498
1771073490906672000,10.305672119140626,-2.1301279067993164,0.03914843872189522,-0.5249086618423462
1771073490916612000,10.315612060546876,-1.9053571224212646,-0.06737792491912842,-0.5781718492507935
1771073490926552000,10.325552001953126,-1.626258134841919,-0.20266640186309814,-0.5984118580818176
1771073490936492000,10.335491943359376,-1.3045485019683838,-0.3645864725112915,-0.5792371034622192
1771073490946432000,10.345431884765626,-0.9668599367141724,-0.5179844498634338,-0.513190746307373
1771073490956372000,10.3553720703125,-0.6589987277984619,-0.6383592486381531,-0.3970770239830017
1771073490966312000,10.36531201171875,-0.4235754609107971,-0.7299718856811523,-0.251135915517807
1771073490976251600,10.375251708984376,-0.279764860868454,-0.7832350730895996,-0.12117373943328857
1771073490986191600,10.385191650390626,-0.2275669425725937,-0.8002793192863464,-0.015712639316916466
1771073490996131600,10.395131591796876,-0.2510027587413788,-0.7502118945121765,0.0684431865811348
1771073491006071600,10.405071533203126,-0.3213101327419281,-0.6117276549339294,0.12596742808818817
1771073491016011500,10.415011474609376,-0.40440070629119873,-0.425306499004364,0.1579253375530243
1771073491025951500,10.424951416015626,-0.4704470634460449,-0.22503694891929626,0.16325165331363678
1771073491035891500,10.434891357421876,-0.5226449966430664,-0.05779055133461952,0.11424952745437622
1771073491045831400,10.44483154296875,-0.5695165991783142,0.03701791167259216,-0.027430538088083267
1771073491055771400,10.454771484375,-0.6174534559249878,0.08495477586984634,-0.27244117856025696
1771073491065711400,10.46471142578125,-0.6653903126716614,0.13715268671512604,-0.5834981799125671
1771073491075651300,10.4746513671875,-0.6994787454605103,0.16804534196853638,-0.8562056422233582
1771073491085591300,10.48459130859375,-0.6717818975448608,0.17550218105316162,-0.9712541103363037
1771073491095531000,10.494531005859375,-0.5567334294319153,0.2575274705886841,-0.8317046165466309
1771073491105471000,10.504470947265625,-0.3916175365447998,0.38109806180000305,-0.439687579870224
1771073491115411000,10.514410888671875,-0.23289325833320618,0.48336338996887207,0.12596742808818817
1771073491125351000,10.524350830078125,-0.10506162792444229,0.6005423665046692,0.7715172171592712
1771073491135291000,10.534290771484375,-0.004926844500005245,0.7880287766456604,1.4394375085830688
1771073491145230800,10.54423095703125,0.13675321638584137,0.8594014644622803,2.0082883834838867
1771073491155170800,10.5541708984375,0.3370227813720703,0.6335655450820923,2.2959094047546387
1771073491165110800,10.56411083984375,0.6342313289642334,0.09880319982767105,2.2085578441619873
1771073491175050800,10.57405078125,1.0496841669082642,-0.43808966875076294,1.8005619049072266
1771073491184990700,10.58399072265625,1.4491580724716187,-0.7374287843704224,1.2136015892028809
1771073491194930700,10.5939306640625,1.646231770515442,-0.8801741003990173,0.5808349847793579
1771073491204870400,10.603870361328125,1.566336989402771,-0.9685909748077393,0.011984216049313545
1771073491214810400,10.613810302734375,1.2446273565292358,-0.9728519916534424,-0.4354265034198761
1771073491224750300,10.623750244140625,0.7801724672317505,-0.8556730151176453,-0.7294392585754395
1771073491234690300,10.633690185546875,0.2954775094985962,-0.46578651666641235,-0.8295740485191345
1771073491244630000,10.643630126953125,-0.05392897129058838,0.10626004636287689,-0.7976161241531372
1771073491254570000,10.653570068359375,-0.17430377006530762,0.5408875942230225,-0.739026665687561
1771073491264510000,10.663510009765625,-0.06351634114980698,0.7315698266029358,-0.6953508257865906
1771073491274449700,10.67344970703125,0.24967116117477417,0.8093340396881104,-0.6399571299552917
1771073491284389600,10.6833896484375,0.6992124319076538,0.8253130316734314,-0.563258171081543
1771073491294329600,10.69332958984375,1.1775157451629639,0.7347655892372131,-0.4972118139266968
1771073491304269600,10.70326953125,1.5705981254577637,0.5760413408279419,-0.4641886353492737
1771073491314209300,10.713209228515625,1.8198697566986084,0.4173170328140259,-0.45140546560287476
1771073491324149200,10.723149169921875,1.943440318107605,0.29694223403930664,-0.4247738718986511
1771073491334089200,10.733089111328125,1.9892467260360718,0.24048326909542084,-0.35233595967292786
1771073491344029000,10.74302880859375,1.9785940647125244,0.23196116089820862,-0.2330264151096344
1771073491353969000,10.752968994140625,1.896568775177002,0.25859275460243225,-0.07962846010923386
1771073491363908900,10.762908935546875,1.742105484008789,0.2884201407432556,0.08016108721494675
1771073491373848800,10.772848876953125,1.532248616218567,0.2692453861236572,0.19734008610248566
1771073491383788500,10.78278857421875,1.297890543937683,0.20213377475738525,0.24101589620113373
1771073491393728500,10.792728515625,1.0539451837539673,0.148870587348938,0.20692746341228485
1771073491403668500,10.80266845703125,0.832370400428772,0.11478215456008911,0.10466215014457703
1771073491413608400,10.8126083984375,0.6448839902877808,0.10519478470087051,-0.04234423115849495
1771073491423548200,10.822548095703125,0.5042691826820374,0.110521100461483,-0.21065588295459747
1771073491433488100,10.832488037109375,0.44354915618896484,0.09454214572906494,-0.40986019372940063
1771073491443428000,10.842427978515625,0.4307659864425659,0.07643266767263412,-0.5962813496589661
1771073491453367800,10.852367919921875,0.4137217700481415,-0.005592633970081806,-0.7347655892372131
1771073491463307800,10.862307861328125,0.3657849133014679,-0.09827057272195816,-0.8253130316734314
1771073491473247700,10.872247802734375,0.2613890767097473,-0.14194637537002563,-0.8402267098426819
1771073491483187700,10.882187744140625,0.08775109052658081,-0.12064110487699509,-0.7091992497444153
1771073491493127400,10.89212744140625,-0.14554163813591003,-0.11638005077838898,-0.44288337230682373
1771073491503067400,10.9020673828125,-0.3969438672065735,-0.1525990217924118,-0.11797794699668884
1771073491513007400,10.91200732421875,-0.6217144727706909,-0.08335687965154648,0.2623211741447449
1771073491522947000,10.921947021484375,-0.7207840085029602,0.10519478470087051,0.7012097835540771
1771073491532887000,10.931886962890625,-0.6099966168403625,0.2884201407432556,1.1901657581329346
1771073491542827000,10.941826904296875,-0.3532680571079254,0.2330264151096344,1.6237281560897827
1771073491552767000,10.95176708984375,-0.11464899778366089,-0.16538217663764954,1.8868482112884521
1771073491562706700,10.961706787109375,-0.08056056499481201,-0.9408941268920898,1.8229323625564575
1771073491572646700,10.971646728515625,-0.392682820558548,-1.983787178993225,1.3776521682739258
1771073491582586600,10.981586669921874,-0.9423588514328003,-2.6783390045166016,0.7342329621315002
1771073491592526300,10.9915263671875,-1.437706470489502,-2.4919180870056152,0.19414429366588593
1771073491602466300,11.00146630859375,-1.7626118659973145,-1.744102954864502,-0.18402428925037384
1771073491612406300,11.01140625,-1.970338225364685,-0.9419593811035156,-0.45247071981430054
1771073491622346200,11.02134619140625,-2.017209768295288,-0.3400854170322418,-0.6612623929977417
1771073491632286000,11.031285888671874,-1.8765950202941895,0.04660528525710106,-0.7954856157302856
1771073491642226000,11.041225830078124,-1.6017570495605469,0.2181127369403839,-0.8966856598854065
1771073491652166000,11.051165771484374,-1.2704600095748901,0.18935060501098633,-0.9989509582519531
1771073491662105900,11.06110595703125,-0.9551420211791992,0.060453712940216064,-1.074584722518921
1771073491672045800,11.0710458984375,-0.6621944904327393,-0.09294424951076508,-1.1097383499145508
1771073491681985800,11.08098583984375,-0.4022701680660248,-0.24527695775032043,-1.1278479099273682
1771073491691925800,11.09092578125,-0.17856481671333313,-0.34860754013061523,-1.1299784183502197
1771073491701865700,11.10086572265625,0.006791055668145418,-0.37630438804626465,-1.1012163162231445
1771073491711805400,11.110805419921874,0.14847111701965332,-0.3091927766799927,-1.0181257724761963
1771073491721745400,11.120745361328124,0.23795326054096222,-0.18455693125724792,-0.8636624813079834
1771073491731685400,11.130685302734374,0.3039996027946472,0.013582111336290836,-0.6218476295471191
1771073491741625300,11.140625244140624,0.35832804441452026,0.2948117256164551,-0.2948117256164551
1771073491751565300,11.1505654296875,0.39135122299194336,0.5984118580818176,0.056725289672613144
1771073491761505300,11.16050537109375,0.39667755365371704,0.8242477178573608,0.35286858677864075
1771073491771445200,11.1704453125,0.3753722608089447,0.9467530846595764,0.5414202213287354
1771073491781385200,11.18038525390625,0.32530489563941956,0.9169256687164307,0.592552900314331
1771073491791325200,11.1903251953125,0.22303956747055054,0.7922898530960083,0.5243760347366333
1771073491801265200,11.20026513671875,0.06751108169555664,0.6484792232513428,0.37204334139823914
1771073491811205000,11.210205078125,-0.0954742506146431,0.48016759753227234,0.16112112998962402
1771073491821145000,11.22014501953125,-0.2275669425725937,0.28735485672950745,-0.07217161357402802
1771073491831085000,11.2300849609375,-0.29574382305145264,0.13715268671512604,-0.29161593317985535
1771073491841024800,11.240024658203126,-0.2893522381782532,0.11478215456008911,-0.4301002025604248
1771073491850964700,11.24996484375,-0.25845959782600403,0.12330426275730133,-0.4684496819972992
1771073491860904700,11.25990478515625,-0.20626167953014374,0.1669800728559494,-0.3821633458137512
1771073491870844700,11.2698447265625,-0.0997353047132492,0.261788547039032,-0.14247901737689972
1771073491880784600,11.27978466796875,0.06431528925895691,0.3406180441379547,0.21331904828548431
1771073491890724600,11.289724609375,0.2613890767097473,0.3544664680957794,0.6000097393989563
1771073491900664600,11.29966455078125,0.42970073223114014,0.26818013191223145,0.9462204575538635
1771073491910604500,11.3096044921875,0.5490102767944336,0.20639483630657196,1.225319504737854
1771073491920544500,11.31954443359375,0.6640587449073792,0.19148114323616028,1.4351764917373657
1771073491930484500,11.329484375,0.7961513996124268,0.09347688406705856,1.5768564939498901
1771073491940424400,11.339424560546876,0.9676588773727417,-0.029028434306383133,1.6588817834854126
1771073491950364400,11.349364501953126,1.1860378980636597,-0.1579253375530243,1.6951007843017578
1771073491960304400,11.359304443359376,1.4129390716552734,-0.3091927766799927,1.6386418342590332
1771073491970244000,11.369244140625,1.5674022436141968,-0.4764391779899597,1.4362417459487915
1771073491980184000,11.37918408203125,1.6217306852340698,-0.5392897129058838,1.128380537033081
1771073491990124000,11.3891240234375,1.5961644649505615,-0.416784405708313,0.8226498365402222
1771073492000064000,11.39906396484375,1.4832464456558228,-0.3123885691165924,0.5403549671173096
1771073492010004000,11.40900390625,1.2584757804870605,-0.33369383215904236,0.21331904828548431
1771073492019944000,11.41894384765625,0.9452883005142212,-0.36778226494789124,-0.16165375709533691
1771073492029884000,11.4288837890625,0.6267744898796082,-0.2836264371871948,-0.5227781534194946
1771073492039824000,11.438823974609376,0.38815543055534363,-0.09294424951076508,-0.8221172094345093
1771073492049763800,11.448763916015626,0.2581932842731476,0.05512739345431328,-1.04475736618042
1771073492059703800,11.458703857421876,0.21132168173789978,0.15526217222213745,-1.1789805889129639
1771073492069643800,11.468643798828126,0.219843789935112,0.2852243483066559,-1.2194606065750122
1771073492079583700,11.478583740234376,0.28375959396362305,0.4439486265182495,-1.1800458431243896
1771073492089523500,11.4885234375,0.3988080620765686,0.5696497559547424,-1.0809762477874756
1771073492099463400,11.49846337890625,0.5436839461326599,0.5856286883354187,-0.9595362544059753
1771073492109403400,11.5084033203125,0.6789724230766296,0.4727107286453247,-0.8530098795890808
1771073492119343400,11.51834326171875,0.7780419588088989,0.29694223403930664,-0.7667235136032104
1771073492129283300,11.528283447265625,0.8653935790061951,0.12330426275730133,-0.6783066391944885
1771073492139223300,11.538223388671875,0.9602020382881165,-0.024767380207777023,-0.563258171081543
1771073492149163300,11.548163330078125,1.0539451837539673,-0.14194637537002563,-0.41944757103919983
1771073492159103200,11.558103271484375,1.1285136938095093,-0.22716747224330902,-0.26818013191223145
1771073492169043200,11.568043212890625,1.1743199825286865,-0.2857569754123688,-0.12223900109529495
1771073492178983000,11.57798291015625,1.1817768812179565,-0.3326285779476166,-0.008255792781710625
1771073492188923000,11.5879228515625,1.1359704732894897,-0.3656517565250397,0.05779055133461952
1771073492198862800,11.59786279296875,1.0358357429504395,-0.36671701073646545,0.06737792491912842
1771073492208802800,11.607802734375,0.9048082828521729,-0.3304980397224426,0.031158961355686188
1771073492218742500,11.617742431640625,0.7631282210350037,-0.2697780132293701,-0.03808317333459854
1771073492228682500,11.6276826171875,0.6427534222602844,-0.18349166214466095,-0.10306425392627716
1771073492238622500,11.63762255859375,0.5777723789215088,-0.08335687965154648,-0.12330426275730133
1771073492248562200,11.647562255859375,0.560728132724762,0.0050600022077560425,-0.09454214572906494
1771073492258502100,11.657502197265625,0.560728132724762,0.027430538088083267,-0.05299686640501022
1771073492268442000,11.667442138671875,0.5287702679634094,-0.036485280841588974,-0.03169159218668938
1771073492278382000,11.677382080078125,0.43928807973861694,-0.16538217663764954,-0.02636527456343174
1771073492288321800,11.68732177734375,0.30186909437179565,-0.34434646368026733,-0.018908429890871048
1771073492298261800,11.69726171875,0.14314480125904083,-0.4636560082435608,0.0034621069207787514
1771073492308201700,11.70720166015625,-0.02090579830110073,-0.4210454523563385,0.06950845569372177
1771073492318141400,11.717141357421875,-0.14447638392448425,-0.2090579867362976,0.2143843024969101
1771073492328081400,11.727081298828125,-0.17110797762870789,0.0636495053768158,0.4487423002719879
1771073492338021400,11.737021484375,-0.10612688958644867,0.1712411344051361,0.7044056057929993
1771073492347961300,11.74696142578125,-0.024101590737700462,0.009321057237684727,0.86952143907547
1771073492357901000,11.756901123046875,-0.05712476372718811,-0.4530033767223358,0.8492814302444458
1771073492367841000,11.766841064453125,-0.2829606533050537,-1.086835265159607,0.6149234175682068
1771073492377781000,11.776781005859375,-0.624910295009613,-1.565138578414917,0.2644517123699188
1771073492387720700,11.786720703125,-0.9050745964050293,-1.6343806982040405,-0.07217161357402802
1771073492397660700,11.79666064453125,-1.0669946670532227,-1.4650038480758667,-0.3225085735321045
1771073492407600600,11.8066005859375,-1.144758939743042,-1.2775174379348755,-0.4684496819972992
1771073492417540600,11.81654052734375,-1.1554116010665894,-1.1997531652450562,-0.517451822757721
1771073492427480300,11.826480224609375,-1.1309105157852173,-1.1273152828216553,-0.47590652108192444
1771073492437420300,11.836420166015625,-1.07764732837677,-0.9813741445541382,-0.4013380706310272
1771073492447360300,11.8463603515625,-0.9902957081794739,-0.7768434882164001,-0.33848753571510315
1771073492457300000,11.856300048828125,-0.8443545699119568,-0.5531381368637085,-0.28735485672950745
1771073492467240000,11.866239990234375,-0.6344976425170898,-0.39974018931388855,-0.24580958485603333
1771073492477180000,11.876179931640625,-0.4235754609107971,-0.3613906800746918,-0.2181127369403839
1771073492487120000,11.886119873046875,-0.24674169719219208,-0.34434646368026733,-0.1957421898841858
1771073492497059600,11.8960595703125,-0.09760478138923645,-0.2697780132293701,-0.1531316488981247
1771073492506999600,11.90599951171875,0.020639482885599136,-0.1579253375530243,-0.08175898343324661
1771073492516939500,11.915939453125,0.10479531437158585,-0.03861580789089203,0.0034621069207787514
1771073492526879500,11.92587939453125,0.15699322521686554,0.1296958476305008,0.08868319541215897
1771073492536819200,11.935819091796875,0.1921469271183014,0.3278348743915558,0.1675127148628235
1771073492546759200,11.94575927734375,0.22090904414653778,0.4673844277858734,0.23675484955310822
1771073492556699100,11.95569921875,0.23795326054096222,0.5462139248847961,0.2761695981025696
1771073492566638800,11.965638916015624,0.23049642145633698,0.6026729345321655,0.2751043438911438
1771073492576578800,11.975578857421874,0.17829850316047668,0.6229129433631897,0.23462431132793427
1771073492586518800,11.985518798828124,0.08775109052658081,0.6037381887435913,0.14620743691921234
1771073492596458800,11.995458740234374,-0.03262370079755783,0.5749760270118713,-0.007190529722720385
1771073492606398500,12.0053984375,-0.17856481671333313,0.5462139248847961,-0.23622220754623413
1771073492616338400,12.01533837890625,-0.33196279406547546,0.5483444333076477,-0.5163865685462952
1771073492626278400,12.0252783203125,-0.4235754609107971,0.6005423665046692,-0.7869635224342346
1771073492636218000,12.035218017578124,-0.4065312445163727,0.6729803085327148,-0.9680583477020264
1771073492646158000,12.045157958984374,-0.3170490860939026,0.8093340396881104,-1.0181257724761963
1771073492656098000,12.05509814453125,-0.19134798645973206,0.9776456952095032,-0.9392961859703064
1771073492666038000,12.0650380859375,-0.051798444241285324,1.0799109935760498,-0.7731150984764099
1771073492675978000,12.07497802734375,0.08029424399137497,1.061801552772522,-0.571780264377594
1771073492685918000,12.08491796875,0.19960378110408783,0.9542099237442017,-0.3693801760673523
1771073492695858000,12.09485791015625,0.31571751832962036,0.7592666745185852,-0.17869797348976135
1771073492705798000,12.1047978515625,0.43822282552719116,0.5110602378845215,0.004527370445430279
1771073492715737900,12.11473779296875,0.5554018020629883,0.3459443747997284,0.19840535521507263
1771073492725677800,12.124677734375,0.6512755751609802,0.3225085735321045,0.3976096510887146
1771073492735617800,12.13461767578125,0.7812377214431763,0.21704746782779694,0.6000097393989563
1771073492745557800,12.144557861328124,0.9825725555419922,-0.036485280841588974,0.8066709041595459
1771073492755497500,12.15449755859375,1.183907389640808,-0.34328120946884155,0.9643298983573914
1771073492765437400,12.1644375,1.3277180194854736,-0.613858163356781,1.0112015008926392
1771073492775377400,12.17437744140625,1.3511537313461304,-0.8620645999908447,0.9281109571456909
1771073492785317400,12.1843173828125,1.25101900100708,-1.0282456874847412,0.7459508776664734
1771073492795257300,12.19425732421875,1.0869684219360352,-1.042094111442566,0.5211802124977112
1771073492805197300,12.204197265625,0.9154609441757202,-0.9504814743995667,0.2878875136375427
1771073492815137300,12.21413720703125,0.7322356104850769,-0.8578035235404968,0.024767380207777023
1771073492825077200,12.2240771484375,0.5138565301895142,-0.7992140650749207,-0.27350643277168274
1771073492835017200,12.234017333984376,0.294412225484848,-0.680969774723053,-0.5781718492507935
1771073492844957200,12.243957275390626,0.12290479242801666,-0.48070022463798523,-0.8508793115615845
1771073492854897200,12.253897216796876,0.024900536984205246,-0.23995064198970795,-1.061801552772522
1771073492864837000,12.263837158203126,0.024900536984205246,0.040213704109191895,-1.2034815549850464
1771073492874777000,12.273777099609376,0.11757847666740417,0.3779022693634033,-1.2737890481948853
1771073492884716800,12.283716796875,0.28375959396362305,0.7283740043640137,-1.2823110818862915
1771073492894656800,12.29365673828125,0.4914860129356384,1.0127993822097778,-1.242896318435669
1771073492904596700,12.3035966796875,0.7173219323158264,1.2066774368286133,-1.163001537322998
1771073492914536700,12.31353662109375,0.9506146311759949,1.3153343200683594,-1.041561484336853
1771073492924476700,12.3234765625,1.1785811185836792,1.3036164045333862,-0.8764456510543823
1771073492934416600,12.333416748046876,1.3756548166275024,1.1970900297164917,-0.6815024018287659
1771073492944356600,12.343356689453126,1.5152044296264648,1.054344654083252,-0.46631917357444763
1771073492954296600,12.353296630859376,1.5855118036270142,0.911599338054657,-0.23515695333480835
1771073492964236500,12.363236572265626,1.5876423120498657,0.777376115322113,-0.007190529722720385
1771073492974176500,12.373176513671876,1.5290528535842896,0.6719150543212891,0.20373167097568512
1771073492984116500,12.383116455078126,1.4076128005981445,0.563258171081543,0.38056543469429016
1771073492994056400,12.393056396484376,1.2382358312606812,0.372575968503952,0.481765478849411
1771073493003996400,12.402996337890626,1.0400967597961426,0.1009337306022644,0.4647212624549866
1771073493013936000,12.41293603515625,0.8249135613441467,-0.1430116444826126,0.3219759464263916
1771073493023876000,12.4228759765625,0.6246439814567566,-0.22503694891929626,0.10785794258117676
1771073493033816000,12.432816162109376,0.47124600410461426,-0.18455693125724792,-0.07643266767263412
1771073493043756000,12.442756103515626,0.3849596381187439,-0.09507478028535843,-0.17017586529254913
1771073493053696000,12.452696044921876,0.350871205329895,0.024234747514128685,-0.18722008168697357
1771073493063636000,12.462635986328126,0.3572627902030945,0.1627190262079239,-0.13608743250370026
1771073493073576000,12.472575927734376,0.4030691385269165,0.24367906153202057,-0.030626330524683
1771073493083516000,12.482515869140625,0.4446144104003906,0.20319904386997223,0.10785794258117676
1771073493093456000,12.492455810546875,0.42863544821739197,0.07430213689804077,0.25912538170814514
1771073493103395800,12.502395751953125,0.3572627902030945,-0.04181159660220146,0.40932756662368774
