time,seconds_elapsed,z,y,x
1771073910438487800,0.07748779296875,0,0,0
1771073910448403000,0.08740283203125,0.06946468353271484,-0.02158522605895996,0.0415516197681427
1771073910458320100,0.097320068359375,0.1208486557006836,-0.014981985092163086,0.04499459266662598
1771073910468240100,0.107240234375,0.0990438461303711,0.0203402042388916,0.020291119813919067
1771073910478163500,0.11716357421875,0.0942697525024414,0.043440818786621094,-0.007907360792160034
1771073910488091100,0.127091064453125,0.1427621841430664,0.06100344657897949,-0.016690880060195923
1771073910498023000,0.13702294921875,0.16867828369140625,0.0800330638885498,-0.0130729079246521
1771073910507959300,0.146959228515625,0.11796092987060547,0.0780801773071289,-0.010706484317779541
1771073910517900000,0.156900146484375,0.07504940032958984,0.06200575828552246,-0.02182793617248535
1771073910527845000,0.16684521484375,0.0006399154663085938,0.06150174140930176,-0.027869582176208496
1771073910537794000,0.1767939453125,-0.01945209503173828,0.05163741111755371,-0.04680502414703369
1771073910547746300,0.186746337890625,0.018342971801757812,0.03361368179321289,-0.04815858602523804
1771073910557701400,0.196701416015625,0.03269767761230469,0.021076679229736328,-0.05671858787536621
1771073910567658500,0.206658447265625,0.036911964416503906,0.019413471221923828,-0.08446058630943298
1771073910577617000,0.216616943359375,0.11925506591796875,0.03144526481628418,-0.07134166359901428
1771073910587575800,0.226575927734375,0.1793813705444336,0.030919790267944336,-0.07624861598014832
1771073910597527800,0.23652783203125,0.18316936492919922,0.042814016342163086,-0.08696609735488892
1771073910607467800,0.2464677734375,0.12006950378417969,0.03947877883911133,-0.0668196976184845
1771073910617407700,0.25640771484375,0.05189323425292969,0.024387359619140625,-0.000510483980178833
1771073910627347700,0.26634765625,0.019277572631835938,0.011930227279663086,0.017611294984817505
1771073910637287700,0.27628759765625,-0.023126602172851562,0.013674259185791016,0.06302610039710999
1771073910647228000,0.286227783203125,-0.054732322692871094,0.018079280853271484,0.09840881824493408
1771073910657168000,0.29616796875,-0.08552074432373047,0.0049898624420166016,0.05316910147666931
1771073910667107800,0.30610791015625,-0.10886764526367188,-0.015354394912719727,-0.013083040714263916
1771073910677047800,0.3160478515625,-0.10684013366699219,-0.0355527400970459,-0.04984372854232788
1771073910686987800,0.32598779296875,-0.017907142639160156,-0.04267096519470215,-0.060542285442352295
1771073910696927700,0.335927734375,0.03087902069091797,-0.005941867828369141,-0.05696269869804382
1771073910706867700,0.34586767578125,0.057494163513183594,0.02874922752380371,-0.07230272889137268
1771073910716807700,0.3558076171875,0.02112579345703125,0.04316401481628418,-0.05752909183502197
1771073910726748000,0.365747802734375,-0.020882606506347656,0.024576187133789062,0.026277393102645874
1771073910736687900,0.37568798828125,-0.057145118713378906,-0.002203702926635742,0.06414735317230225
1771073910746627800,0.3856279296875,-0.09029006958007812,-0.0460817813873291,0.03173321485519409
1771073910756567800,0.39556787109375,-0.06945323944091797,-0.07857370376586914,-0.002113848924636841
1771073910766507800,0.4055078125,-0.047199249267578125,-0.06082415580749512,-0.01641613245010376
1771073910776447700,0.41544775390625,-0.0093536376953125,-0.01330256462097168,-0.014637231826782227
1771073910786387700,0.4253876953125,0.08117103576660156,0.02088332176208496,-0.004758298397064209
1771073910796327700,0.43532763671875,0.11849403381347656,0.046266794204711914,-0.015089839696884155
1771073910806268000,0.445267822265625,0.16691207885742188,0.03766131401062012,-0.03303420543670654
1771073910816208000,0.455207763671875,0.11390113830566406,0.02690434455871582,0.005919277667999268
1771073910826147800,0.46514794921875,0.01998424530029297,0.03565859794616699,0.0849648118019104
1771073910836087800,0.475087890625,-0.039488792419433594,0.0010187625885009766,0.0704067051410675
1771073910846027800,0.48502783203125,-0.04216766357421875,0.008503198623657227,0.04554292559623718
1771073910855967700,0.4949677734375,-0.0523529052734375,0.014683246612548828,0.04782909154891968
1771073910865907700,0.50490771484375,-0.018129348754882812,0.014364242553710938,0.04737645387649536
1771073910875847700,0.51484765625,0.08823776245117188,0.006384849548339844,0.07103043794631958
1771073910885788000,0.524787841796875,0.1862335205078125,-0.010598421096801758,0.06758502125740051
1771073910895727900,0.534727783203125,0.19661903381347656,-0.043985843658447266,-0.007818996906280518
1771073910905667800,0.544667724609375,0.1139688491821289,-0.057734012603759766,-0.05086526274681091
1771073910915607800,0.55460791015625,0.024201393127441406,-0.04906749725341797,-0.060093432664871216
1771073910925547800,0.5645478515625,0.08676338195800781,-0.02510213851928711,-0.023965567350387573
1771073910935487700,0.57448779296875,0.08969593048095703,-0.004720449447631836,-0.03373837471008301
1771073910945427700,0.584427734375,0.031594276428222656,0.019765138626098633,0.028254777193069458
1771073910955367700,0.59436767578125,-0.05144500732421875,0.02075648307800293,0.028675615787506104
1771073910965308000,0.604307861328125,-0.14050769805908203,0.013553857803344727,-0.020304322242736816
1771073910975248000,0.614247802734375,-0.14638042449951172,0.02463388442993164,-0.06477060914039612
1771073910985187800,0.624187744140625,-0.06783008575439453,0.0504918098449707,-0.05848193168640137
1771073910995127800,0.6341279296875,-0.061618804931640625,0.06273293495178223,-0.05971497297286987
1771073911005067800,0.64406787109375,-0.10303497314453125,0.021796703338623047,-0.059326350688934326
1771073911015007700,0.6540078125,-0.07586479187011719,0.006048679351806641,-0.055722951889038086
1771073911024947700,0.66394775390625,-0.0022878646850585938,-0.0018031597137451172,-0.038897693157196045
1771073911034887700,0.6738876953125,0.08637523651123047,0.021460294723510742,-0.01269349455833435
1771073911044828000,0.683827880859375,0.10068035125732422,0.05581974983215332,-0.0029531121253967285
1771073911054767900,0.693767822265625,0.09144306182861328,0.0654909610748291,-0.0074776411056518555
1771073911064707800,0.703707763671875,0.06858348846435547,0.06943750381469727,-0.007101207971572876
1771073911074647800,0.713647705078125,0.0674285888671875,0.03996872901916504,-0.024846553802490234
1771073911084587800,0.723587890625,0.0781850814819336,-0.022336959838867188,-0.0390813946723938
1771073911094527700,0.73352783203125,0.023001670837402344,-0.0533597469329834,-0.020368456840515137
1771073911104467700,0.7434677734375,-0.024120330810546875,-0.0651249885559082,0.018189072608947754
1771073911114407700,0.75340771484375,-0.0421600341796875,-0.03912234306335449,0.03476661443710327
1771073911124348000,0.763347900390625,-0.06930160522460938,-0.02071666717529297,0.016488075256347656
1771073911134288000,0.773287841796875,-0.0653848648071289,-0.02144145965576172,-0.04868894815444946
1771073911144227800,0.783227783203125,-0.0402984619140625,-0.022233963012695312,-0.03307726979255676
1771073911154167800,0.793167724609375,-0.08864307403564453,-0.0488133430480957,-0.02746349573135376
1771073911164107800,0.803107666015625,-0.13633441925048828,-0.05564260482788086,-0.02546176314353943
1771073911174047700,0.8130478515625,-0.13180065155029297,-0.040232181549072266,-0.02188873291015625
1771073911183987700,0.82298779296875,-0.14882373809814453,-0.0031332969665527344,-0.014212876558303833
1771073911193927700,0.832927734375,-0.03873634338378906,0.05067729949951172,0.029708385467529297
1771073911203868000,0.842867919921875,0.10486793518066406,0.06818366050720215,0.05415701866149902
1771073911213807900,0.852807861328125,0.16621017456054688,0.04717111587524414,0.037280529737472534
1771073911223747800,0.862747802734375,0.15619945526123047,0.02801990509033203,0.040925443172454834
1771073911233687800,0.872687744140625,0.17478656768798828,0.0039026737213134766,0.06255209445953369
1771073911243627800,0.882627685546875,0.08967018127441406,0.014917373657226562,0.08273020386695862
1771073911253567700,0.892567626953125,0.0035114288330078125,0.026001691818237305,0.0484539270401001
1771073911263507700,0.9025078125,0.01751708984375,0.03490090370178223,0.0031176209449768066
1771073911273447700,0.91244775390625,0.05013561248779297,0.022362709045410156,-0.0006111860275268555
1771073911283388000,0.922387939453125,0.10381507873535156,-0.0027763843536376953,0.017364531755447388
1771073911293328000,0.932327880859375,0.13401317596435547,-0.04151606559753418,0.006281673908233643
1771073911303267800,0.942267822265625,0.16008663177490234,-0.07036542892456055,0.015650302171707153
1771073911313207800,0.952207763671875,0.0854482650756836,-0.05625033378601074,0.0032606124877929688
1771073911323147800,0.962147705078125,-0.029664039611816406,-0.03210806846618652,-0.02123209834098816
1771073911333087700,0.972087646484375,-0.1994647979736328,0.020253658294677734,-0.06995919346809387
1771073911343027700,0.98202783203125,-0.28282928466796875,0.018157958984375,-0.1103137731552124
1771073911352967700,0.9919677734375,-0.21123695373535156,-0.0007562637329101562,-0.08190110325813293
1771073911362908000,1.001907958984375,-0.21579837799072266,-0.017209291458129883,0.018928706645965576
1771073911372847900,1.011847900390625,-0.20318603515625,-0.03182268142700195,0.047551870346069336
1771073911382787800,1.021787841796875,-0.10933494567871094,-0.015697717666625977,-0.006290078163146973
1771073911392727800,1.031727783203125,0.09598636627197266,0.023713350296020508,-0.0669775903224945
1771073911402667800,1.041667724609375,0.26591968536376953,0.05544567108154297,-0.07296572625637054
1771073911412607700,1.051607666015625,0.2979612350463867,0.05721449851989746,-0.04377293586730957
1771073911422547700,1.061547607421875,0.23916149139404297,0.034209489822387695,0.0006799995899200439
1771073911432487700,1.07148779296875,0.17090702056884766,-0.0009245872497558594,-0.013423949480056763
1771073911442428000,1.081427978515625,0.07180404663085938,-0.014172554016113281,-0.03776586055755615
1771073911452368000,1.091367919921875,-0.04900646209716797,0.0077533721923828125,-0.027201563119888306
1771073911462307800,1.101307861328125,-0.1139984130859375,0.049001455307006836,0.004109025001525879
1771073911472247800,1.111247802734375,-0.16698741912841797,0.07042503356933594,0.07479733228683472
1771073911482187800,1.121187744140625,-0.1424245834350586,0.035045623779296875,0.10460042953491211
1771073911492127700,1.131127685546875,-0.057799339294433594,0.006630420684814453,0.12321528792381287
1771073911502067700,1.141067626953125,0.04625701904296875,-0.022936105728149414,0.09796133637428284
1771073911512007700,1.151007568359375,0.12054729461669922,-0.012552261352539062,0.05244705080986023
1771073911521948000,1.160947998046875,0.11647987365722656,-0.015427350997924805,0.01187741756439209
1771073911531887900,1.170887939453125,0.08945846557617188,-0.02417159080505371,-0.016643822193145752
1771073911541827800,1.180827880859375,0.025480270385742188,-0.03576993942260742,-0.02550506591796875
1771073911551767800,1.190767822265625,-0.07273578643798828,-0.04490780830383301,-0.01697412133216858
1771073911561707800,1.200707763671875,-0.12491512298583984,-0.0343022346496582,0.02947261929512024
1771073911571647700,1.210647705078125,-0.07544422149658203,-0.006369113922119141,0.0569513738155365
1771073911581587700,1.220587646484375,-0.04379463195800781,-0.0012371540069580078,0.04651522636413574
1771073911591527700,1.230527587890625,0.027242660522460938,-0.010048627853393555,0.02906709909439087
1771073911601468000,1.240468017578125,0.04070854187011719,-0.019010066986083984,-0.04901081323623657
1771073911611408000,1.250407958984375,0.019052505493164062,0.0065534114837646484,-0.1075689047574997
1771073911621347800,1.260347900390625,0.000530242919921875,0.023699045181274414,-0.11173635721206665
1771073911631287800,1.270287841796875,-0.05049419403076172,0.049698829650878906,-0.06972379982471466
1771073911641227800,1.280227783203125,-0.06792259216308594,0.02404189109802246,-0.012704789638519287
1771073911651167700,1.290167724609375,-0.08544063568115234,0.020859479904174805,0.058041006326675415
1771073911661107700,1.300107666015625,-0.16674041748046875,0.05650615692138672,0.13109567761421204
1771073911671047700,1.310047607421875,-0.1226968765258789,0.06269574165344238,0.07509756088256836
1771073911680988000,1.31998779296875,0.042380332946777344,0.008952617645263672,-0.02961471676826477
1771073911690927900,1.329927978515625,0.10790348052978516,-0.04577827453613281,-0.10415810346603394
1771073911700867800,1.339867919921875,0.09252357482910156,-0.07425332069396973,-0.10413984954357147
1771073911710807800,1.349807861328125,0.0922403335571289,-0.05901956558227539,-0.06658704578876495
1771073911720747800,1.359747802734375,0.059891700744628906,-0.02011847496032715,-0.01969793438911438
1771073911730687700,1.369687744140625,-0.013713836669921875,0.01681828498840332,-0.02398204803466797
1771073911740627700,1.379627685546875,-0.08116912841796875,0.05502676963806152,-0.01463046669960022
1771073911750567700,1.389567626953125,-0.08174324035644531,0.05060219764709473,-0.03122277557849884
1771073911760508000,1.3995078125,-0.030773162841796875,0.027993440628051758,-0.03982958197593689
1771073911770448000,1.40944775390625,0.035706520080566406,-0.005816459655761719,-0.01862199604511261
1771073911780387800,1.419387939453125,-0.01425933837890625,-0.01561427116394043,0.024115964770317078
1771073911790327800,1.429327880859375,-0.09657669067382812,-0.0035147666931152344,0.05427166819572449
1771073911800267800,1.439267822265625,-0.09095573425292969,0.00969243049621582,0.07426543533802032
1771073911810207700,1.449207763671875,-0.05536937713623047,0.02164936065673828,0.06999777257442474
1771073911820147700,1.459147705078125,-0.049086570739746094,-0.024296998977661133,0.01071077585220337
1771073911830087700,1.469087646484375,0.006651878356933594,-0.06490945816040039,0.016085922718048096
1771073911849967900,1.4889677734375,0.16173839569091797,-0.09294867515563965,0.12806545197963715
1771073911859907800,1.498907958984375,0.1363048553466797,-0.09083104133605957,0.14975151419639587
1771073911869848800,1.508848876953125,0.10939598083496094,-0.06163430213928223,0.13661353290081024
1771073911879788500,1.51878857421875,0.09713935852050781,-0.023709535598754883,0.1215759813785553
1771073911889728300,1.528728271484375,0.13902759552001953,0.009326934814453125,0.14045372605323792
1771073911899668000,1.53866796875,0.04084491729736328,0.014575719833374023,0.15585654973983765
1771073911909607700,1.548607666015625,-0.05400562286376953,-0.011739492416381836,0.08986964821815491
1771073911919547400,1.55854736328125,-0.09604167938232422,-0.010406255722045898,0.020648568868637085
1771073911929487000,1.568487060546875,-0.09067535400390625,0.001256704330444336,-0.017055347561836243
1771073911939426800,1.5784267578125,-0.04791545867919922,0.00848841667175293,-0.05925418436527252
1771073911949366500,1.588366455078125,-0.001190185546875,0.013342142105102539,-0.03985883295536041
1771073911959306500,1.598306396484375,-0.014075279235839844,0.04401063919067383,-0.007559284567832947
1771073911969246500,1.60824658203125,0.010857582092285156,0.013229846954345703,-0.043475791811943054
1771073911979186400,1.6181865234375,0.12966346740722656,-0.03369474411010742,-0.08506627380847931
1771073911989126700,1.628126708984375,0.15971851348876953,-0.04063677787780762,-0.09040145576000214
1771073911999066600,1.638066650390625,0.08140182495117188,-0.04141688346862793,-0.08863326907157898
1771073912009006800,1.6480068359375,0.011839866638183594,-0.010062932968139648,-0.050524383783340454
1771073912018947000,1.657947021484375,-0.018758773803710938,0.006350994110107422,-0.013550922274589539
1771073912028887300,1.66788720703125,0.019202232360839844,-0.007653713226318359,-0.01832742989063263
1771073912038827500,1.67782763671875,0.037392616271972656,-0.01143956184387207,-0.027726009488105774
1771073912048767700,1.687767822265625,-0.04640769958496094,-0.004803895950317383,-0.025337710976600647
1771073912058708000,1.6977080078125,-0.07033443450927734,0.01668691635131836,-0.03365026414394379
1771073912068648200,1.707648193359375,-0.032721519470214844,0.03564286231994629,-0.06775319576263428
1771073912078588700,1.717588623046875,0.049266815185546875,0.06549239158630371,-0.10495613515377045
1771073912088528600,1.727528564453125,0.09283638000488281,0.08872795104980469,-0.11676809191703796
1771073912098468600,1.737468505859375,0.025632858276367188,0.07015538215637207,-0.10810165107250214
1771073912108408600,1.74740869140625,-0.09191417694091797,0.04644012451171875,-0.0932910293340683
1771073912118348500,1.7573486328125,-0.1345233917236328,0.009093284606933594,-0.07305620610713959
1771073912128288500,1.76728857421875,-0.056418418884277344,-0.0062541961669921875,-0.025375336408615112
1771073912138228700,1.777228759765625,0.006184577941894531,-0.009485721588134766,-0.010057061910629272
1771073912148168700,1.787168701171875,-0.02889251708984375,-0.010134220123291016,-0.04301893711090088
1771073912158108700,1.797108642578125,-0.03533935546875,-0.036202192306518555,-0.10091423988342285
1771073912168048600,1.807048583984375,-0.013545989990234375,-0.04977750778198242,-0.1178060844540596
1771073912177988600,1.816988525390625,-0.008757591247558594,-0.060392141342163086,-0.087221160531044
1771073912187928600,1.826928466796875,0.019351959228515625,-0.05171632766723633,-0.05616900324821472
1771073912197868500,1.83686865234375,0.004551887512207031,-0.028960227966308594,-0.03645224869251251
1771073912207808500,1.84680859375,-0.052445411682128906,-0.006390810012817383,-0.04350860416889191
1771073912217748700,1.856748779296875,-0.009565353393554688,0.0016810894012451172,-0.033567413687705994
1771073912227688700,1.866688720703125,0.0988473892211914,-0.014665365219116211,-0.03863683342933655
1771073912237628700,1.876628662109375,0.03642749786376953,-0.036562204360961914,-0.03731733560562134
1771073912247568600,1.886568603515625,-0.055319786071777344,-0.0491337776184082,0.009181901812553406
1771073912257508600,1.896508544921875,-0.081939697265625,-0.08032727241516113,0.03481370210647583
1771073912267448600,1.906448486328125,-0.08943557739257812,-0.10826754570007324,0.043500080704689026
1771073912277388500,1.916388427734375,-0.0877828598022461,-0.09486961364746094,0.09602981805801392
1771073912287328500,1.92632861328125,-0.044341087341308594,-0.03338932991027832,0.15436217188835144
1771073912297268700,1.936268798828125,0.033379554748535156,0.011234760284423828,0.1379084289073944
1771073912307208700,1.946208740234375,0.06259632110595703,0.03184628486633301,0.11261656880378723
1771073912317148700,1.956148681640625,0.08670616149902344,0.03779339790344238,0.08277985453605652
1771073912327088600,1.966088623046875,0.11520099639892578,0.0010693073272705078,0.03472316265106201
1771073912337028600,1.976028564453125,0.10330390930175781,-0.030607223510742188,0.011269062757492065
1771073912346968600,1.985968505859375,0.06575298309326172,-0.028892040252685547,0.01160043478012085
1771073912356908500,1.995908447265625,0.01471710205078125,-0.008378744125366211,0.004417151212692261
1771073912366848500,2.0058486328125,-0.004904747009277344,0.011975288391113281,0.005628228187561035
1771073912376788700,2.015788818359375,0.027486801147460938,-0.005391836166381836,0.01587677001953125
1771073912386728700,2.025728759765625,0.042949676513671875,-0.015682697296142578,-0.0014359652996063232
1771073912396668700,2.035668701171875,0.034915924072265625,-0.019481897354125977,-0.0207432359457016
1771073912406608600,2.045608642578125,0.022832870483398438,-0.0008904933929443359,-0.03810957074165344
1771073912416548600,2.055548583984375,0.05125713348388672,0.007319450378417969,-0.039121001958847046
1771073912426488600,2.065488525390625,-0.007821083068847656,0.01991868019104004,-0.002618759870529175
1771073912436428500,2.075428466796875,-0.05197906494140625,0.03041529655456543,0.04036077857017517
1771073912446368500,2.085368408203125,-0.08630084991455078,0.06266379356384277,0.0594635009765625
1771073912456308700,2.095308837890625,-0.05668163299560547,0.07834720611572266,0.04796957969665527
1771073912466248700,2.105248779296875,0.04306793212890625,0.07257509231567383,0.008681446313858032
1771073912476188700,2.115188720703125,0.06834983825683594,0.0640726089477539,-0.05760127305984497
1771073912486128600,2.125128662109375,0.03689289093017578,0.02229022979736328,-0.1179058849811554
1771073912496068600,2.135068603515625,0.017934799194335938,-0.0051195621490478516,-0.12125684320926666
1771073912506008600,2.145008544921875,0.006361961364746094,-0.01086735725402832,-0.0873049795627594
1771073912515948500,2.154948486328125,-0.04740619659423828,-0.009442806243896484,-0.06786437332630157
1771073912525888500,2.164888427734375,-0.12162113189697266,0.0017535686492919922,-0.0465264618396759
1771073912535828700,2.174828857421875,-0.12178516387939453,0.008518695831298828,-0.009830743074417114
1771073912545768700,2.184768798828125,-0.06093025207519531,0.0038611888885498047,0.03107932209968567
1771073912555708700,2.194708740234375,-0.006061553955078125,-0.016649961471557617,0.030157476663589478
1771073912565648600,2.204648681640625,0.03132438659667969,-0.013199090957641602,0.026371508836746216
1771073912575588600,2.214588623046875,0.061133384704589844,-0.010101318359375,0.02312523126602173
1771073912585528600,2.224528564453125,0.060088157653808594,-0.002917766571044922,-0.0016075968742370605
1771073912595468500,2.234468505859375,0.04286479949951172,0.010546684265136719,-0.01680833101272583
1771073912605408500,2.244408447265625,0.009649276733398438,0.02802872657775879,-0.05081665515899658
1771073912615348700,2.2543486328125,-0.039618492126464844,0.054929494857788086,-0.037046656012535095
1771073912625288700,2.264288818359375,0.022439956665039062,0.0723426342010498,-0.009700983762741089
1771073912635228700,2.274228759765625,0.1045675277709961,0.05199003219604492,-0.0037962794303894043
1771073912645168600,2.284168701171875,0.09824466705322266,0.022470712661743164,-0.009463965892791748
1771073912665048600,2.304048583984375,0.032677650451660156,0.0036699771881103516,0.04302218556404114
1771073912674988500,2.313988525390625,0.0304412841796875,0.01618814468383789,0.048720717430114746
1771073912684928500,2.323928466796875,0.06608200073242188,0.042237043380737305,0.021051377058029175
1771073912694868700,2.33386865234375,0.12474822998046875,0.034711599349975586,0.017362773418426514
1771073912704808700,2.34380859375,0.14713764190673828,-0.012797117233276367,0.023880422115325928
1771073912714748700,2.353748779296875,0.11261367797851562,-0.06657171249389648,0.04800596833229065
1771073912724688600,2.363688720703125,0.019712448120117188,-0.10513710975646973,0.06523022055625916
1771073912734628600,2.373628662109375,-0.045978546142578125,-0.09305596351623535,0.07981303334236145
1771073912744568600,2.383568603515625,-0.05659008026123047,-0.08550596237182617,0.05201774835586548
1771073912754508500,2.393508544921875,-0.0693826675415039,-0.0568850040435791,0.01289018988609314
1771073912764448500,2.403448486328125,-0.03242778778076172,-0.026568889617919922,-0.012101501226425171
1771073912774388700,2.413388671875,0.008904457092285156,-0.01153564453125,-0.03939118981361389
1771073912784328700,2.42332861328125,-0.018280982971191406,-0.004848003387451172,-0.033735424280166626
1771073912794268700,2.4332685546875,-0.03519248962402344,0.010196924209594727,-0.02132953703403473
1771073912804208600,2.443208740234375,-0.07061004638671875,0.006058454513549805,-0.032782554626464844
1771073912814148600,2.453148681640625,-0.07964611053466797,0.014048099517822266,-0.03979000449180603
1771073912824088600,2.463088623046875,-0.043984413146972656,0.03886294364929199,-0.03069378435611725
1771073912834028500,2.473028564453125,0.0452728271484375,0.03728437423706055,0.008698880672454834
1771073912843968500,2.482968505859375,0.09326744079589844,0.018596649169921875,0.03198552131652832
1771073912853908700,2.49290869140625,0.037258148193359375,-0.0030739307403564453,0.02714020013809204
1771073912863848700,2.5028486328125,-0.055492401123046875,-0.01487421989440918,0.011873036623001099
1771073912873788700,2.51278857421875,-0.07871532440185547,-0.025726795196533203,-0.020369455218315125
1771073912883728600,2.522728759765625,-0.13272666931152344,-0.02095770835876465,-0.03271783888339996
1771073912893668600,2.532668701171875,-0.16069412231445312,0.0043489933013916016,-0.03548280894756317
1771073912903608600,2.542608642578125,-0.08296489715576172,0.028566837310791016,-0.01479184627532959
1771073912913548500,2.552548583984375,0.016571044921875,0.055759429931640625,0.04113540053367615
1771073912923488500,2.562488525390625,0.07915306091308594,0.037652015686035156,0.06414291262626648
1771073912933428700,2.5724287109375,0.12231636047363281,-0.0071871280670166016,0.002865821123123169
1771073912943368700,2.58236865234375,0.13019371032714844,-0.010672569274902344,-0.03142426908016205
1771073912953308700,2.59230859375,0.05861663818359375,0.03365755081176758,-0.01837727427482605
1771073912963248600,2.60224853515625,-0.032451629638671875,0.06435108184814453,-0.00409013032913208
1771073912973188600,2.612188720703125,-0.07490253448486328,0.056862831115722656,0.002561509609222412
1771073912983128600,2.622128662109375,-0.12173748016357422,0.03151369094848633,0.031147390604019165
1771073912993068500,2.632068603515625,-0.17081737518310547,0.01985621452331543,0.06753581762313843
1771073913003008500,2.642008544921875,-0.1491098403930664,-0.006595134735107422,0.06883066892623901
1771073913012948700,2.65194873046875,-0.073944091796875,-0.03186321258544922,0.06349411606788635
1771073913022888700,2.661888671875,-0.02602863311767578,-0.05652785301208496,0.04259371757507324
1771073913032828700,2.67182861328125,-0.04481697082519531,-0.06439757347106934,-0.0005267858505249023
1771073913042768600,2.6817685546875,-0.08206844329833984,-0.06987500190734863,-0.05996990203857422
1771073913052708600,2.69170849609375,-0.000751495361328125,-0.0709083080291748,-0.05549179017543793
1771073913062648600,2.701648681640625,0.08910751342773438,-0.039980173110961914,0.02716986835002899
1771073913072588500,2.711588623046875,0.07188892364501953,0.015483617782592773,0.06596904993057251
1771073913082528500,2.721528564453125,0.07405567169189453,0.04346132278442383,0.05078636109828949
1771073913092468700,2.73146875,0.07146739959716797,0.0474247932434082,0.026893213391304016
1771073913102408700,2.74140869140625,0.07358169555664062,0.016103506088256836,-0.005684763193130493
1771073913112348700,2.7513486328125,0.0732126235961914,-0.014511585235595703,-0.041827425360679626
1771073913122288600,2.76128857421875,0.05863189697265625,-0.042075157165527344,-0.08631731569766998
1771073913132228600,2.771228515625,0.018364906311035156,-0.03847241401672363,-0.08102571964263916
1771073913142168600,2.78116845703125,0.009237289428710938,-0.029834508895874023,-0.07215501368045807
1771073913152108500,2.791108642578125,0.019150733947753906,-0.019072771072387695,-0.0240899920463562
1771073913162048500,2.801048583984375,-0.027464866638183594,-0.008773326873779297,0.03188319504261017
1771073913171988700,2.81098876953125,-0.030910491943359375,-0.01278066635131836,0.039436742663383484
1771073913181928700,2.8209287109375,-0.015519142150878906,-0.0260469913482666,0.021568000316619873
1771073913191868700,2.83086865234375,-0.052330970764160156,-0.029392004013061523,-0.00895392894744873
1771073913201808600,2.84080859375,-0.08420085906982422,-0.02477264404296875,-0.031237050890922546
1771073913211748600,2.85074853515625,-0.075958251953125,-0.019202470779418945,-0.015386775135993958
1771073913221688600,2.8606884765625,-0.028203964233398438,-0.019947528839111328,-0.022783279418945312
1771073913231628500,2.870628662109375,-0.026189804077148438,-0.022565126419067383,-0.0060863494873046875
1771073913241568500,2.880568603515625,0.008758544921875,-0.027495861053466797,-0.039254605770111084
1771073913251508700,2.8905087890625,0.048254966735839844,-0.021504640579223633,-0.028112277388572693
1771073913261448700,2.90044873046875,0.066436767578125,-0.005056619644165039,-0.008205443620681763
1771073913271388700,2.910388671875,0.02362060546875,0.00048089027404785156,-0.00022846460342407227
1771073913281328600,2.92032861328125,-0.02058696746826172,0.0030090808868408203,-0.004396364092826843
1771073913291268600,2.9302685546875,-0.005227088928222656,0.015001296997070312,-0.023101210594177246
1771073913301208600,2.94020849609375,-0.0045223236083984375,0.03451275825500488,-0.011208727955818176
1771073913311148500,2.9501484375,0.021657943725585938,0.04992222785949707,0.015025004744529724
1771073913321088500,2.960088623046875,0.037735939025878906,0.02560567855834961,0.05073253810405731
1771073913331028700,2.97002880859375,0.055893898010253906,-0.0006670951843261719,0.053285256028175354
1771073913340968700,2.97996875,0.06460762023925781,-0.013027667999267578,0.027690723538398743
1771073913350908700,2.98990869140625,0.05230998992919922,0.014100313186645508,0.011726409196853638
1771073913360848600,2.9998486328125,0.024056434631347656,0.0306088924407959,0.010287567973136902
1771073913370788600,3.00978857421875,0.015347480773925781,0.027447938919067383,-0.026348352432250977
1771073913380728600,3.019728515625,0.03746986389160156,0.007682085037231445,-0.0412522554397583
1771073913390668500,3.02966845703125,0.02395153045654297,-0.0024192333221435547,-0.011470600962638855
1771073913400608500,3.0396083984375,-0.01526641845703125,-0.01931929588317871,0.02907867729663849
1771073913410548700,3.049548828125,-0.02801036834716797,-0.042815446853637695,0.03829279541969299
1771073913420488700,3.05948876953125,-0.059409141540527344,-0.025803089141845703,0.04707305133342743
1771073913430428700,3.0694287109375,-0.09042739868164062,0.007779836654663086,0.04318848252296448
1771073913440368600,3.07936865234375,-0.06937885284423828,0.01546621322631836,0.037107646465301514
1771073913450308600,3.08930859375,-0.06310653686523438,-0.009284257888793945,0.02485203742980957
1771073913460248600,3.09924853515625,-0.057158470153808594,-0.056700944900512695,0.02065017819404602
1771073913470188500,3.1091884765625,-0.04682350158691406,-0.07461190223693848,0.022106707096099854
1771073913480128500,3.11912841796875,-0.010727882385253906,-0.07113313674926758,0.019190683960914612
1771073913490068700,3.12906884765625,0.020296096801757812,-0.021190404891967773,0.004725620150566101
1771073913500008700,3.1390087890625,-0.031345367431640625,0.04618573188781738,-0.026190295815467834
1771073913509948700,3.14894873046875,-0.07029914855957031,0.07232499122619629,-0.06434711813926697
1771073913519888600,3.158888671875,-0.07104873657226562,0.05593991279602051,-0.05051475763320923
1771073913529828600,3.16882861328125,-0.04607677459716797,0.04265737533569336,-0.032925382256507874
1771073913539768600,3.1787685546875,0.053742408752441406,-0.012592792510986328,-0.025366485118865967
1771073913549708500,3.18870849609375,0.06485462188720703,-0.027089834213256836,-0.014845937490463257
1771073913559648500,3.1986484375,0.02645587921142578,0.0007503032684326172,-0.011243477463722229
1771073913569588700,3.208588623046875,-0.009105682373046875,0.05203366279602051,-0.0030172914266586304
1771073913579528700,3.21852880859375,-0.01609039306640625,0.0701441764831543,-0.01656743884086609
1771073913589468700,3.22846875,0.03801536560058594,0.048491477966308594,-0.027857527136802673
1771073913599408600,3.23840869140625,0.03222846984863281,-0.01254129409790039,-0.031377509236335754
1771073913609348600,3.2483486328125,0.016994476318359375,-0.0440216064453125,-0.04170280694961548
1771073913619288600,3.25828857421875,0.06335735321044922,-0.028168678283691406,-0.01704820990562439
1771073913629228500,3.268228515625,0.09284210205078125,-0.00635838508605957,0.02089531719684601
1771073913639168500,3.27816845703125,0.10827827453613281,0.0020067691802978516,0.022786155343055725
1771073913649108700,3.288108642578125,0.10030174255371094,0.011655569076538086,0.03241442143917084
1771073913659048700,3.298048583984375,-0.020308494567871094,-0.00060272216796875,0.018485546112060547
1771073913668988700,3.30798876953125,-0.08007621765136719,-0.03139543533325195,0.03705549240112305
1771073913678928600,3.3179287109375,-0.08011627197265625,-0.05432939529418945,0.02494943141937256
1771073913688868600,3.32786865234375,-0.12758541107177734,-0.057300567626953125,0.009175613522529602
1771073913698808600,3.33780859375,-0.1488046646118164,-0.03329896926879883,-0.02074103057384491
1771073913708748500,3.34774853515625,-0.08766841888427734,-0.029952049255371094,-0.03399926424026489
1771073913718688500,3.3576884765625,-0.008994102478027344,-0.014233112335205078,-0.056814223527908325
1771073913728628700,3.367628662109375,0.06606101989746094,-0.015345335006713867,-0.034877702593803406
1771073913738568700,3.377568603515625,0.05048370361328125,-0.03309941291809082,0.010114938020706177
1771073913748508700,3.3875087890625,-0.014072418212890625,-0.03690171241760254,0.04973004758358002
1771073913758448600,3.39744873046875,-0.07043647766113281,-0.0242617130279541,0.06945300102233887
1771073913768388600,3.407388671875,-0.043613433837890625,0.0073664188385009766,0.05087418854236603
1771073913778328600,3.41732861328125,0.001468658447265625,0.010497570037841797,0.007040143013000488
1771073913788268500,3.4272685546875,0.06449317932128906,0.011501550674438477,0.00008988380432128906
1771073913798208500,3.43720849609375,0.11497306823730469,0.009482383728027344,-0.0017562955617904663
1771073913808148700,3.447148681640625,0.1462259292602539,0.008829832077026367,-0.013256058096885681
1771073913818088700,3.457088623046875,0.10206222534179688,0.01422739028930664,-0.03392842411994934
1771073913828028700,3.467028564453125,-0.011838912963867188,0.00503993034362793,-0.03051432967185974
1771073913837968600,3.47696875,-0.08863449096679688,0.017476320266723633,0.0028486549854278564
1771073913847908600,3.48690869140625,-0.0630941390991211,0.023107051849365234,0.04164007306098938
1771073913857848600,3.4968486328125,0.02539348602294922,0.03145408630371094,0.05371728539466858
1771073913867788500,3.50678857421875,0.055802345275878906,0.028072834014892578,0.02893759310245514
1771073913877728500,3.516728515625,0.03604888916015625,0.020501375198364258,0.007565528154373169
1771073913887668700,3.526668701171875,0.025910377502441406,-0.005498647689819336,-0.005921259522438049
1771073913897608700,3.536608642578125,-0.03825950622558594,-0.014491796493530273,-0.009299874305725098
1771073913907548700,3.546548583984375,-0.08970165252685547,-0.02305316925048828,-0.029515758156776428
1771073913917488600,3.556488525390625,-0.06972122192382812,-0.028925418853759766,-0.04319915175437927
1771073913927428600,3.5664287109375,-0.033547401428222656,-0.027721881866455078,-0.04532448947429657
1771073913937368600,3.57636865234375,-0.04959583282470703,-0.022200584411621094,-0.04810728132724762
1771073913947308500,3.58630859375,-0.06526470184326172,-0.021668434143066406,-0.03562788665294647
1771073913957248500,3.59624853515625,-0.043121337890625,-0.02792644500732422,-0.01652011275291443
1771073913967188700,3.606188720703125,0.006808280944824219,-0.019763469696044922,0.0029340237379074097
1771073913977128700,3.616128662109375,0.048659324645996094,-0.01136159896850586,0.02060110867023468
1771073913987068700,3.626068603515625,0.0638284683227539,-0.0005586147308349609,0.02648182213306427
1771073913997008600,3.636008544921875,0.06229972839355469,0.0005519390106201172,0.039647430181503296
1771073914006948600,3.645948486328125,0.03737449645996094,0.017838001251220703,0.022108882665634155
1771073914016888600,3.655888671875,0.022454261779785156,0.03681516647338867,0.01620824635028839
1771073914026828500,3.66582861328125,0.012575149536132812,0.06705904006958008,0.0221245139837265
1771073914036768500,3.6757685546875,0.016939163208007812,0.06157326698303223,0.02123977243900299
1771073914046708700,3.685708740234375,0.039963722229003906,0.03988528251647949,0.02591767907142639
1771073914056648700,3.695648681640625,0.09322929382324219,0.006691932678222656,0.010302037000656128
1771073914066588700,3.705588623046875,0.08689403533935547,-0.023964643478393555,-0.030244484543800354
1771073914076528400,3.7155283203125,0.033878326416015625,-0.014735937118530273,-0.04269053041934967
1771073914086468400,3.72546826171875,0.01035308837890625,0.007720232009887695,-0.02576318383216858
1771073914096408300,3.735408203125,-0.017279624938964844,0.029331445693969727,-0.00696273148059845
1771073914106348300,3.745348388671875,-0.09397029876708984,0.034287214279174805,-0.016779989004135132
1771073914116288500,3.75528857421875,-0.1322317123413086,0.009767293930053711,-0.022097915410995483
1771073914126228500,3.765228515625,-0.0762929916381836,-0.027069091796875,-0.036598145961761475
1771073914136168400,3.77516845703125,-0.02407360076904297,-0.036451101303100586,-0.03572097420692444
1771073914146108400,3.7851083984375,-0.024649620056152344,-0.010082244873046875,0.010339587926864624
1771073914156048400,3.79504833984375,0.024311065673828125,0.0062367916107177734,0.03193104267120361
1771073914165988400,3.80498828125,0.0728616714477539,0.00015878677368164062,0.036670148372650146
1771073914175928300,3.81492822265625,0.06463146209716797,0.018860578536987305,0.05058877170085907
1771073914185868300,3.824868408203125,0.06177997589111328,0.014838457107543945,0.028789743781089783
1771073914195808500,3.83480859375,0.028656005859375,-0.006249904632568359,0.01667812466621399
1771073914205748500,3.84474853515625,-0.02994060516357422,-0.03611946105957031,-0.009158238768577576
1771073914215688400,3.8546884765625,-0.02907562255859375,-0.05758023262023926,-0.0367068350315094
1771073914225628400,3.86462841796875,-0.021532058715820312,-0.04722929000854492,-0.03307230770587921
1771073914235568400,3.874568359375,-0.021414756774902344,-0.02000737190246582,-0.02270279824733734
1771073914245508400,3.88450830078125,0.009113311767578125,-0.028084993362426758,-0.029399603605270386
1771073914255448300,3.8944482421875,0.02744770050048828,-0.022086620330810547,-0.04336777329444885
1771073914265388300,3.90438818359375,0.01739025115966797,-0.016556978225708008,-0.02205587923526764
1771073914275328500,3.91432861328125,0.03133201599121094,0.00471186637878418,-0.003814026713371277
1771073914285268500,3.9242685546875,0.04305076599121094,0.027136802673339844,0.016558721661567688
1771073914295208400,3.93420849609375,0.03833293914794922,0.0439152717590332,0.02508765459060669
1771073914305148400,3.9441484375,0.029087066650390625,0.034230947494506836,-0.012650921940803528
1771073914315088400,3.95408837890625,-0.060235023498535156,0.006250858306884766,-0.03233534097671509
1771073914325028400,3.9640283203125,-0.11315345764160156,-0.0014934539794921875,-0.04721033573150635
1771073914334968300,3.97396826171875,-0.06904983520507812,-0.0011174678802490234,-0.024927228689193726
1771073914344908300,3.983908203125,0.004643440246582031,-0.009516477584838867,-0.033633723855018616
1771073914354848500,3.9938486328125,0.013385772705078125,-0.007987499237060547,-0.037632524967193604
1771073914364788500,4.00378857421875,0.014898300170898438,-0.006390810012817383,-0.023569509387016296
1771073914374728400,4.013728515625,0.049483299255371094,-0.007452249526977539,-0.024653181433677673
1771073914384668400,4.02366845703125,0.04364776611328125,0.009969472885131836,0.018185794353485107
1771073914394608400,4.0336083984375,0.07810020446777344,0.0031850337982177734,0.07189549505710602
1771073914404548400,4.04354833984375,0.055739402770996094,-0.004145622253417969,0.0855540931224823
1771073914414488300,4.05348828125,0.00093841552734375,-0.016444683074951172,0.09038235247135162
1771073914424428300,4.06342822265625,-0.04598426818847656,-0.021304607391357422,0.08203347027301788
1771073914434368500,4.073368408203125,-0.038208961486816406,-0.025621891021728516,0.04460465908050537
1771073914444308500,4.08330859375,-0.026081085205078125,-0.010561704635620117,0.018255412578582764
1771073914454248400,4.09324853515625,-0.02605438232421875,0.004534244537353516,-0.0239761620759964
1771073914464188400,4.1031884765625,-0.009410858154296875,0.007338047027587891,-0.0264289528131485
1771073914474128400,4.11312841796875,0.04724311828613281,-0.006940364837646484,-0.0369173139333725
1771073914484068400,4.123068359375,0.07495403289794922,-0.014465093612670898,-0.03381359577178955
1771073914494008300,4.13300830078125,0.06950187683105469,-0.024772167205810547,-0.015149027109146118
1771073914503948300,4.1429482421875,0.09256458282470703,-0.018802642822265625,0.012195408344268799
1771073914513888500,4.152888427734375,0.02576923370361328,-0.0200042724609375,-0.01914539933204651
1771073914523828500,4.162828369140625,-0.04495048522949219,-0.03692150115966797,-0.03316347301006317
1771073914533768400,4.1727685546875,-0.11485767364501953,-0.02446746826171875,-0.020916908979415894
1771073914543708400,4.18270849609375,-0.1179494857788086,-0.025693655014038086,-0.007079854607582092
1771073914553648400,4.1926484375,-0.04807853698730469,-0.012587308883666992,0.024988025426864624
1771073914563588400,4.20258837890625,-0.014609336853027344,0.014237642288208008,0.0779370665550232
1771073914573528300,4.2125283203125,-0.028665542602539062,0.012079954147338867,0.0619029700756073
1771073914583468300,4.22246826171875,-0.025931358337402344,0.0027065277099609375,0.029882922768592834
1771073914593408500,4.232408447265625,0.009741783142089844,0.0004608631134033203,-0.01031494140625
1771073914603348500,4.242348388671875,0.00007343292236328125,0.014739274978637695,-0.013996630907058716
1771073914613288400,4.252288330078125,-0.028306961059570312,0.0453488826751709,-0.017629504203796387
1771073914623228400,4.262228515625,0.0237579345703125,0.04973340034484863,-0.030818074941635132
1771073914633168400,4.27216845703125,0.1338052749633789,0.03992342948913574,-0.05771350860595703
1771073914643108400,4.2821083984375,0.1481771469116211,0.024828433990478516,-0.032766908407211304
1771073914653048300,4.29204833984375,0.09682178497314453,0.01611042022705078,0.028207242488861084
1771073914662988300,4.30198828125,0.03947734832763672,-0.0023567676544189453,0.026502087712287903
1771073914672928500,4.311928466796875,-0.04050254821777344,-0.020429611206054688,-0.0005773156881332397
1771073914682868500,4.321868408203125,-0.08660507202148438,-0.030200481414794922,-0.019756600260734558
1771073914692808400,4.331808349609375,-0.08060169219970703,-0.03642153739929199,-0.00992611050605774
1771073914702748400,4.34174853515625,-0.06087684631347656,-0.0277559757232666,0.014718249440193176
1771073914712688400,4.3516884765625,-0.07205390930175781,-0.031108379364013672,0.011234894394874573
1771073914722628400,4.36162841796875,-0.11359786987304688,-0.03214573860168457,-0.02802427113056183
1771073914732568300,4.371568359375,-0.0979299545288086,-0.028455257415771484,-0.0768328607082367
1771073914742508300,4.38150830078125,-0.07537269592285156,-0.020293712615966797,-0.08057782053947449
1771073914752448500,4.391448486328125,-0.053214073181152344,-0.009810447692871094,-0.05931057035923004
1771073914762388500,4.401388427734375,0.024974822998046875,-0.015691518783569336,-0.02295815944671631
1771073914772328400,4.411328369140625,0.11375617980957031,-0.021747827529907227,0.014928460121154785
1771073914782268400,4.421268310546875,0.10241413116455078,-0.011788368225097656,0.07141834497451782
1771073914792208400,4.43120849609375,0.09382247924804688,-0.002471923828125,0.06812398135662079
1771073914802148400,4.4411484375,0.10905838012695312,0.022794485092163086,0.016323789954185486
1771073914812088300,4.45108837890625,0.055741310119628906,0.06647610664367676,0.018167153000831604
1771073914822028300,4.4610283203125,0.012521743774414062,0.08634209632873535,0.027524232864379883
1771073914831968500,4.470968505859375,0.02867889404296875,0.049831390380859375,0.03924107551574707
1771073914841908500,4.480908447265625,0.042075157165527344,0.011848211288452148,0.04211975634098053
1771073914851848400,4.490848388671875,0.0176849365234375,-0.035201311111450195,0.005621075630187988
1771073914861788400,4.500788330078125,0.0033521652221679688,-0.023162126541137695,-0.04414282739162445
1771073914871728400,4.510728271484375,-0.03403282165527344,0.014019966125488281,-0.053548663854599
1771073914881668400,4.52066845703125,-0.0801095962524414,0.0033142566680908203,-0.044977352023124695
1771073914891608300,4.5306083984375,-0.11375045776367188,-0.013993501663208008,-0.009084165096282959
1771073914901548300,4.54054833984375,-0.12120532989501953,-0.02330303192138672,0.030574187636375427
1771073914911488500,4.550488525390625,-0.07477760314941406,-0.022112369537353516,0.026715576648712158
1771073914921428500,4.560428466796875,0.0035915374755859375,-0.032155752182006836,0.03011782467365265
1771073914931368400,4.570368408203125,0.01699352264404297,-0.02065873146057129,0.01061326265335083
1771073914941308400,4.580308349609375,0.07266902923583984,-0.02140641212463379,-0.024912849068641663
1771073914951248400,4.590248291015625,0.113525390625,-0.013277292251586914,-0.04320801794528961
1771073914961188400,4.600188232421875,0.06921768188476562,-0.027118682861328125,-0.01376672089099884
1771073914971128300,4.61012841796875,0.006978034973144531,0.01069188117980957,0.03863359987735748
1771073914981068300,4.620068359375,0.016658782958984375,0.033177852630615234,0.028550177812576294
1771073914991008500,4.630008544921875,0.03800678253173828,0.03636360168457031,0.0038156509399414062
1771073915000948500,4.639948486328125,0.05891704559326172,-0.0003294944763183594,-0.02777118980884552
1771073915010888400,4.649888427734375,0.020569801330566406,-0.03159832954406738,-0.006772220134735107
1771073915020828400,4.659828369140625,-0.02428436279296875,-0.05038571357727051,0.0210859477519989
1771073915030768400,4.669768310546875,-0.03319835662841797,-0.052097320556640625,0.03195944428443909
1771073915040708400,4.679708251953125,0.0073146820068359375,-0.04163789749145508,0.019149139523506165
1771073915050648300,4.6896484375,0.0024442672729492188,-0.033800363540649414,0.002590283751487732
1771073915060588300,4.69958837890625,-0.03759479522705078,-0.021575927734375,0.0011670440435409546
1771073915070528500,4.709528564453125,-0.034470558166503906,0.02312493324279785,-0.009556472301483154
1771073915080468500,4.719468505859375,-0.00078582763671875,0.06236553192138672,-0.01790603995323181
1771073915090408400,4.729408447265625,-0.01238250732421875,0.053859710693359375,-0.02881622314453125
1771073915100348400,4.739348388671875,-0.059134483337402344,0.012624502182006836,-0.056223854422569275
1771073915110288400,4.749288330078125,-0.06515693664550781,-0.011252403259277344,-0.0718570351600647
1771073915120228400,4.759228271484375,-0.009898185729980469,0.01245427131652832,-0.047700703144073486
1771073915130168300,4.769168212890625,0.004382133483886719,0.02644181251525879,-0.03128965198993683
1771073915140108300,4.7791083984375,0.0019207000732421875,0.007329225540161133,-0.03708691895008087
1771073915150048500,4.789048583984375,0.03018951416015625,0.009537458419799805,-0.009920671582221985
1771073915159988500,4.798988525390625,0.003910064697265625,0.03270888328552246,0.01729944348335266
1771073915169928400,4.808928466796875,-0.03618621826171875,0.029874563217163086,0.027905970811843872
1771073915179868400,4.818868408203125,-0.012247085571289062,0.013425827026367188,0.04770006239414215
1771073915189808400,4.828808349609375,0.03000164031982422,-0.007179975509643555,0.05326533317565918
1771073915199748400,4.838748291015625,0.0716409683227539,-0.023015499114990234,0.03635440766811371
1771073915209688300,4.848688232421875,0.0986328125,-0.015508413314819336,0.04208642244338989
1771073915219628300,4.858628173828125,0.0642099380493164,-0.001623392105102539,0.0498909056186676
1771073915229568500,4.868568603515625,0.035251617431640625,-0.004823207855224609,0.04966273903846741
1771073915239508500,4.878508544921875,0.01879596710205078,-0.02265310287475586,0.01851220428943634
1771073915249448400,4.888448486328125,-0.018462181091308594,-0.0027904510498046875,0.0022587180137634277
1771073915259388400,4.898388427734375,-0.1258382797241211,0.031151533126831055,0.025751814246177673
1771073915269328400,4.908328369140625,-0.052750587463378906,0.022801876068115234,0.01707524061203003
1771073915279268400,4.918268310546875,0.02600574493408203,-0.006224155426025391,-0.0026685595512390137
1771073915289208300,4.928208251953125,0.01631641387939453,-0.05595517158508301,-0.013994544744491577
1771073915299148300,4.938148193359375,-0.021508216857910156,-0.06709527969360352,-0.017882302403450012
1771073915309088500,4.948088623046875,-0.046993255615234375,-0.05196833610534668,0.0011320412158966064
1771073915319028500,4.958028564453125,-0.04386711120605469,-0.02984619140625,-0.006680101156234741
1771073915328968400,4.967968505859375,-0.01960468292236328,-0.0033822059631347656,-0.012048110365867615
1771073915338908400,4.977908447265625,0.01600933074951172,0.015580177307128906,-0.002588525414466858
1771073915348848400,4.987848388671875,-0.019631385803222656,0.02725696563720703,0.011049002408981323
1771073915358788400,4.997788330078125,-0.0005464553833007812,0.008222103118896484,0.021253347396850586
1771073915368728300,5.007728271484375,0.04877281188964844,-0.010406494140625,0.006030574440956116
1771073915378668300,5.017668212890625,-0.0039825439453125,-0.01695561408996582,-0.012860789895057678
1771073915388608500,5.0276083984375,-0.011120796203613281,0.0001475811004638672,-0.015236958861351013
1771073915398548500,5.037548583984375,0.0101165771484375,0.012257099151611328,-0.02011433243751526
1771073915408488400,5.047488525390625,0.038222312927246094,0.019087553024291992,-0.017835065722465515
1771073915418428400,5.057428466796875,-0.002166748046875,0.013477802276611328,-0.020662933588027954
1771073915428368400,5.067368408203125,0.012401580810546875,-0.0017333030700683594,-0.033460795879364014
1771073915438308400,5.077308349609375,-0.006279945373535156,-0.016595125198364258,-0.008137226104736328
1771073915448248300,5.087248291015625,-0.024868011474609375,-0.03309965133666992,0.0009773671627044678
1771073915458188300,5.097188232421875,-0.05053901672363281,-0.027394533157348633,0.007865503430366516
1771073915468128500,5.10712841796875,-0.06898880004882812,0.00005221366882324219,0.01651453971862793
1771073915478068500,5.117068359375,0.0021800994873046875,0.027407407760620117,0.008287578821182251
1771073915488008400,5.127008544921875,0.034438133239746094,0.03085470199584961,-0.010880783200263977
1771073915497948400,5.136948486328125,0.019243240356445312,0.02210259437561035,-0.0442688912153244
1771073915507888400,5.146888427734375,0.0399322509765625,-0.0012750625610351562,-0.038597479462623596
1771073915517828400,5.156828369140625,0.09607696533203125,-0.020668983459472656,-0.023684248328208923
1771073915527768300,5.166768310546875,0.029123306274414062,-0.019199132919311523,-0.031804054975509644
1771073915537708300,5.176708251953125,-0.04141044616699219,-0.013037919998168945,-0.021541669964790344
1771073915547648500,5.1866484375,-0.0026340484619140625,-0.027787446975708008,0.012064948678016663
1771073915557588500,5.19658837890625,-0.007073402404785156,-0.025435447692871094,0.04628349840641022
1771073915567528400,5.206528564453125,-0.06816387176513672,-0.027376890182495117,0.07146255671977997
1771073915577468400,5.216468505859375,-0.0906534194946289,0.0014843940734863281,0.07087449729442596
1771073915587408400,5.226408447265625,-0.11036109924316406,0.006208896636962891,0.013649776577949524
1771073915597348400,5.236348388671875,-0.08510017395019531,0.00642085075378418,-0.05307619273662567
1771073915607288300,5.246288330078125,0.012660980224609375,-0.016715288162231445,-0.07019712030887604
1771073915617228300,5.256228271484375,0.1086130142211914,-0.029660940170288086,-0.05356918275356293
1771073915627168500,5.26616845703125,0.13924598693847656,-0.02091503143310547,-0.012584716081619263
1771073915637108500,5.2761083984375,0.17162322998046875,0.009058237075805664,0.01673164963722229
1771073915647048400,5.28604833984375,0.1658306121826172,0.04313802719116211,0.029334232211112976
1771073915656988400,5.295988525390625,0.1440572738647461,0.059234619140625,0.05824752151966095
1771073915666928400,5.305928466796875,0.07617568969726562,0.06894707679748535,0.0652381032705307
1771073915676868400,5.315868408203125,0.03114604949951172,0.04667067527770996,0.034284621477127075
1771073915686808300,5.325808349609375,-0.08339118957519531,0.009799718856811523,-0.003402233123779297
1771073915696748300,5.335748291015625,-0.2009258270263672,-0.014217615127563477,-0.057127445936203
1771073915706688500,5.3456884765625,-0.22760963439941406,-0.03887224197387695,-0.08874356746673584
1771073915716628500,5.35562841796875,-0.1697235107421875,-0.02639031410217285,-0.0908510684967041
1771073915726568400,5.365568359375,-0.0944662094116211,0.0034918785095214844,-0.05014887452125549
1771073915736508400,5.37550830078125,-0.027643203735351562,0.014320850372314453,-0.04091744124889374
1771073915746448400,5.385448486328125,0.03587055206298828,0.01998138427734375,-0.03803962469100952
1771073915756388400,5.395388427734375,0.13159751892089844,-0.0033588409423828125,-0.04570508003234863
1771073915766328300,5.405328369140625,0.16959095001220703,-0.02008366584777832,-0.048668116331100464
1771073915776268300,5.415268310546875,0.1200094223022461,-0.020418167114257812,-0.018889278173446655
1771073915786208500,5.42520849609375,0.08539104461669922,0.00749969482421875,0.024133160710334778
1771073915796148500,5.4351484375,0.04419994354248047,-0.00018525123596191406,0.05510830879211426
1771073915806088400,5.44508837890625,-0.03890037536621094,-0.002579212188720703,0.06052500009536743
1771073915816028700,5.455028564453125,-0.0855093002319336,-0.006825923919677734,0.042669132351875305
1771073915825968600,5.46496875,-0.058373451232910156,-0.010999441146850586,0.02327588200569153
1771073915835908600,5.47490869140625,-0.012571334838867188,-0.029870033264160156,0.015682071447372437
1771073915845848800,5.484848876953125,-0.00002956390380859375,-0.03766822814941406,0.037965863943099976
1771073915855788800,5.494788818359375,-0.0650472640991211,-0.039009809494018555,0.052000924944877625
1771073915865728800,5.504728759765625,-0.10303401947021484,-0.0521852970123291,0.055890947580337524
1771073915875669000,5.5146689453125,-0.0510101318359375,-0.0461118221282959,0.041040435433387756
1771073915885609000,5.52460888671875,0.05885124206542969,-0.025720834732055664,0.0038106590509414673
1771073915895549000,5.534548828125,0.13152503967285156,-0.0197904109954834,-0.05257740616798401
1771073915905489000,5.544489013671875,0.18674755096435547,-0.0074481964111328125,-0.058520540595054626
1771073915915429000,5.55442919921875,0.133209228515625,0.027199983596801758,-0.0034451186656951904
1771073915925369000,5.564369140625,0.03849029541015625,0.053534746170043945,0.05499865114688873
1771073915935309000,5.57430908203125,-0.03815937042236328,0.06057405471801758,0.04192440211772919
1771073915945249300,5.584249267578125,-0.12335968017578125,0.04251885414123535,-0.03175422549247742
1771073915955189200,5.594189208984375,-0.172637939453125,0.014854907989501953,-0.057078227400779724
1771073915965129200,5.604129150390625,-0.1630535125732422,0.0012814998626708984,-0.0511997789144516
1771073915975069400,5.6140693359375,-0.09050559997558594,-0.011046648025512695,-0.05249406397342682
1771073915985009400,5.624009521484375,-0.026297569274902344,-0.008859872817993164,-0.04722204804420471
1771073915994949400,5.633949462890625,0.03718376159667969,0.009028196334838867,-0.019187450408935547
1771073916004889600,5.6438896484375,0.07664299011230469,0.015897512435913086,-0.01082715392112732
1771073916014829600,5.65382958984375,0.06417369842529297,0.019092082977294922,-0.0213356614112854
1771073916024769500,5.66376953125,-0.006823539733886719,0.019602060317993164,-0.010520994663238525
1771073916034709800,5.673709716796875,0.0054759979248046875,-0.007490634918212891,0.011896878480911255
1771073916044649700,5.683649658203125,0.014698982238769531,-0.014177083969116211,0.04208092391490936
1771073916054589700,5.693589599609375,-0.014285087585449219,-0.003439188003540039,0.039534956216812134
1771073916064530000,5.703530029296875,0.013532638549804688,0.0005147457122802734,0.03179275989532471
1771073916074470000,5.713469970703125,0.06914520263671875,-0.0026624202728271484,0.023940682411193848
1771073916084409900,5.723409912109375,0.046286582946777344,-0.024988412857055664,0.021405667066574097
1771073916094349800,5.733349853515625,0.021650314331054688,-0.06153130531311035,0.019151821732521057
1771073916104289800,5.743289794921875,-0.032970428466796875,-0.06967401504516602,0.021283388137817383
1771073916114229800,5.753229736328125,-0.060608863830566406,-0.06628227233886719,0.006433427333831787
1771073916124169700,5.763169677734375,-0.0594024658203125,-0.030263900756835938,-0.027416571974754333
1771073916134109700,5.773109619140625,-0.04416084289550781,0.017122507095336914,-0.03063124418258667
1771073916144050000,5.7830498046875,-0.02466297149658203,0.043001651763916016,-0.0010994970798492432
1771073916153990000,5.792989990234375,-0.01049041748046875,0.010241508483886719,0.007071375846862793
1771073916163929900,5.802929931640625,-0.02035236358642578,-0.04024815559387207,0.010863244533538818
1771073916173869800,5.812869873046875,0.016984939575195312,-0.04742312431335449,0.02904987335205078
1771073916183809800,5.822809814453125,0.016221046447753906,-0.038466453552246094,0.04508554935455322
1771073916193749800,5.832749755859375,-0.03841876983642578,0.009797096252441406,0.08160519599914551
1771073916203689700,5.842689697265625,-0.009562492370605469,0.05215573310852051,0.10754391551017761
1771073916213629700,5.852629638671875,0.035460472106933594,0.08870553970336914,0.09081065654754639
1771073916223570000,5.86256982421875,0.053943634033203125,0.07490968704223633,0.0397508442401886
1771073916233510000,5.872510009765625,0.08626937866210938,0.04476475715637207,0.0019539296627044678
1771073916243449900,5.882449951171875,0.09218120574951172,0.01974320411682129,-0.04170450568199158
1771073916253389800,5.892389892578125,0.08405113220214844,0.025295495986938477,-0.058328673243522644
1771073916263329800,5.902329833984375,0.06422710418701172,0.04969358444213867,-0.03887087106704712
1771073916273269800,5.912269775390625,0.025854110717773438,0.08084917068481445,-0.01731814444065094
1771073916283209700,5.922209716796875,-0.049607276916503906,0.09518957138061523,-0.0015381276607513428
1771073916293149700,5.932149658203125,-0.0062808990478515625,0.03911757469177246,-0.05713985860347748
1771073916303090000,5.94208984375,0.017366409301757812,-0.03926968574523926,-0.09553800523281097
1771073916313030000,5.95202978515625,-0.04190349578857422,-0.11605572700500488,-0.07458940148353577
1771073916322969900,5.961969970703125,-0.036777496337890625,-0.15350723266601562,-0.037899360060691833
1771073916332909800,5.971909912109375,-0.012996673583984375,-0.13599705696105957,0.0056676119565963745
1771073916342849800,5.981849853515625,-0.053170204162597656,-0.06699180603027344,0.02480781078338623
1771073916352789800,5.991789794921875,-0.04557991027832031,-0.006121635437011719,0.004432767629623413
1771073916362729700,6.001729736328125,0.03502082824707031,0.006363391876220703,-0.0166398286819458
1771073916372669700,6.011669677734375,0.010921478271484375,-0.036067962646484375,-0.04405154287815094
1771073916382610000,6.02160986328125,-0.07635021209716797,-0.08484196662902832,-0.05915793776512146
1771073916392550000,6.0315498046875,-0.1412210464477539,-0.08985376358032227,-0.043608903884887695
1771073916402489900,6.04148974609375,-0.14429759979248047,-0.06304454803466797,-0.058660849928855896
1771073916412429800,6.051429931640625,-0.08884811401367188,-0.005227804183959961,-0.03285488486289978
1771073916422369800,6.061369873046875,0.022126197814941406,0.06113553047180176,-0.01407572627067566
1771073916432309800,6.071309814453125,0.07731056213378906,0.08826160430908203,0.01828974485397339
1771073916442249700,6.081249755859375,0.08477592468261719,0.07660961151123047,0.038238734006881714
1771073916452189700,6.091189697265625,0.11363029479980469,0.03379321098327637,0.043850451707839966
1771073916462130000,6.1011298828125,0.1399984359741211,0.0143890380859375,0.024018168449401855
1771073916472070000,6.11106982421875,0.14033889770507812,0.01339411735534668,-0.0020399093627929688
1771073916482009900,6.121009765625,0.0867624282836914,0.04010486602783203,-0.003893733024597168
1771073916491949800,6.13094970703125,0.09054756164550781,0.07587242126464844,0.02953246235847473
1771073916501889800,6.140889892578125,0.03532886505126953,0.10179996490478516,0.04386267066001892
1771073916511829800,6.150829833984375,-0.030908584594726562,0.052320241928100586,-0.03116072714328766
1771073916521769700,6.160769775390625,-0.0798044204711914,0.013644933700561523,-0.06024254858493805
1771073916531709700,6.170709716796875,-0.10692310333251953,-0.01911473274230957,-0.03529101610183716
1771073916541650000,6.18064990234375,-0.08899593353271484,-0.032118797302246094,0.009553521871566772
1771073916551590000,6.19058984375,-0.02194976806640625,-0.04246377944946289,0.03424447774887085
1771073916561529900,6.20052978515625,-0.021699905395507812,-0.03202080726623535,0.042339324951171875
1771073916571469800,6.2104697265625,-0.03778648376464844,-0.026835918426513672,0.022554248571395874
1771073916581409800,6.220409912109375,-0.04176902770996094,-0.024275779724121094,0.01538938283920288
1771073916591349800,6.230349853515625,-0.024382591247558594,-0.012620687484741211,0.018040776252746582
1771073916601289700,6.240289794921875,0.02801513671875,-0.010576725006103516,0.01875978708267212
1771073916611229700,6.250229736328125,0.06068611145019531,-0.017981529235839844,-0.005818367004394531
1771073916621170000,6.260169921875,0.10225486755371094,-0.02534794807434082,-0.050737425684928894
1771073916631110000,6.27010986328125,0.11968231201171875,-0.03521537780761719,-0.07285498082637787
1771073916641049900,6.2800498046875,0.0686941146850586,-0.00997161865234375,-0.06361211836338043
1771073916650989800,6.28998974609375,0.0020885467529296875,0.0077860355377197266,-0.043084144592285156
1771073916660929800,6.2999296875,-0.006920814514160156,-0.0005562305450439453,-0.011966302990913391
1771073916670869800,6.309869873046875,-0.011125564575195312,-0.0038568973541259766,0.036319881677627563
1771073916680809700,6.319809814453125,0.010660171508789062,-0.00003719329833984375,0.04760698974132538
1771073916690749700,6.329749755859375,0.008675575256347656,-0.010686635971069336,0.02518630027770996
1771073916700690000,6.33968994140625,0.03737068176269531,-0.01654052734375,0.012515902519226074
1771073916710630000,6.3496298828125,0.05842399597167969,-0.010341644287109375,0.014968901872634888
1771073916720569900,6.35956982421875,0.03670978546142578,-0.018374204635620117,-0.004629462957382202
1771073916730509800,6.369509765625,-0.024727821350097656,-0.02854156494140625,-0.04648323357105255
1771073916740449800,6.37944970703125,-0.04774951934814453,-0.021399259567260742,-0.09971931576728821
1771073916750389800,6.3893896484375,-0.10824775695800781,0.01199197769165039,-0.0490264892578125
1771073916760329700,6.399329833984375,-0.20090484619140625,0.021828889846801758,-0.021522551774978638
1771073916770269700,6.409269775390625,-0.19580554962158203,0.008790254592895508,-0.0434916615486145
1771073916780210000,6.4192099609375,-0.10846710205078125,0.0197908878326416,-0.04793675243854523
1771073916790150000,6.42914990234375,-0.0037450790405273438,0.0023658275604248047,0.003847360610961914
1771073916800089900,6.43908984375,0.02404308319091797,-0.03632497787475586,0.0010972470045089722
1771073916810029800,6.44902978515625,0.020903587341308594,-0.07237696647644043,0.0012899041175842285
1771073916819969800,6.4589697265625,-0.031505584716796875,-0.07749176025390625,0.027401119470596313
1771073916829909800,6.46890966796875,-0.08302021026611328,-0.04484200477600098,0.04746171832084656
1771073916839849700,6.478849609375,-0.14085960388183594,0.01353907585144043,0.10093171894550323
1771073916849789700,6.488789794921875,-0.13213729858398438,0.07648944854736328,0.13345414400100708
1771073916859730000,6.49872998046875,-0.04869270324707031,0.10653829574584961,0.11578431725502014
1771073916869671400,6.50867138671875,0.08239269256591797,0.09699082374572754,0.11769556999206543
1771073916879610000,6.518610107421875,0.21831798553466797,0.05934023857116699,0.1564481258392334
1771073916889548800,6.528548828125,0.28879261016845703,-0.006968975067138672,0.16625165939331055
1771073916899487700,6.53848779296875,0.25745391845703125,-0.03600049018859863,0.17991098761558533
1771073916909426700,6.5484267578125,0.25559234619140625,-0.009735584259033203,0.1682596504688263
1771073916919365600,6.55836572265625,0.26160526275634766,0.014215230941772461,0.11538642644882202
1771073916929304800,6.568304931640625,0.16924381256103516,0.019791841506958008,0.06460928916931152
1771073916939244300,6.578244384765625,0.010303497314453125,0.013133049011230469,0.04552501440048218
1771073916949184000,6.58818408203125,-0.1437368392944336,0.0021576881408691406,0.026198387145996094
1771073916959124000,6.5981240234375,-0.2722005844116211,-0.023812055587768555,-0.012493818998336792
1771073916969064200,6.608064208984375,-0.31455516815185547,-0.05454444885253906,-0.04893387854099274
1771073916979004400,6.61800439453125,-0.30524635314941406,-0.08986067771911621,-0.06171846389770508
1771073916988945000,6.62794482421875,-0.2521648406982422,-0.10623288154602051,-0.03452214598655701
1771073916998885600,6.6378857421875,-0.18393325805664062,-0.10953640937805176,-0.007686108350753784
1771073917008826400,6.647826416015625,-0.10049057006835938,-0.09131717681884766,0.0026882290840148926
1771073917018767400,6.657767333984375,-0.032416343688964844,-0.08319425582885742,-0.0501704066991806
1771073917028708400,6.667708251953125,0.03945159912109375,-0.08281397819519043,-0.09209299087524414
1771073917038649300,6.6776494140625,0.08223342895507812,-0.03852343559265137,-0.08890551328659058
1771073917048590300,6.68759033203125,0.11993598937988281,0.02784276008605957,-0.04899471998214722
1771073917058530300,6.6975302734375,0.17856884002685547,0.06882214546203613,-0.03273607790470123
1771073917068470300,6.70747021484375,0.2720069885253906,0.08925032615661621,-0.019915640354156494
1771073917078410200,6.71741015625,0.24680233001708984,0.07957959175109863,-0.027831345796585083
1771073917088350200,6.72735009765625,0.16602134704589844,0.042939186096191406,-0.060765340924263
1771073917098290200,6.737290283203125,0.0843648910522461,0.008883953094482422,-0.09439726173877716
1771073917108230100,6.747230224609375,-0.043155670166015625,0.020410776138305664,-0.08212339878082275
1771073917118170000,6.757170166015625,-0.1385822296142578,0.05912637710571289,-0.051245927810668945
1771073917128110300,6.7671103515625,-0.1295642852783203,0.058939456939697266,-0.08771003782749176
1771073917138050300,6.77705029296875,-0.09064579010009766,0.038873910903930664,-0.09088627994060516
1771073917147990300,6.786990234375,-0.1067962646484375,0.0009617805480957031,-0.0989983081817627
1771073917157930200,6.79693017578125,-0.10629081726074219,-0.04544520378112793,-0.09629771113395691
1771073917167870200,6.8068701171875,-0.06561279296875,-0.05602622032165527,-0.0740407407283783
1771073917177810200,6.81681005859375,-0.011138916015625,-0.04126596450805664,-0.039069026708602905
1771073917187750100,6.826750244140625,0.023988723754882812,-0.018262386322021484,0.00719800591468811
1771073917197690000,6.836690185546875,-0.02363300323486328,0.003793001174926758,-0.0011882483959197998
1771073917207630300,6.84663037109375,-0.03513813018798828,0.004297971725463867,-0.026181429624557495
1771073917217570300,6.8565703125,0.007576942443847656,0.040392398834228516,-0.003711909055709839
1771073917227510300,6.86651025390625,0.05180931091308594,0.043196916580200195,0.021044105291366577
1771073917237450200,6.8764501953125,0.01991558074951172,-0.005757331848144531,0.008345156908035278
1771073917247390200,6.88639013671875,-0.014009475708007812,-0.05814051628112793,0.04090949892997742
1771073917257330200,6.896330078125,0.006554603576660156,-0.06680583953857422,0.057291239500045776
1771073917267270100,6.906270263671875,0.012682914733886719,-0.04491019248962402,0.07257965207099915
1771073917277210000,6.916210205078125,0.05895042419433594,-0.0215909481048584,0.04126089811325073
1771073917287150300,6.926150390625,0.06244087219238281,0.03109884262084961,0.012524813413619995
1771073917297090300,6.93609033203125,0.10392284393310547,0.051460981369018555,-0.021054863929748535
1771073917307030300,6.9460302734375,0.1049346923828125,0.04973745346069336,-0.021341532468795776
1771073917316970200,6.95597021484375,0.051850318908691406,0.04078960418701172,-0.02591845393180847
1771073917326910200,6.96591015625,0.02299022674560547,0.02774667739868164,-0.027931392192840576
1771073917336850200,6.97585009765625,0.053177833557128906,0.017932415008544922,-0.013096928596496582
1771073917346790100,6.9857900390625,0.0638742446899414,0.02268218994140625,0.004952579736709595
1771073917356730000,6.995730224609375,0.07210636138916016,0.0012536048889160156,-0.0002678334712982178
1771073917366670300,7.00567041015625,0.05457592010498047,-0.025180578231811523,-0.0427892804145813
1771073917376610300,7.0156103515625,0.02341461181640625,-0.05163288116455078,-0.06362661719322205
1771073917386550300,7.02555029296875,0.0189971923828125,-0.04071450233459473,-0.020857542753219604
1771073917396490200,7.035490234375,-0.0369720458984375,-0.009163141250610352,0.02327251434326172
1771073917406430200,7.04543017578125,-0.06371116638183594,0.00762939453125,0.04078269004821777
1771073917416370200,7.0553701171875,-0.07839775085449219,0.015092849731445312,0.020599156618118286
1771073917426310100,7.06531005859375,-0.057862281799316406,0.0067026615142822266,-0.019916385412216187
1771073917436250000,7.07525,-0.035605430603027344,-0.005596160888671875,-0.042983219027519226
1771073917446190300,7.0851904296875,-0.018622398376464844,-0.003091573715209961,-0.04709833860397339
1771073917456130300,7.09513037109375,-0.0018291473388671875,0.008601903915405273,-0.04454907774925232
1771073917466070300,7.1050703125,0.024316787719726562,0.01963043212890625,-0.023634836077690125
1771073917476010200,7.11501025390625,0.02437305450439453,0.020500659942626953,-0.010265499353408813
1771073917485950200,7.1249501953125,0.026953697204589844,0.009216547012329102,0.0024272501468658447
1771073917495890200,7.13489013671875,0.01318359375,-0.004596710205078125,0.01437428593635559
1771073917505830100,7.144830078125,-0.0544891357421875,-0.018184900283813477,0.05153939127922058
1771073917515770000,7.15477001953125,-0.062323570251464844,-0.040595293045043945,0.05473834276199341
1771073917525710300,7.16471044921875,-0.06800270080566406,-0.06894803047180176,0.05345556139945984
1771073917535650300,7.174650390625,-0.059935569763183594,-0.07460975646972656,0.050919920206069946
1771073917545590300,7.18459033203125,-0.031111717224121094,-0.06775498390197754,0.049026668071746826
1771073917565470200,7.20447021484375,0.10425567626953125,0.04831075668334961,0.031097769737243652
1771073917575410200,7.21441015625,0.08847999572753906,0.09201431274414062,0.03791224956512451
1771073917585350100,7.22435009765625,0.06380176544189453,0.08968925476074219,0.006691336631774902
1771073917595290000,7.2342900390625,0.016069412231445312,0.033072710037231445,0.004255563020706177
1771073917605230300,7.244230224609375,-0.03337383270263672,-0.02927875518798828,0.02731683850288391
1771073917615170300,7.25417041015625,-0.004558563232421875,-0.0641334056854248,0.07174280285835266
1771073917625110300,7.2641103515625,-0.00469970703125,-0.06027412414550781,0.08099442720413208
1771073917635050200,7.27405029296875,-0.035449981689453125,-0.03530120849609375,0.0598333477973938
1771073917644990200,7.283990234375,-0.053894996643066406,-0.0131072998046875,0.014855176210403442
1771073917654930200,7.29393017578125,-0.010761260986328125,0.010977745056152344,-0.008838355541229248
1771073917664870100,7.3038701171875,0.029387474060058594,0.015642881393432617,-0.02068573236465454
1771073917674810000,7.31381005859375,0.017119407653808594,-0.0033922195434570312,-0.03272305428981781
1771073917684750300,7.323750244140625,-0.009135246276855469,0.015747785568237305,-0.0004284977912902832
1771073917694690300,7.333690185546875,0.02379608154296875,0.0018889904022216797,0.005057007074356079
1771073917704630300,7.34363037109375,0.06310272216796875,-0.016161680221557617,0.022795945405960083
1771073917714570200,7.3535703125,0.035808563232421875,-0.022136926651000977,0.041039615869522095
1771073917724510200,7.36351025390625,0.051422119140625,-0.011724710464477539,0.06866344809532166
1771073917734450200,7.3734501953125,0.08826732635498047,-0.03520488739013672,0.04710748791694641
1771073917744390100,7.38339013671875,0.0684194564819336,-0.02166128158569336,0.0030487775802612305
1771073917754330000,7.393330078125,-0.021340370178222656,0.01671004295349121,-0.052847832441329956
1771073917764270300,7.403270263671875,-0.050601959228515625,0.04955244064331055,-0.08179014921188354
1771073917774210300,7.413210205078125,0.0005283355712890625,0.04220700263977051,-0.09445039927959442
1771073917784150300,7.423150390625,-0.020130157470703125,-0.02085137367248535,-0.11096826195716858
1771073917794090200,7.43309033203125,-0.05966472625732422,-0.07729578018188477,-0.07713082432746887
1771073917804030200,7.4430302734375,-0.016277313232421875,-0.08072447776794434,-0.022108227014541626
1771073917813970200,7.45297021484375,0.038376808166503906,-0.032872915267944336,0.009362131357192993
1771073917823910100,7.46291015625,0.07379722595214844,0.04826211929321289,-0.006123393774032593
1771073917833850000,7.47285009765625,0.125579833984375,0.11514449119567871,-0.060879603028297424
1771073917843790300,7.482790283203125,0.11576557159423828,0.12564826011657715,-0.10510587692260742
1771073917853730300,7.492730224609375,0.03096294403076172,0.09324193000793457,-0.07660052180290222
1771073917863670300,7.502670166015625,-0.03132152557373047,0.040476083755493164,-0.009882450103759766
1771073917873610200,7.5126103515625,-0.08117866516113281,-0.02459883689880371,0.01736089587211609
1771073917883550200,7.52255029296875,-0.1332836151123047,-0.0492398738861084,0.04641127586364746
1771073917893490200,7.532490234375,-0.13583087921142578,-0.03177785873413086,0.06176024675369263
1771073917903430100,7.54243017578125,-0.12229251861572266,0.00042724609375,0.06421095132827759
1771073917913370000,7.5523701171875,-0.08091259002685547,0.015964031219482422,0.011320620775222778
1771073917923310300,7.562310302734375,-0.07315826416015625,0.009952306747436523,-0.05413354933261871
1771073917933250300,7.572250244140625,-0.12656402587890625,-0.019869089126586914,-0.10039633512496948
1771073917943190300,7.582190185546875,-0.20724105834960938,-0.04221057891845703,-0.06781584024429321
1771073917953130200,7.592130126953125,-0.2584056854248047,-0.04976153373718262,-0.01609651744365692
1771073917963070200,7.6020703125,-0.22438430786132812,-0.06085801124572754,0.010271310806274414
1771073917973010200,7.61201025390625,-0.11368846893310547,-0.04482722282409668,0.06440874934196472
1771073917982950100,7.6219501953125,0.04202747344970703,0.0043566226959228516,0.13259559869766235
1771073917992890000,7.63189013671875,0.16460895538330078,0.08076810836791992,0.1463373899459839
1771073918002830300,7.641830322265625,0.2831907272338867,0.11021661758422852,0.09451785683631897
1771073918012770300,7.651770263671875,0.379241943359375,0.09058666229248047,0.01104205846786499
1771073918022710300,7.661710205078125,0.3166933059692383,0.057740211486816406,-0.020762205123901367
1771073918032650200,7.671650146484375,0.17335128784179688,0.000591278076171875,-0.03320123255252838
1771073918042590200,7.681590087890625,0.051364898681640625,-0.04646039009094238,-0.06240682303905487
1771073918052530200,7.6915302734375,-0.012299537658691406,-0.07811641693115234,-0.07210609316825867
1771073918062470100,7.70147021484375,-0.05637836456298828,-0.08973979949951172,-0.06211721897125244
1771073918072410000,7.71141015625,-0.08826923370361328,-0.06038331985473633,-0.022024139761924744
1771073918082350300,7.721350341796875,-0.11744403839111328,-0.047524452209472656,0.004428178071975708
1771073918092290300,7.731290283203125,-0.14385509490966797,-0.05814528465270996,0.000641554594039917
1771073918102230300,7.741230224609375,-0.10408401489257812,-0.0751805305480957,-0.006262868642807007
1771073918112170200,7.751170166015625,-0.05803108215332031,-0.07516908645629883,0.0009405314922332764
1771073918122110200,7.761110107421875,-0.026825904846191406,-0.04934811592102051,0.03610217571258545
1771073918132050200,7.77105029296875,0.015665054321289062,-0.02406144142150879,0.07102522253990173
1771073918141990100,7.780990234375,0.019829750061035156,0.007666587829589844,0.05244436860084534
1771073918151930000,7.79093017578125,0.009808540344238281,0.01993250846862793,-0.007097572088241577
1771073918161870300,7.800870361328125,0.04470634460449219,0.015429258346557617,-0.034508541226387024
1771073918171810300,7.810810302734375,0.07206153869628906,0.02250075340270996,-0.0020723342895507812
1771073918181750300,7.820750244140625,0.04736137390136719,0.007790565490722656,0.03013056516647339
1771073918191690200,7.830690185546875,0.037247657775878906,-0.009138345718383789,0.00290033221244812
1771073918201630200,7.840630126953125,0.03425312042236328,-0.027861833572387695,-0.05707605183124542
1771073918211570200,7.850570068359375,0.035880088806152344,-0.022351741790771484,-0.09578454494476318
1771073918221510100,7.86051025390625,0.07041549682617188,-0.0027112960815429688,-0.08726884424686432
1771073918231450000,7.8704501953125,0.04783058166503906,0.016695022583007812,-0.06241503357887268
1771073918241390300,7.880390380859375,0.009190559387207031,0.07098841667175293,-0.014552116394042969
1771073918251330300,7.890330322265625,0.030071258544921875,0.0796349048614502,0.034374237060546875
1771073918261270300,7.900270263671875,0.050586700439453125,0.05517435073852539,0.03599974513053894
1771073918271210200,7.910210205078125,0.03079986572265625,0.0073969364166259766,0.040525972843170166
1771073918281150200,7.920150146484375,0.025663375854492188,-0.04239463806152344,0.03323143720626831
1771073918291090200,7.930090087890625,0.01605701446533203,-0.08701109886169434,0.016760975122451782
1771073918301030100,7.940030029296875,-0.005176544189453125,-0.0932016372680664,0.01269620656967163
1771073918310970000,7.94997021484375,-0.05196666717529297,-0.07338380813598633,0.020817339420318604
1771073918320910300,7.959910400390625,-0.07207298278808594,-0.039772987365722656,0.03562578558921814
1771073918330850300,7.969850341796875,-0.06831932067871094,-0.0019257068634033203,0.04481184482574463
1771073918340790300,7.979790283203125,-0.050628662109375,0.014374256134033203,0.023545950651168823
1771073918350730200,7.989730224609375,-0.10163021087646484,0.02126026153564453,0.014579564332962036
1771073918360670200,7.999670166015625,-0.1165313720703125,0.025861263275146484,0.0005338788032531738
1771073918370610200,8.009610107421874,-0.04889678955078125,0.007119894027709961,-0.020580455660820007
1771073918380550100,8.019550048828124,-0.0483551025390625,0.012332439422607422,-0.03888222575187683
1771073918390490000,8.029489990234374,-0.0808868408203125,0.020100116729736328,-0.019890502095222473
1771073918400430300,8.039430419921874,-0.042339324951171875,0.039789438247680664,0.00011268258094787598
1771073918410370300,8.049370361328124,0.016679763793945312,0.07345795631408691,0.02909332513809204
1771073918420310300,8.059310302734374,0.0017747879028320312,0.07350659370422363,0.026971876621246338
1771073918430250200,8.069250244140624,0.036614418029785156,0.040493011474609375,0.036310940980911255
1771073918440190200,8.079190185546874,0.03559303283691406,0.007936239242553711,0.010366231203079224
1771073918450130200,8.089130126953124,0.006275177001953125,-0.00985860824584961,-0.0026280879974365234
1771073918460070100,8.099070068359374,-0.046273231506347656,-0.0010807514190673828,0.006262540817260742
1771073918470011000,8.109010986328125,-0.046344757080078125,0.0315549373626709,0.014898359775543213
1771073918479951000,8.118951171875,0.045368194580078125,0.040197134017944336,0.037329256534576416
1771073918489891000,8.12889111328125,0.0839071273803711,0.024779081344604492,0.055050939321517944
1771073918499831000,8.1388310546875,0.07500362396240234,0.0018990039825439453,0.05114161968231201
1771073918509771000,8.14877099609375,0.05708599090576172,-0.03057718276977539,0.030350178480148315
1771073918519711000,8.1587109375,0.037253379821777344,-0.05817461013793945,0.015227526426315308
1771073918529651000,8.16865087890625,-0.02688312530517578,-0.05498909950256348,0.0034984946250915527
1771073918539591200,8.178591064453125,-0.0712270736694336,-0.03744769096374512,-0.015418261289596558
1771073918549531100,8.18853125,-0.046718597412109375,-0.024530887603759766,-0.04112263023853302
1771073918559471000,8.19847119140625,-0.036826133728027344,-0.013991117477416992,-0.0546136200428009
1771073918569411000,8.2084111328125,-0.08366775512695312,0.003625154495239258,-0.05896952748298645
1771073918579351000,8.21835107421875,-0.06163501739501953,-0.004479885101318359,-0.0639464408159256
1771073918589291000,8.228291015625,-0.004856109619140625,-0.01904296875,-0.04759819805622101
1771073918599231000,8.23823095703125,0.008542060852050781,-0.03797292709350586,-0.04045914113521576
1771073918609171000,8.2481708984375,0.03827857971191406,-0.04265093803405762,-0.031044870615005493
1771073918619111200,8.258111083984375,0.06058979034423828,-0.028696537017822266,-0.04815186560153961
1771073918629051100,8.268051025390625,0.06625652313232422,0.010458707809448242,-0.03704245388507843
1771073918638991000,8.2779912109375,0.022535324096679688,0.034552574157714844,-0.026919513940811157
1771073918648931000,8.28793115234375,-0.018121719360351562,0.032441139221191406,-0.01997387409210205
1771073918658871000,8.29787109375,0.005260467529296875,0.021417856216430664,0.008191734552383423
1771073918668811000,8.30781103515625,0.02092266082763672,-0.0006322860717773438,0.03682231903076172
1771073918678751000,8.3177509765625,0.04575538635253906,-0.010642290115356445,0.04470774531364441
1771073918688691000,8.32769091796875,0.0749807357788086,-0.001943349838256836,0.03208637237548828
1771073918698631200,8.337631103515625,0.09928131103515625,0.0035963058471679688,0.02003532648086548
1771073918708571100,8.347571044921875,0.06697654724121094,0.015355587005615234,-0.014850527048110962
1771073918718511000,8.357510986328125,-0.0071582794189453125,0.008078813552856445,-0.028167307376861572
1771073918728451000,8.367451171875,-0.004788398742675781,-0.01300954818725586,-0.02758997678756714
1771073918738391000,8.37739111328125,0.0138702392578125,-0.026300668716430664,-0.03439149260520935
1771073918748331000,8.3873310546875,-0.017296791076660156,-0.01327967643737793,0.0010311007499694824
1771073918758271000,8.39727099609375,-0.029186248779296875,-0.009711980819702148,0.014660537242889404
1771073918768211000,8.4072109375,0.006239891052246094,-0.015717744827270508,0.02367451786994934
1771073918778151200,8.417151123046875,-0.0012683868408203125,-0.007596492767333984,0.011616021394729614
1771073918788091100,8.427091064453125,-0.025171279907226562,-0.0065801143646240234,-0.004950195550918579
1771073918798031000,8.437031005859374,-0.02994537353515625,-0.05709195137023926,-0.05706225335597992
1771073918807971000,8.44697119140625,0.012387275695800781,-0.05475616455078125,-0.026877492666244507
1771073918817911000,8.4569111328125,0.02110004425048828,-0.024295568466186523,0.014309287071228027
1771073918827851000,8.46685107421875,0.029854774475097656,-0.006581783294677734,0.012806475162506104
1771073918837791000,8.476791015625,0.015030860900878906,0.003493785858154297,-0.002516448497772217
1771073918847731000,8.48673095703125,0.012223243713378906,0.013407230377197266,0.00597342848777771
1771073918857671200,8.496671142578125,0.014081954956054688,0.030402660369873047,0.02170500159263611
1771073918867611100,8.506611083984374,0.00644683837890625,0.004831075668334961,0.0067556798458099365
1771073918877551000,8.516551025390624,-0.008077621459960938,-0.008633613586425781,0.01772606372833252
1771073918887491000,8.526490966796874,-0.012763023376464844,0.005997896194458008,0.044417738914489746
1771073918897431000,8.53643115234375,0.022764205932617188,0.01303243637084961,0.05449038743972778
1771073918907371000,8.54637109375,0.00363922119140625,0.014945268630981445,0.02786022424697876
1771073918917311000,8.55631103515625,-0.005759239196777344,0.005042552947998047,-0.002595573663711548
1771073918927251000,8.5662509765625,0.0225982666015625,0.01197195053100586,-0.03517886996269226
1771073918947131100,8.586131103515624,0.018598556518554688,0.018435239791870117,-0.0341106653213501
1771073918957071000,8.596071044921874,-0.06651973724365234,0.015833377838134766,-0.060909077525138855
1771073918967011000,8.606010986328124,-0.05372810363769531,0.011119842529296875,-0.07940617203712463
1771073918976951000,8.615950927734374,0.00589752197265625,0.008944511413574219,-0.06479315459728241
1771073918986891000,8.62589111328125,0.010408401489257812,0.02320384979248047,-0.02901896834373474
1771073918996831000,8.6358310546875,0.03849029541015625,0.04174399375915527,0.021929830312728882
1771073919006771000,8.64577099609375,0.09220409393310547,0.02654099464416504,0.053086936473846436
1771073919016711200,8.655711181640624,0.10050582885742188,0.011023759841918945,0.03982105851173401
1771073919026651100,8.665651123046874,0.06878662109375,0.011870622634887695,0.024983584880828857
1771073919036591000,8.675591064453124,-0.0024366378784179688,-0.010839700698852539,0.02480006217956543
1771073919046531000,8.685531005859374,-0.03265380859375,-0.03270292282104492,0.015389591455459595
1771073919056471000,8.695470947265624,-0.03453540802001953,-0.03914308547973633,0.032821863889694214
1771073919066411000,8.705410888671874,-0.0036115646362304688,-0.03804755210876465,0.008547753095626831
1771073919076351000,8.71535107421875,-0.017894744873046875,0.005310535430908203,-0.01057356595993042
1771073919086291000,8.725291015625,-0.03402519226074219,0.028543949127197266,-0.053776130080223083
1771073919096231200,8.735231201171874,-0.06845760345458984,0.034348249435424805,-0.07120397686958313
1771073919106171100,8.745171142578124,-0.10216617584228516,0.03742408752441406,-0.04693968594074249
1771073919116111000,8.755111083984374,-0.16598224639892578,0.024158716201782227,-0.026035070419311523
1771073919126051000,8.765051025390624,-0.13953208923339844,0.0000069141387939453125,0.0057062506675720215
1771073919135991000,8.774990966796874,-0.06673622131347656,-0.037210702896118164,0.025762349367141724
1771073919145931000,8.784930908203124,-0.054352760314941406,-0.042447805404663086,0.04850739240646362
1771073919155871000,8.79487109375,0.011806488037109375,-0.04016399383544922,0.04529634118080139
1771073919165811000,8.80481103515625,0.0816030502319336,-0.023891687393188477,0.04014444351196289
1771073919175751200,8.814751220703124,0.09627342224121094,0.01753067970275879,0.0449887216091156
1771073919185691100,8.824691162109374,0.10620594024658203,0.031894683837890625,0.05393931269645691
1771073919195631000,8.834631103515624,0.12332534790039062,0.028878211975097656,0.06479999423027039
1771073919205571000,8.844571044921874,0.0697622299194336,0.020635604858398438,0.033368706703186035
1771073919215511000,8.854510986328124,0.012499809265136719,0.021663665771484375,0.021428942680358887
1771073919225451000,8.864450927734374,0.04093170166015625,0.02032017707824707,0.026636332273483276
1771073919235391000,8.874390869140624,0.04526710510253906,0.026161670684814453,0.009351640939712524
1771073919245331000,8.8843310546875,0.035393714904785156,0.03191208839416504,-0.004995435476303101
1771073919255271200,8.894271240234374,0.011531829833984375,0.01175999641418457,-0.01002088189125061
1771073919265211100,8.904211181640624,-0.042519569396972656,-0.03159642219543457,-0.024981141090393066
1771073919275151000,8.914151123046874,-0.07685279846191406,-0.05765056610107422,-0.024040281772613525
1771073919285091000,8.924091064453124,-0.04950237274169922,-0.05708622932434082,-0.019047439098358154
1771073919295031000,8.934031005859374,-0.04853343963623047,-0.05878305435180664,-0.038174182176589966
1771073919304971000,8.943970947265624,-0.02636241912841797,-0.06280303001403809,-0.043831586837768555
1771073919314911000,8.953910888671874,0.045006752014160156,-0.06232500076293945,-0.05677779018878937
1771073919324851000,8.963850830078124,0.025870323181152344,-0.04339456558227539,-0.04559105634689331
1771073919334791200,8.973791259765624,-0.03541851043701172,-0.043421030044555664,-0.03891092538833618
1771073919344731100,8.983731201171874,-0.07239246368408203,-0.031105518341064453,-0.013252437114715576
1771073919354671000,8.993671142578124,-0.06429576873779297,-0.013631582260131836,0.026104360818862915
1771073919364611000,9.003611083984374,-0.0117034912109375,-0.007942438125610352,0.043095141649246216
1771073919374551000,9.013551025390624,0.04488849639892578,0.0019898414611816406,0.05006536841392517
1771073919384491000,9.023490966796874,0.07483196258544922,0.008937835693359375,0.04294103384017944
1771073919394431000,9.033430908203124,0.07150650024414062,0.02471637725830078,0.03625553846359253
1771073919404371000,9.043370849609374,0.09189796447753906,0.03052830696105957,0.02976056933403015
1771073919414311200,9.053311279296874,0.06493186950683594,0.05017566680908203,0.035598695278167725
1771073919424251100,9.063251220703124,0.05022239685058594,0.07880687713623047,0.03688308596611023
1771073919434191000,9.073191162109374,0.012004852294921875,0.048562049865722656,0.008033573627471924
1771073919444131000,9.083131103515624,-0.07532215118408203,-0.01819586753845215,-0.01239025592803955
1771073919454071000,9.093071044921874,-0.13802051544189453,-0.05004477500915527,-0.02024856209754944
1771073919464011000,9.103010986328124,-0.131622314453125,-0.050205230712890625,-0.0024275779724121094
1771073919473951000,9.112950927734374,-0.05240821838378906,-0.03135085105895996,0.017008185386657715
1771073919483891000,9.122890869140624,0.02090930938720703,-0.010746479034423828,0.026447534561157227
1771073919493831200,9.1328310546875,0.09326648712158203,-0.02400994300842285,0.020894914865493774
1771073919503771100,9.142771240234374,0.1458292007446289,-0.02820277214050293,-0.010570526123046875
1771073919513711000,9.152711181640624,0.19071197509765625,-0.03061699867248535,-0.045777827501297
1771073919523651000,9.162651123046874,0.18321895599365234,-0.016966819763183594,-0.018409132957458496
1771073919533591000,9.172591064453124,0.09585285186767578,-0.001377105712890625,0.01650291681289673
1771073919543531000,9.182531005859374,0.04071044921875,-0.007616758346557617,0.02021312713623047
1771073919563411000,9.202410888671874,-0.15554332733154297,-0.012990236282348633,-0.06854721903800964
1771073919573351200,9.21235107421875,-0.2090616226196289,-0.016071319580078125,-0.05774100124835968
1771073919583291100,9.222291015625,-0.21953678131103516,-0.01851511001586914,-0.05486990511417389
1771073919593231000,9.232231201171874,-0.20651531219482422,-0.02740788459777832,-0.05276672542095184
1771073919603171000,9.242171142578124,-0.16097640991210938,-0.03322792053222656,-0.04177403450012207
1771073919613111000,9.252111083984374,-0.07153511047363281,0.00832223892211914,-0.024181514978408813
1771073919623051000,9.262051025390624,0.030501365661621094,0.04455852508544922,0.00026035308837890625
1771073919632991000,9.271990966796874,0.0720205307006836,0.077728271484375,0.022138774394989014
1771073919642931000,9.281930908203124,0.13180160522460938,0.10769271850585938,0.017993062734603882
1771073919652871200,9.29187109375,0.1624898910522461,0.12263989448547363,0.00953906774520874
1771073919662811100,9.30181103515625,0.14561748504638672,0.10897111892700195,-0.00782012939453125
1771073919672751000,9.311751220703124,0.10311698913574219,0.06255769729614258,-0.022002696990966797
1771073919682691000,9.321691162109374,0.037792205810546875,0.016817808151245117,-0.03502720594406128
1771073919692631000,9.331631103515624,-0.054665565490722656,-0.03531312942504883,-0.023956984281539917
1771073919702571000,9.341571044921874,-0.11263561248779297,-0.025269508361816406,0.019046545028686523
1771073919712511000,9.351510986328124,-0.09665298461914062,-0.0035343170166015625,0.05304005742073059
1771073919722451000,9.361450927734374,-0.05975818634033203,0.0014519691467285156,0.05972811579704285
1771073919732391200,9.37139111328125,-0.06341552734375,-0.029137849807739258,0.04010140895843506
1771073919742331100,9.3813310546875,-0.06006431579589844,-0.05891823768615723,0.01576167345046997
1771073919752271000,9.39127099609375,0.020911216735839844,-0.06464338302612305,0.04144364595413208
1771073919762211000,9.401211181640624,0.05108833312988281,-0.07271122932434082,0.06798121333122253
1771073919772151000,9.411151123046874,0.036177635192871094,-0.07641005516052246,0.05327486991882324
1771073919782091000,9.421091064453124,0.009846687316894531,-0.06620502471923828,0.02754950523376465
1771073919792031000,9.431031005859374,0.014669418334960938,-0.0470273494720459,0.007162749767303467
1771073919801971000,9.440970947265624,0.04777336120605469,-0.011963367462158203,0.0202772319316864
1771073919811911200,9.4509111328125,0.059296607971191406,0.01742720603942871,0.007355183362960815
1771073919821851100,9.46085107421875,-0.004681587219238281,0.032189130783081055,-0.027223289012908936
1771073919831791000,9.470791015625,0.02174091339111328,0.01882457733154297,-0.05261039733886719
1771073919841731000,9.48073095703125,0.026248931884765625,0.020466327667236328,-0.02327820658683777
1771073919851671000,9.490671142578124,-0.052051544189453125,0.013405323028564453,-0.0009506344795227051
1771073919861611000,9.500611083984374,-0.07289409637451172,0.004936695098876953,-0.019046545028686523
1771073919871551000,9.510551025390624,-0.058310508728027344,-0.005190134048461914,-0.060397982597351074
1771073919881491000,9.520490966796874,-0.032332420349121094,0.00877833366394043,-0.07603035867214203
1771073919891431200,9.53043115234375,0.04991722106933594,0.059821128845214844,-0.03391927480697632
1771073919901371100,9.54037109375,0.12421989440917969,0.07828211784362793,0.0024466514587402344
1771073919911311000,9.55031103515625,0.12014579772949219,0.043328285217285156,0.021859169006347656
1771073919921251000,9.5602509765625,0.08594608306884766,-0.008556127548217773,0.03231900930404663
1771073919931191000,9.57019091796875,0.02626514434814453,-0.035752058029174805,0.05069679021835327
1771073919941131000,9.580131103515624,0.0025701522827148438,-0.04065418243408203,0.07011809945106506
1771073919951071000,9.590071044921874,-0.016448974609375,-0.013948678970336914,0.08328726887702942
1771073919961011000,9.600010986328124,0.0234222412109375,-0.012946367263793945,0.04011937975883484
1771073919970951200,9.609951171875,0.015547752380371094,0.013934135437011719,0.03057733178138733
1771073919980891100,9.61989111328125,0.024431228637695312,0.0024111270904541016,0.025139987468719482
1771073919990831000,9.6298310546875,0.05229759216308594,-0.026055335998535156,0.0003973245620727539
1771073920000771000,9.63977099609375,-0.016500473022460938,-0.0477294921875,-0.021899104118347168
1771073920010711000,9.6497109375,-0.07690811157226562,-0.06705617904663086,-0.06103859841823578
1771073920020651000,9.659651123046874,-0.12926769256591797,-0.07653427124023438,-0.08145132660865784
1771073920030591000,9.669591064453124,-0.15735244750976562,-0.08311033248901367,-0.05990611016750336
1771073920040531000,9.679531005859374,-0.17597389221191406,-0.07441282272338867,-0.006346166133880615
1771073920050471200,9.68947119140625,-0.11926555633544922,-0.06746363639831543,0.020478159189224243
1771073920060411100,9.6994111328125,-0.054424285888671875,-0.04575681686401367,0.0333842933177948
1771073920070351000,9.70935107421875,0.013772010803222656,-0.026111602783203125,0.04127320647239685
1771073920080291000,9.719291015625,0.1280050277709961,-0.011688947677612305,0.04178065061569214
1771073920090231000,9.72923095703125,0.2124185562133789,0.0063610076904296875,0.035777539014816284
1771073920100171000,9.7391708984375,0.17341899871826172,0.030144214630126953,0.02808132767677307
1771073920110111000,9.749111083984374,0.14009952545166016,0.06219935417175293,0.022680461406707764
1771073920120051000,9.759051025390624,0.18764400482177734,0.060108184814453125,-0.005744904279708862
1771073920129991200,9.7689912109375,0.15676116943359375,0.05306506156921387,-0.01538306474685669
1771073920139931100,9.77893115234375,0.03931903839111328,0.03181934356689453,-0.006989419460296631
1771073920149871000,9.78887109375,-0.038636207580566406,-0.0004718303680419922,-0.07921043038368225
1771073920159811000,9.79881103515625,-0.07807731628417969,-0.026528596878051758,-0.04553329944610596
1771073920169751000,9.8087509765625,-0.19461822509765625,0.12465429306030273,0.07608753442764282
1771073920179691000,9.81869091796875,-0.1253366470336914,0.05630302429199219,-0.09366413950920105
1771073920189631000,9.828630859375,-0.043250083923339844,0.010771512985229492,-0.17482443153858185
1771073920199571000,9.838571044921874,-0.02624034881591797,-0.03132224082946777,-0.16736938059329987
1771073920209511200,9.84851123046875,-0.035508155822753906,-0.04189562797546387,-0.07507918775081635
1771073920219451100,9.858451171875,-0.06572532653808594,-0.0030481815338134766,0.0038333237171173096
1771073920229391000,9.86839111328125,-0.017583847045898438,0.013664960861206055,0.01905319094657898
1771073920239331000,9.8783310546875,-0.007740020751953125,0.01087641716003418,0.005498170852661133
1771073920249271000,9.88827099609375,-0.059287071228027344,0.015182733535766602,0.0069609880447387695
1771073920259211000,9.8982109375,-0.10081005096435547,-0.010633468627929688,-0.026367872953414917
1771073920269151000,9.90815087890625,-0.09491825103759766,-0.03281402587890625,-0.05671878159046173
1771073920279091000,9.918091064453124,-0.06338214874267578,-0.021282196044921875,-0.04439888894557953
1771073920289031200,9.92803125,-0.05594635009765625,-0.00513768196105957,0.0027100741863250732
1771073920298971100,9.93797119140625,-0.055718421936035156,0.0014140605926513672,0.024929851293563843
1771073920308911000,9.9479111328125,-0.04136466979980469,0.0031540393829345703,0.030126631259918213
1771073920318851000,9.95785107421875,-0.034256935119628906,0.014188528060913086,0.05595803260803223
1771073920328791000,9.967791015625,0.04816722869873047,0.015432357788085938,0.062002986669540405
1771073920338731000,9.97773095703125,0.11539077758789062,0.015898466110229492,0.0709809958934784
1771073920348671000,9.9876708984375,0.049938201904296875,0.03678488731384277,0.06913110613822937
1771073920358611000,9.99761083984375,-0.0025720596313476562,0.04535245895385742,0.03921854496002197
1771073920368551200,10.00755126953125,0.023408889770507812,0.037480831146240234,0.012104839086532593
1771073920378491100,10.0174912109375,0.08176994323730469,0.013544321060180664,-0.009045809507369995
1771073920388431000,10.02743115234375,0.09916019439697266,-0.012434959411621094,-0.005912184715270996
1771073920398371000,10.03737109375,0.13050174713134766,-0.031198978424072266,-0.002737075090408325
1771073920408311000,10.04731103515625,0.1096334457397461,-0.03815650939941406,-0.008697092533111572
1771073920418251000,10.0572509765625,0.06559371948242188,-0.019194602966308594,-0.01173505187034607
1771073920428191000,10.06719091796875,0.05281257629394531,0.016124963760375977,0.0064810216426849365
1771073920448071200,10.0870712890625,0.02113819122314453,0.02657294273376465,0.06879645586013794
1771073920458011100,10.09701123046875,0.039839744567871094,-0.0026330947875976562,0.06752961874008179
1771073920467951400,10.106951416015624,0.06545829772949219,-0.024658203125,0.0683717429637909
1771073920477891300,10.116891357421874,0.05319976806640625,-0.04216957092285156,0.07917901873588562
1771073920487831300,10.126831298828124,0.01062774658203125,-0.04083895683288574,0.05546805262565613
1771073920497771500,10.136771484375,-0.05727958679199219,-0.0580897331237793,0.00020802021026611328
1771073920507711500,10.14671142578125,-0.0937356948852539,-0.05320549011230469,-0.046827077865600586
1771073920517651500,10.1566513671875,-0.0733785629272461,-0.045383453369140625,-0.05016462504863739
1771073920527591700,10.166591796875,-0.09360504150390625,-0.037129878997802734,-0.06804081797599792
1771073920537531600,10.17653173828125,-0.08759307861328125,-0.03833174705505371,-0.08239419758319855
1771073920547471600,10.1864716796875,-0.0650949478149414,-0.04440641403198242,-0.09032756090164185
1771073920557411800,10.196411865234374,-0.06171607971191406,-0.03407549858093262,-0.09395265579223633
1771073920567351800,10.206351806640624,-0.04665565490722656,-0.019106149673461914,-0.06015428900718689
1771073920577291800,10.216291748046874,-0.034316062927246094,-0.008816957473754883,-0.03168177604675293
1771073920587232000,10.22623193359375,-0.045866966247558594,-0.012465238571166992,0.003015369176864624
1771073920597172000,10.236171875,-0.03154277801513672,-0.010794401168823242,0.022511601448059082
1771073920607112000,10.24611181640625,-0.0010929107666015625,0.012312650680541992,0.02989673614501953
1771073920617052200,10.25605224609375,0.047654151916503906,0.03502821922302246,0.024047523736953735
1771073920626992000,10.2659921875,0.050907135009765625,0.03834390640258789,-0.004311501979827881
1771073920636932000,10.27593212890625,0.03530597686767578,0.043868303298950195,-0.020278632640838623
1771073920646872300,10.285872314453124,0.08133983612060547,0.05128955841064453,-0.0009708106517791748
1771073920656812300,10.295812255859374,0.1550741195678711,0.039194345474243164,0.028048455715179443
1771073920666752300,10.305752197265624,0.07947063446044922,0.03615593910217285,0.057427287101745605
1771073920676692500,10.3156923828125,-0.025735855102539062,0.012535810470581055,0.07998853921890259
1771073920686632400,10.325632568359374,-0.10144233703613281,-0.0025098323822021484,0.07032296061515808
1771073920696572400,10.335572509765624,-0.15311431884765625,-0.0061185359954833984,0.0734967589378357
1771073920706512600,10.3455126953125,-0.14338302612304688,-0.008083105087280273,0.046222835779190063
1771073920716452600,10.35545263671875,-0.09183597564697266,-0.03027796745300293,0.008163303136825562
1771073920726392600,10.365392578125,-0.019927978515625,-0.047387123107910156,-0.06549854576587677
1771073920736332500,10.37533251953125,0.10553359985351562,-0.09375381469726562,-0.11164210736751556
1771073920746272500,10.3852724609375,0.1546173095703125,-0.10880136489868164,-0.09714862704277039
1771073920756212500,10.39521240234375,0.10501766204833984,-0.0976717472076416,-0.04681403934955597
1771073920766152400,10.40515234375,0.012120246887207031,-0.03632926940917969,0.0017750561237335205
1771073920776092700,10.4150927734375,-0.0650167465209961,0.03086113929748535,0.02816241979598999
1771073920786032600,10.42503271484375,-0.07992172241210938,0.06461787223815918,0.05633959174156189
1771073920795972600,10.43497265625,-0.05734539031982422,0.07293248176574707,0.030281662940979004
1771073920805912600,10.44491259765625,0.016315460205078125,0.048890113830566406,-0.0015374422073364258
1771073920815852500,10.4548525390625,0.031950950622558594,0.04238748550415039,-0.0416264533996582
1771073920825792500,10.46479248046875,0.0895986557006836,0.026868343353271484,-0.027430012822151184
1771073920835732500,10.474732421875,0.09935760498046875,0.053621768951416016,0.014531046152114868
1771073920845672400,10.48467236328125,0.09757423400878906,0.08605170249938965,0.0676032304763794
1771073920855612700,10.49461279296875,0.07035541534423828,0.10747575759887695,0.08000245690345764
1771073920865552600,10.504552734375,0.10039138793945312,0.07834076881408691,0.05279770493507385
1771073920875492600,10.51449267578125,0.09246253967285156,0.034996747970581055,0.024896562099456787
1771073920885432600,10.5244326171875,0.058849334716796875,-0.007912158966064453,0.022301971912384033
1771073920895372500,10.53437255859375,-0.02373504638671875,-0.021674633026123047,0.00856637954711914
1771073920905312500,10.5443125,-0.08176517486572266,-0.024953603744506836,-0.009062111377716064
1771073920915252500,10.55425244140625,-0.1463613510131836,-0.008217096328735352,-0.03816881775856018
1771073920925192400,10.5641923828125,-0.16785812377929688,-0.021426916122436523,-0.07045859098434448
1771073920935132700,10.574132568359374,-0.0690450668334961,-0.04580497741699219,-0.09196363389492035
1771073920945072600,10.58407275390625,0.03544330596923828,-0.04913759231567383,-0.1023789793252945
1771073920955012600,10.5940126953125,0.04449653625488281,-0.03940105438232422,-0.09190955758094788
1771073920964952600,10.60395263671875,-0.014492988586425781,-0.05420827865600586,-0.0733073353767395
1771073920974892500,10.613892578125,-0.03242778778076172,-0.0664982795715332,-0.04377548396587372
1771073920984832500,10.62383251953125,-0.0691518783569336,-0.05447745323181152,0.0000464320182800293
1771073920994772500,10.6337724609375,-0.11285209655761719,-0.04615211486816406,0.02259039878845215
1771073921004712400,10.64371240234375,-0.03870677947998047,-0.053045034408569336,0.014606267213821411
1771073921014652700,10.653652587890624,0.06459236145019531,-0.03110027313232422,-0.006660014390945435
1771073921024592600,10.663592529296874,0.13340282440185547,-0.0052759647369384766,-0.013430550694465637
1771073921034532600,10.67353271484375,0.1805124282836914,-0.009622573852539062,-0.006400108337402344
1771073921044472600,10.68347265625,0.14762306213378906,0.04535341262817383,0.032980650663375854
1771073921054412500,10.69341259765625,0.023954391479492188,0.06766557693481445,0.05951160192489624
1771073921064352500,10.7033525390625,-0.05071544647216797,0.03346514701843262,0.03842896223068237
1771073921074292500,10.71329248046875,-0.021216392517089844,0.006041288375854492,0.021404415369033813
1771073921084232400,10.723232421875,-0.00698089599609375,0.008730173110961914,0.018537521362304688
1771073921094172700,10.733172607421874,0.030272483825683594,0.012030839920043945,-0.005001276731491089
1771073921104112600,10.743112548828124,0.060065269470214844,0.005388021469116211,-0.04081769287586212
1771073921114052600,10.753052490234374,0.07817554473876953,0.016382217407226562,-0.0421142578125
1771073921123992600,10.76299267578125,0.011765480041503906,-0.006981372833251953,-0.025571376085281372
1771073921133932500,10.7729326171875,-0.055767059326171875,-0.05848050117492676,-0.002546757459640503
1771073921143872500,10.78287255859375,-0.09412574768066406,-0.06626701354980469,0.036644041538238525
1771073921153812500,10.7928125,-0.08043384552001953,-0.023553133010864258,0.060892581939697266
1771073921163752400,10.80275244140625,-0.03431987762451172,0.021540403366088867,0.0800374448299408
1771073921173692700,10.812692626953124,-0.0080413818359375,0.03347659111022949,0.044738560914993286
1771073921183632600,10.822632568359374,-0.00577545166015625,0.0029327869415283203,0.02147895097732544
1771073921193572600,10.832572509765624,0.013065338134765625,-0.04150104522705078,0.03804349899291992
1771073921203512600,10.8425126953125,0.0130615234375,-0.06004142761230469,0.07110843062400818
1771073921213452500,10.85245263671875,0.008523941040039062,-0.06932711601257324,0.059679895639419556
1771073921223392500,10.862392578125,0.07010269165039062,-0.06705856323242188,0.004889547824859619
1771073921233332500,10.87233251953125,0.04366111755371094,-0.03223443031311035,-0.03347967565059662
1771073921243272400,10.8822724609375,-0.029432296752929688,0.030260801315307617,-0.040416061878204346
1771073921253212700,10.892212646484374,-0.05439472198486328,0.08040618896484375,-0.036136969923973083
1771073921263152600,10.902152587890624,-0.04854393005371094,0.08083248138427734,-0.04691389203071594
1771073921273092600,10.912092529296874,-0.010061264038085938,0.04649949073791504,-0.038864314556121826
1771073921283032600,10.922032470703124,0.034890174865722656,0.005589962005615234,-0.03841099143028259
1771073921292972500,10.93197265625,0.05096721649169922,-0.032561540603637695,-0.040640026330947876
1771073921302912500,10.94191259765625,0.015212059020996094,-0.040033817291259766,-0.03793591260910034
1771073921312852500,10.9518525390625,-0.036376953125,-0.0286407470703125,-0.03329746425151825
1771073921322792400,10.96179248046875,-0.061263084411621094,0.02747654914855957,-0.020083799958229065
1771073921332732700,10.971732666015624,-0.05288982391357422,0.08293390274047852,0.01643785834312439
1771073921342672600,10.981672607421874,-0.05897045135498047,0.1002504825592041,0.03582620620727539
1771073921352612600,10.991612548828124,-0.0038509368896484375,0.05162858963012695,0.0313190221786499
1771073921362552600,11.001552490234374,0.062137603759765625,-0.026880502700805664,-0.0029151737689971924
1771073921372492500,11.011492431640624,0.049468040466308594,-0.06677865982055664,-0.009956777095794678
1771073921382432500,11.0214326171875,0.06312274932861328,-0.05006265640258789,-0.0069262683391571045
1771073921392372500,11.03137255859375,0.04620361328125,-0.0013153553009033203,-0.017588704824447632
1771073921402312400,11.0413125,0.032050132751464844,0.04163002967834473,-0.00019660592079162598
1771073921412252700,11.051252685546874,0.011171340942382812,0.07425475120544434,0.016156017780303955
1771073921422192600,11.061192626953124,-0.02825641632080078,0.04294919967651367,0.02472957968711853
1771073921432132600,11.071132568359374,-0.0484619140625,-0.010724782943725586,0.021241068840026855
1771073921442072600,11.081072509765624,-0.02864360809326172,-0.0745229721069336,-0.0027616918087005615
1771073921452012500,11.091012451171874,-0.05644989013671875,-0.08969545364379883,-0.0002111196517944336
1771073921461952500,11.100952392578124,-0.046166419982910156,-0.0715641975402832,0.0024300813674926758
1771073921471892500,11.110892578125,-0.007647514343261719,-0.04233813285827637,-0.03254787623882294
1771073921481832400,11.12083251953125,-0.0024881362915039062,-0.0047380924224853516,-0.03189466893672943
1771073921491772700,11.130772705078124,-0.02785778045654297,0.005969047546386719,-0.022101402282714844
1771073921501712600,11.140712646484374,-0.06471443176269531,0.000400543212890625,-0.013245254755020142
1771073921511652600,11.150652587890624,-0.037573814392089844,-0.018732786178588867,0.020892590284347534
1771073921521592600,11.160592529296874,-0.025232315063476562,-0.030019044876098633,0.02464395761489868
1771073921531532500,11.170532470703124,-0.04857635498046875,-0.017205476760864258,0.031047046184539795
1771073921541472500,11.180472412109374,-0.008074760437011719,0.007444143295288086,0.013559132814407349
1771073921551412500,11.19041259765625,0.050591468811035156,0.02697443962097168,0.0008840858936309814
1771073921561352400,11.2003525390625,0.1036539077758789,0.04364299774169922,0.011790633201599121
1771073921571292700,11.210292724609374,0.10898780822753906,0.0382838249206543,0.0411624014377594
1771073921581232600,11.220232666015624,0.09794139862060547,0.01605701446533203,0.05396378040313721
1771073921591172600,11.230172607421874,0.058963775634765625,0.005591630935668945,0.03441977500915527
1771073921601112600,11.240112548828124,0.004215240478515625,-0.0025377273559570312,0.011227607727050781
1771073921611052500,11.250052490234374,-0.02613544464111328,-0.008086204528808594,-0.018039464950561523
1771073921620992500,11.259992431640624,-0.02775287628173828,0.0006771087646484375,-0.021389782428741455
1771073921630932500,11.269932373046874,-0.0034208297729492188,0.016354799270629883,-0.02313333749771118
1771073921640872400,11.27987255859375,0.015763282775878906,0.013027667999267578,-0.006161093711853027
1771073921650812700,11.289812744140624,-0.05029106140136719,-0.004001140594482422,-0.019811183214187622
1771073921660752600,11.299752685546874,-0.05666160583496094,-0.048339128494262695,-0.026304036378860474
1771073921670692600,11.309692626953124,-0.0254669189453125,-0.06555891036987305,-0.04418984055519104
1771073921680632600,11.319632568359374,0.00052642822265625,-0.054328203201293945,-0.03558482229709625
1771073921690572500,11.329572509765624,0.005092620849609375,-0.03668999671936035,-0.03880108892917633
1771073921700512500,11.339512451171874,0.0051364898681640625,-0.03403067588806152,-0.04990878701210022
1771073921710452500,11.349452392578126,-0.006321907043457031,-0.008423328399658203,-0.043278515338897705
1771073921720392400,11.359392333984376,-0.05276679992675781,0.007061958312988281,-0.004493415355682373
1771073921730332700,11.369332763671874,-0.03259563446044922,0.00363922119140625,0.02426779270172119
1771073921740272600,11.379272705078124,-0.03417491912841797,0.0007338523864746094,0.03476998209953308
1771073921750212600,11.389212646484374,-0.024291038513183594,-0.010794401168823242,0.024603158235549927
1771073921760152600,11.399152587890624,0.015729904174804688,-0.012061119079589844,0.013226896524429321
1771073921770092500,11.409092529296874,0.04320812225341797,-0.006059169769287109,-0.013557910919189453
1771073921780032500,11.419032470703126,0.0467987060546875,0.02546238899230957,-0.05151984095573425
1771073921789972500,11.428972412109376,0.036429405212402344,0.048932552337646484,-0.05219531059265137
1771073921799912400,11.438912353515626,0.050087928771972656,0.04310750961303711,-0.01409304141998291
1771073921809852700,11.448852783203124,0.03308391571044922,0.025225400924682617,0.01596161723136902
1771073921819792600,11.458792724609374,0.011732101440429688,0.0074460506439208984,0.0221845805644989
1771073921829732600,11.468732666015624,0.00001811981201171875,-0.019176483154296875,0.012425124645233154
1771073921839672600,11.478672607421874,-0.011722564697265625,-0.023698091506958008,-0.008100509643554688
1771073921849612500,11.488612548828126,-0.030457496643066406,0.00745391845703125,-0.01627117395401001
1771073921859552500,11.498552490234376,-0.013591766357421875,0.02876567840576172,-0.02716769278049469
1771073921869492500,11.508492431640626,0.038315773010253906,0.026181936264038086,-0.028785839676856995
1771073921879432400,11.518432373046876,0.028264999389648438,0.018657207489013672,0.009567022323608398
1771073921889372700,11.52837255859375,-0.03802299499511719,-0.017181396484375,0.03720802068710327
1771073921899312600,11.538312744140624,-0.04193687438964844,-0.04780459403991699,0.0684019923210144
1771073921909252600,11.548252685546874,-0.015181541442871094,-0.06143450736999512,0.07087868452072144
1771073921919192600,11.558192626953126,-0.014774322509765625,-0.02774834632873535,0.07346189022064209
1771073921929132500,11.568132568359376,-0.005007743835449219,-0.01572132110595703,0.05758166313171387
1771073921939072500,11.578072509765626,-0.01904582977294922,-0.0013587474822998047,0.028574645519256592
1771073921949012500,11.588012451171876,-0.002376556396484375,-0.010500669479370117,-0.004149973392486572
1771073921958952400,11.597952392578126,0.042250633239746094,-0.03126716613769531,-0.016854077577590942
1771073921968892700,11.607892578125,0.0108642578125,-0.018917083740234375,-0.02186945080757141
1771073921978832600,11.61783251953125,-0.04117298126220703,-0.0044214725494384766,-0.01545831561088562
1771073921988772600,11.627772705078126,-0.04998970031738281,0.01698923110961914,-0.01207008957862854
1771073921998712600,11.637712646484376,-0.05402088165283203,0.033521413803100586,-0.060813769698143005
1771073922008652500,11.647652587890626,-0.015600204467773438,0.028600454330444336,-0.09270383417606354
1771073922018592500,11.657592529296876,0.0056667327880859375,0.00032258033752441406,-0.1032189130783081
1771073922028532500,11.667532470703126,0.040802001953125,-0.00647425651550293,-0.05312071740627289
1771073922038472400,11.677472412109376,0.05193042755126953,-0.004021406173706055,-0.0015968680381774902
1771073922048412700,11.68741259765625,-0.05248451232910156,0.010149002075195312,0.04917210340499878
1771073922058352600,11.6973525390625,-0.1200571060180664,0.0175626277923584,0.04202592372894287
1771073922068292600,11.707292724609376,-0.06447887420654297,0.01871466636657715,0.016509920358657837
1771073922078232600,11.717232666015626,0.0134124755859375,0.03227424621582031,0.013543665409088135
1771073922088172500,11.727172607421876,0.07353973388671875,0.02197122573852539,-0.005011111497879028
1771073922098112500,11.737112548828126,0.1470508575439453,0.008827686309814453,-0.01088404655456543
1771073922108052500,11.747052490234376,0.11379718780517578,-0.0026755332946777344,-0.0004992187023162842
1771073922117992400,11.756992431640626,0.10496807098388672,-0.007670402526855469,0.018621981143951416
1771073922127932700,11.7669326171875,0.06582832336425781,-0.022368669509887695,0.040074706077575684
1771073922137872600,11.77687255859375,0.017907142639160156,-0.008570432662963867,0.049960583448410034
1771073922147812600,11.7868125,-0.041141510009765625,-0.022881507873535156,0.005478650331497192
1771073922157752600,11.796752685546876,-0.02875041961669922,-0.03883171081542969,-0.022743478417396545
1771073922167692500,11.806692626953126,0.030539512634277344,-0.05215120315551758,-0.0301201194524765
1771073922177632500,11.816632568359376,0.03245830535888672,-0.051398277282714844,-0.011649131774902344
1771073922187572500,11.826572509765626,-0.024353981018066406,-0.046318769454956055,-0.0076906681060791016
1771073922197512400,11.836512451171876,-0.07320117950439453,-0.02945876121520996,0.01757797598838806
1771073922207452700,11.84645263671875,-0.1143789291381836,-0.017122507095336914,0.019296705722808838
1771073922217392600,11.856392578125,-0.14340686798095703,-0.006599903106689453,0.023099571466445923
1771073922227332600,11.86633251953125,-0.08035564422607422,-0.002753734588623047,0.012245237827301025
1771073922237272800,11.87627294921875,-0.006622314453125,-0.0035839080810546875,0.018012642860412598
1771073922247212800,11.886212890625,0.028326034545898438,-0.007032632827758789,0.007351726293563843
1771073922257152800,11.89615283203125,0.04165840148925781,-0.015506744384765625,-0.0006835758686065674
1771073922267093000,11.906093017578126,0.019552230834960938,-0.00754094123840332,0.0048065185546875
1771073922277033000,11.916032958984376,0.03090667724609375,0.009422540664672852,0.04042139649391174
1771073922286973000,11.925972900390626,0.04201984405517578,0.028548717498779297,0.05240723490715027
1771073922296913200,11.9359130859375,-0.0012645721435546875,0.04743838310241699,0.05568268895149231
1771073922306853000,11.94585302734375,-0.006390571594238281,0.05008649826049805,0.0283220112323761
1771073922316793000,11.95579296875,0.0378875732421875,0.029425621032714844,0.003904581069946289
1771073922326733300,11.9657333984375,0.06732463836669922,0.011366844177246094,0.01345565915107727
1771073922336673300,11.97567333984375,0.061135292053222656,-0.00921940803527832,-0.0024089515209198
1771073922346613200,11.98561328125,0.0552520751953125,-0.025216341018676758,-0.02298375964164734
1771073922356553500,11.995553466796874,0.00965118408203125,-0.008452177047729492,-0.010669678449630737
1771073922366493400,12.005493408203124,-0.03745269775390625,0.007845163345336914,-0.010707288980484009
1771073922376433400,12.015433349609374,-0.09337139129638672,0.021982192993164062,-0.027653634548187256
1771073922386373400,12.025373291015624,-0.061554908752441406,0.022513389587402344,-0.01171693205833435
1771073922396313600,12.035313720703124,-0.0022373199462890625,0.009375333786010742,-0.007028371095657349
1771073922406253600,12.045253662109374,0.03243732452392578,-0.029259204864501953,-0.02946653962135315
1771073922416193500,12.055193603515624,0.0031137466430664062,-0.06997013092041016,-0.07010804116725922
1771073922426133800,12.0651337890625,-0.004431724548339844,-0.04896378517150879,-0.08512097597122192
