time,seconds_elapsed,z,y,x
1771073910448403000,0.08740283203125,0.011052110232412815,-0.0034621069207787514,0.001331579522229731
1771073910458320100,0.097320068359375,0.011052110232412815,0.027430538088083267,-0.016777902841567993
1771073910468240100,0.107240234375,0.005725792143493891,0.04340949282050133,-0.015712639316916466
1771073910478163500,0.11716357421875,0.0003994738799519837,0.03808317333459854,-0.0050600022077560425
1771073910488091100,0.127091064453125,-0.002796316985040903,0.024234747514128685,0.015180006623268127
1771073910498023000,0.13702294921875,-0.003861580742523074,0.014647374860942364,0.03968106955289841
1771073910507959300,0.146959228515625,-0.002796316985040903,0.008255792781710625,0.05779055133461952
1771073910517900000,0.156900146484375,-0.0017310534603893757,0.0050600022077560425,0.06631266325712204
1771073910527845000,0.16684521484375,0.0003994738799519837,0.0050600022077560425,0.06311687082052231
1771073910537794000,0.1767939453125,-0.0017310534603893757,0.002929474925622344,0.052464235574007034
1771073910547746300,0.186746337890625,-0.003861580742523074,0.014647374860942364,0.03328948840498924
1771073910557701400,0.196701416015625,-0.0070573715493083,0.035952646285295486,0.013049479573965073
1771073910567658500,0.206658447265625,-0.010253162123262882,0.04127896577119827,0.001331579522229731
1771073910577617000,0.216616943359375,-0.013448953628540039,0.030626330524683,0.0002663159102667123
1771073910587575800,0.226575927734375,-0.015579480677843094,0.015712639316916466,0.008788425475358963
1771073910597527800,0.23652783203125,-0.014514217153191566,0.0007989477599039674,0.023702116683125496
1771073910607467800,0.2464677734375,-0.009187898598611355,-0.00985368900001049,0.03755054250359535
1771073910617407700,0.25640771484375,-0.005992108024656773,-0.010918952524662018,0.04607265070080757
1771073910627347700,0.26634765625,-0.008122635073959827,-0.004527370445430279,0.05139897018671036
1771073910637287700,0.27628759765625,-0.011318426579236984,0.002929474925622344,0.052464235574007034
1771073910647228000,0.286227783203125,-0.019840534776449203,0.011451584286987782,0.04713791608810425
1771073910657168000,0.29616796875,-0.026232117787003517,0.018908429890871048,0.0354200154542923
1771073910667107800,0.30610791015625,-0.027297381311655045,0.01784316636621952,0.019441060721874237
1771073910677047800,0.3160478515625,-0.02516685426235199,0.010386320762336254,0.0002663159102667123
1771073910686987800,0.32598779296875,-0.018775271251797676,0.00612526573240757,-0.009321057237684727
1771073910696927700,0.335927734375,-0.012383690103888512,0.010386320762336254,-0.007190529722720385
1771073910706867700,0.34586767578125,-0.008122635073959827,0.009321057237684727,0.001331579522229731
1771073910716807700,0.3558076171875,-0.002796316985040903,0.007190529722720385,0.008788425475358963
1771073910726748000,0.365747802734375,0.0003994738799519837,0.010386320762336254,0.010918952524662018
1771073910736687900,0.37568798828125,-0.002796316985040903,0.01784316636621952,0.005592633970081806
1771073910746627800,0.3856279296875,-0.009187898598611355,0.019973693415522575,-0.0018642114009708166
1771073910756567800,0.39556787109375,-0.013448953628540039,0.016777902841567993,-0.011451584286987782
1771073910766507800,0.4055078125,-0.012383690103888512,0.016777902841567993,-0.01784316636621952
1771073910776447700,0.41544775390625,-0.011318426579236984,0.010386320762336254,-0.018908429890871048
1771073910786387700,0.4253876953125,-0.010253162123262882,-0.0023968431632965803,-0.014647374860942364
1771073910796327700,0.43532763671875,-0.004926844500005245,-0.015180006623268127,-0.003994738683104515
1771073910806268000,0.445267822265625,0.001464737462811172,-0.02263685315847397,0.004527370445430279
1771073910816208000,0.455207763671875,0.00892158318310976,-0.0141147430986166,0.005592633970081806
1771073910826147800,0.46514794921875,0.006791055668145418,0.0007989477599039674,-0.0007989477599039674
1771073910836087800,0.475087890625,-0.0017310534603893757,0.016777902841567993,-0.014647374860942364
1771073910846027800,0.48502783203125,-0.005992108024656773,0.02636527456343174,-0.03275685757398605
1771073910855967700,0.4949677734375,-0.008122635073959827,0.03488738462328911,-0.04660528525710106
1771073910865907700,0.50490771484375,-0.008122635073959827,0.030626330524683,-0.0540621280670166
1771073910875847700,0.51484765625,-0.008122635073959827,0.011451584286987782,-0.04660528525710106
1771073910885788000,0.524787841796875,-0.010253162123262882,0.0007989477599039674,-0.02210422046482563
1771073910895727900,0.534727783203125,-0.008122635073959827,0.008255792781710625,0.008788425475358963
1771073910905667800,0.544667724609375,-0.003861580742523074,0.013582111336290836,0.03328948840498924
1771073910915607800,0.55460791015625,0.0003994738799519837,0.016777902841567993,0.048203181475400925
1771073910925547800,0.5645478515625,0.001464737462811172,0.024234747514128685,0.0588558167219162
1771073910935487700,0.57448779296875,-0.0006657897611148655,0.04340949282050133,0.06737792491912842
1771073910945427700,0.584427734375,-0.003861580742523074,0.05512739345431328,0.06950845569372177
1771073910955367700,0.59436767578125,-0.009187898598611355,0.060453712940216064,0.06418213248252869
1771073910965308000,0.604307861328125,-0.010253162123262882,0.05938844755291939,0.05033370852470398
1771073910975248000,0.614247802734375,-0.009187898598611355,0.04767054691910744,0.031158961355686188
1771073910985187800,0.624187744140625,-0.004926844500005245,0.029561065137386322,0.02157158963382244
1771073910995127800,0.6341279296875,-0.005992108024656773,0.025300011038780212,0.010918952524662018
1771073911005067800,0.64406787109375,-0.003861580742523074,0.01784316636621952,-0.0018642114009708166
1771073911015007700,0.6540078125,0.0003994738799519837,0.002929474925622344,-0.012516847811639309
1771073911024947700,0.66394775390625,0.0025300011038780212,-0.005592633970081806,-0.018908429890871048
1771073911034887700,0.6738876953125,0.0035952648613601923,-0.0023968431632965803,-0.023169483989477158
1771073911044828000,0.683827880859375,0.001464737462811172,0.0018642114009708166,-0.019973693415522575
1771073911054767900,0.693767822265625,-0.0017310534603893757,0.0007989477599039674,-0.013582111336290836
1771073911064707800,0.703707763671875,-0.004926844500005245,0.0007989477599039674,-0.003994738683104515
1771073911074647800,0.713647705078125,-0.009187898598611355,0.007190529722720385,0.0002663159102667123
1771073911084587800,0.723587890625,-0.0070573715493083,0.01784316636621952,0.004527370445430279
1771073911094527700,0.73352783203125,-0.002796316985040903,0.016777902841567993,0.008788425475358963
1771073911104467700,0.7434677734375,-0.002796316985040903,0.0050600022077560425,0.00985368900001049
1771073911114407700,0.75340771484375,-0.003861580742523074,0.002929474925622344,0.010918952524662018
1771073911124348000,0.763347900390625,-0.005992108024656773,0.010386320762336254,0.011984216049313545
1771073911134288000,0.773287841796875,-0.002796316985040903,0.010386320762336254,0.011984216049313545
1771073911144227800,0.783227783203125,0.001464737462811172,0.008255792781710625,0.013049479573965073
1771073911154167800,0.793167724609375,0.0025300011038780212,0.0050600022077560425,0.011984216049313545
1771073911164107800,0.803107666015625,0.0035952648613601923,-0.007723161485046148,0.006657897960394621
1771073911174047700,0.8130478515625,0.0035952648613601923,-0.016245270147919655,-0.003994738683104515
1771073911183987700,0.82298779296875,0.005725792143493891,-0.02157158963382244,-0.012516847811639309
1771073911193927700,0.832927734375,0.007856319658458233,-0.0354200154542923,-0.02210422046482563
1771073911203868000,0.842867919921875,0.007856319658458233,-0.03435475379228592,-0.021038956940174103
1771073911213807900,0.852807861328125,0.00892158318310976,-0.017310533672571182,-0.014647374860942364
1771073911223747800,0.862747802734375,0.00892158318310976,-0.001331579522229731,-0.0050600022077560425
1771073911233687800,0.872687744140625,0.004660528618842363,0.014647374860942364,0.001331579522229731
1771073911243627800,0.882627685546875,-0.0017310534603893757,0.02636527456343174,0.007723161485046148
1771073911253567700,0.892567626953125,-0.010253162123262882,0.023169483989477158,0.004527370445430279
1771073911263507700,0.9025078125,-0.01664474420249462,0.02210422046482563,0.0002663159102667123
1771073911273447700,0.91244775390625,-0.018775271251797676,0.030626330524683,0.001331579522229731
1771073911283388000,0.922387939453125,-0.02090579830110073,0.03488738462328911,0.013049479573965073
1771073911293328000,0.932327880859375,-0.019840534776449203,0.029561065137386322,0.03861580789089203
1771073911303267800,0.942267822265625,-0.01771000772714615,0.019973693415522575,0.06737792491912842
1771073911313207800,0.952207763671875,-0.01664474420249462,0.015712639316916466,0.09294424951076508
1771073911323147800,0.962147705078125,-0.019840534776449203,0.008255792781710625,0.10998847335577011
1771073911333087700,0.972087646484375,-0.023036325350403786,-0.005592633970081806,0.105727419257164
1771073911343027700,0.98202783203125,-0.02090579830110073,-0.02583264373242855,0.0727042406797409
1771073911352967700,0.9919677734375,-0.013448953628540039,-0.024767380207777023,0.023702116683125496
1771073911362908000,1.001907958984375,-0.011318426579236984,0.0018642114009708166,-0.027430538088083267
1771073911372847900,1.011847900390625,-0.014514217153191566,0.028495801612734795,-0.07217161357402802
1771073911382787800,1.021787841796875,-0.015579480677843094,0.03275685757398605,-0.09773793816566467
1771073911392727800,1.031727783203125,-0.012383690103888512,0.02636527456343174,-0.09773793816566467
1771073911402667800,1.041667724609375,-0.004926844500005245,0.024234747514128685,-0.07110634446144104
1771073911412607700,1.051607666015625,0.001464737462811172,0.024234747514128685,-0.030626330524683
1771073911422547700,1.061547607421875,0.0035952648613601923,0.016777902841567993,0.00985368900001049
1771073911432487700,1.07148779296875,0.0035952648613601923,0.0018642114009708166,0.04500738903880119
1771073911442428000,1.081427978515625,0.006791055668145418,-0.008788425475358963,0.07057371735572815
1771073911452368000,1.091367919921875,0.011052110232412815,-0.016245270147919655,0.07483477145433426
1771073911462307800,1.101307861328125,0.01318263728171587,-0.01837579719722271,0.06524740159511566
1771073911472247800,1.111247802734375,0.00892158318310976,-0.02157158963382244,0.04181159660220146
1771073911482187800,1.121187744140625,0.0003994738799519837,-0.02157158963382244,0.0141147430986166
1771073911492127700,1.131127685546875,-0.005992108024656773,-0.011984216049313545,-0.0050600022077560425
1771073911502067700,1.141067626953125,-0.012383690103888512,-0.001331579522229731,-0.013582111336290836
1771073911512007700,1.151007568359375,-0.013448953628540039,0.003994738683104515,-0.007190529722720385
1771073911521948000,1.160947998046875,-0.014514217153191566,-0.0023968431632965803,0.007723161485046148
1771073911531887900,1.170887939453125,-0.011318426579236984,-0.005592633970081806,0.02157158963382244
1771073911541827800,1.180827880859375,-0.008122635073959827,-0.0002663159102667123,0.029028434306383133
1771073911551767800,1.190767822265625,-0.005992108024656773,0.009321057237684727,0.03009369783103466
1771073911561707800,1.200707763671875,-0.003861580742523074,0.014647374860942364,0.02157158963382244
1771073911571647700,1.210647705078125,-0.005992108024656773,0.021038956940174103,0.00985368900001049
1771073911581587700,1.220587646484375,-0.009187898598611355,0.02210422046482563,-0.003994738683104515
1771073911591527700,1.230527587890625,-0.013448953628540039,0.018908429890871048,-0.007190529722720385
1771073911601468000,1.240468017578125,-0.018775271251797676,0.019973693415522575,-0.003994738683104515
1771073911611408000,1.250407958984375,-0.019840534776449203,0.012516847811639309,0.006657897960394621
1771073911621347800,1.260347900390625,-0.01771000772714615,0.0050600022077560425,0.017310533672571182
1771073911631287800,1.270287841796875,-0.01664474420249462,-0.005592633970081806,0.020506324246525764
1771073911641227800,1.280227783203125,-0.013448953628540039,-0.013049479573965073,0.0141147430986166
1771073911651167700,1.290167724609375,-0.008122635073959827,-0.004527370445430279,0.004527370445430279
1771073911661107700,1.300107666015625,-0.013448953628540039,0.00612526573240757,-0.008255792781710625
1771073911671047700,1.310047607421875,-0.02516685426235199,0.019973693415522575,-0.028495801612734795
1771073911680988000,1.31998779296875,-0.03262370079755783,0.04127896577119827,-0.044474758207798004
1771073911690927900,1.329927978515625,-0.03262370079755783,0.07004108279943466,-0.04980107396841049
1771073911700867800,1.339867919921875,-0.031558435410261154,0.07430213689804077,-0.04340949282050133
1771073911710807800,1.349807861328125,-0.03262370079755783,0.04554001986980438,-0.02636527456343174
1771073911720747800,1.359747802734375,-0.03688475489616394,0.023169483989477158,-0.003994738683104515
1771073911730687700,1.369687744140625,-0.039015281945466995,0.011451584286987782,0.010918952524662018
1771073911740627700,1.379627685546875,-0.039015281945466995,0.0050600022077560425,0.016245270147919655
1771073911750567700,1.389567626953125,-0.03688475489616394,0.007190529722720385,0.011984216049313545
1771073911760508000,1.3995078125,-0.031558435410261154,0.016777902841567993,0.005592633970081806
1771073911770448000,1.40944775390625,-0.0294279083609581,0.03382211923599243,0.0034621069207787514
1771073911780387800,1.419387939453125,-0.030493171885609627,0.04127896577119827,0.004527370445430279
1771073911790327800,1.429327880859375,-0.03795001655817032,0.03701791167259216,-0.0018642114009708166
1771073911800267800,1.439267822265625,-0.039015281945466995,0.03382211923599243,-0.016777902841567993
1771073911810207700,1.449207763671875,-0.03368896245956421,0.03169159218668938,-0.03169159218668938
1771073911820147700,1.459147705078125,-0.02090579830110073,0.02636527456343174,-0.044474758207798004
1771073911830087700,1.469087646484375,-0.0006657897611148655,0.009321057237684727,-0.04234423115849495
1771073911849967900,1.4889677734375,0.012117373757064342,-0.02157158963382244,-0.0018642114009708166
1771073911859907800,1.498907958984375,0.009986846707761288,-0.019441060721874237,0.020506324246525764
1771073911869848800,1.508848876953125,0.004660528618842363,-0.011984216049313545,0.03328948840498924
1771073911879788500,1.51878857421875,-0.0017310534603893757,-0.011984216049313545,0.0354200154542923
1771073911889728300,1.528728271484375,-0.008122635073959827,-0.006657897960394621,0.03009369783103466
1771073911899668000,1.53866796875,-0.014514217153191566,0.008255792781710625,0.01837579719722271
1771073911909607700,1.548607666015625,-0.02090579830110073,0.019973693415522575,0.001331579522229731
1771073911919547400,1.55854736328125,-0.02090579830110073,0.024234747514128685,-0.013582111336290836
1771073911929487000,1.568487060546875,-0.02197106182575226,0.021038956940174103,-0.024234747514128685
1771073911939426800,1.5784267578125,-0.02090579830110073,0.016777902841567993,-0.029561065137386322
1771073911949366500,1.588366455078125,-0.019840534776449203,0.013582111336290836,-0.030626330524683
1771073911959306500,1.598306396484375,-0.02090579830110073,0.002929474925622344,-0.030626330524683
1771073911969246500,1.60824658203125,-0.024101590737700462,-0.01837579719722271,-0.03382211923599243
1771073911979186400,1.6181865234375,-0.019840534776449203,-0.03435475379228592,-0.03169159218668938
1771073911989126700,1.628126708984375,-0.011318426579236984,-0.027963170781731606,-0.02210422046482563
1771073911999066600,1.638066650390625,-0.004926844500005245,-0.02583264373242855,-0.010386320762336254
1771073912009006800,1.6480068359375,-0.002796316985040903,-0.03968106955289841,-0.0007989477599039674
1771073912018947000,1.657947021484375,-0.0070573715493083,-0.04713791608810425,0.0023968431632965803
1771073912028887300,1.66788720703125,-0.010253162123262882,-0.03435475379228592,-0.002929474925622344
1771073912038827500,1.67782763671875,-0.008122635073959827,-0.006657897960394621,-0.009321057237684727
1771073912048767700,1.687767822265625,-0.0070573715493083,0.018908429890871048,-0.019973693415522575
1771073912058708000,1.6977080078125,-0.009187898598611355,0.030626330524683,-0.029561065137386322
1771073912068648200,1.707648193359375,-0.013448953628540039,0.028495801612734795,-0.03169159218668938
1771073912078588700,1.717588623046875,-0.013448953628540039,0.013582111336290836,-0.025300011038780212
1771073912088528600,1.727528564453125,-0.013448953628540039,0.0007989477599039674,-0.009321057237684727
1771073912098468600,1.737468505859375,-0.009187898598611355,-0.007723161485046148,0.006657897960394621
1771073912108408600,1.74740869140625,-0.005992108024656773,-0.015180006623268127,0.015180006623268127
1771073912118348500,1.7573486328125,-0.003861580742523074,-0.03009369783103466,0.0141147430986166
1771073912128288500,1.76728857421875,-0.003861580742523074,-0.0354200154542923,0.011984216049313545
1771073912138228700,1.777228759765625,-0.005992108024656773,-0.020506324246525764,0.010918952524662018
1771073912148168700,1.787168701171875,-0.011318426579236984,-0.006657897960394621,0.008788425475358963
1771073912158108700,1.797108642578125,-0.012383690103888512,-0.0023968431632965803,0.0034621069207787514
1771073912168048600,1.807048583984375,-0.010253162123262882,-0.001331579522229731,0.0002663159102667123
1771073912177988600,1.816988525390625,-0.008122635073959827,0.0007989477599039674,-0.003994738683104515
1771073912187928600,1.826928466796875,-0.009187898598611355,0.011451584286987782,-0.007190529722720385
1771073912197868500,1.83686865234375,-0.0070573715493083,0.023169483989477158,-0.008255792781710625
1771073912207808500,1.84680859375,-0.004926844500005245,0.01784316636621952,-0.010386320762336254
1771073912217748700,1.856748779296875,-0.002796316985040903,-0.0034621069207787514,-0.010386320762336254
1771073912227688700,1.866688720703125,0.001464737462811172,-0.00985368900001049,-0.0018642114009708166
1771073912237628700,1.876628662109375,0.006791055668145418,-0.016245270147919655,0.010918952524662018
1771073912247568600,1.886568603515625,0.012117373757064342,-0.0354200154542923,0.016245270147919655
1771073912257508600,1.896508544921875,0.01318263728171587,-0.0492684431374073,0.016245270147919655
1771073912267448600,1.906448486328125,0.014247900806367397,-0.0492684431374073,0.011984216049313545
1771073912277388500,1.916388427734375,0.016378428786993027,-0.03009369783103466,0.0023968431632965803
1771073912287328500,1.92632861328125,0.016378428786993027,-0.007723161485046148,-0.011451584286987782
1771073912297268700,1.936268798828125,0.01318263728171587,0.008255792781710625,-0.018908429890871048
1771073912307208700,1.946208740234375,0.009986846707761288,0.010386320762336254,-0.02210422046482563
1771073912317148700,1.956148681640625,0.006791055668145418,0.00612526573240757,-0.019973693415522575
1771073912327088600,1.966088623046875,0.0035952648613601923,0.00612526573240757,-0.01784316636621952
1771073912337028600,1.976028564453125,0.006791055668145418,0.010386320762336254,-0.014647374860942364
1771073912346968600,1.985968505859375,0.005725792143493891,0.008255792781710625,-0.013582111336290836
1771073912356908500,1.995908447265625,0.0025300011038780212,0.0018642114009708166,-0.013582111336290836
1771073912366848500,2.0058486328125,0.0003994738799519837,-0.011984216049313545,-0.015712639316916466
1771073912376788700,2.015788818359375,0.0025300011038780212,-0.015180006623268127,-0.018908429890871048
1771073912386728700,2.025728759765625,0.004660528618842363,-0.004527370445430279,-0.015712639316916466
1771073912396668700,2.035668701171875,0.007856319658458233,-0.0023968431632965803,-0.007190529722720385
1771073912406608600,2.045608642578125,0.009986846707761288,-0.00985368900001049,0.006657897960394621
1771073912416548600,2.055548583984375,0.011052110232412815,-0.0141147430986166,0.0141147430986166
1771073912426488600,2.065488525390625,0.01318263728171587,-0.015180006623268127,0.016245270147919655
1771073912436428500,2.075428466796875,0.009986846707761288,-0.016245270147919655,0.010918952524662018
1771073912446368500,2.085368408203125,0.004660528618842363,-0.0141147430986166,0.0023968431632965803
1771073912456308700,2.095308837890625,-0.0017310534603893757,-0.013049479573965073,-0.002929474925622344
1771073912466248700,2.105248779296875,-0.003861580742523074,-0.010918952524662018,-0.002929474925622344
1771073912476188700,2.115188720703125,-0.004926844500005245,-0.004527370445430279,0.0023968431632965803
1771073912486128600,2.125128662109375,-0.0017310534603893757,-0.001331579522229731,0.007723161485046148
1771073912496068600,2.135068603515625,0.005725792143493891,-0.004527370445430279,0.013049479573965073
1771073912506008600,2.145008544921875,0.012117373757064342,-0.006657897960394621,0.013049479573965073
1771073912515948500,2.154948486328125,0.017443692311644554,-0.0023968431632965803,0.013049479573965073
1771073912525888500,2.164888427734375,0.01850895583629608,-0.0034621069207787514,0.008788425475358963
1771073912535828700,2.174828857421875,0.016378428786993027,-0.013049479573965073,0.0034621069207787514
1771073912545768700,2.184768798828125,0.01318263728171587,-0.013049479573965073,-0.0018642114009708166
1771073912555708700,2.194708740234375,0.007856319658458233,-0.001331579522229731,-0.008255792781710625
1771073912565648600,2.204648681640625,0.001464737462811172,0.016777902841567993,-0.009321057237684727
1771073912575588600,2.214588623046875,-0.003861580742523074,0.019973693415522575,-0.00612526573240757
1771073912585528600,2.224528564453125,-0.0070573715493083,0.014647374860942364,0.0002663159102667123
1771073912595468500,2.234468505859375,-0.009187898598611355,0.010386320762336254,0.007723161485046148
1771073912605408500,2.244408447265625,-0.008122635073959827,0.008255792781710625,0.013049479573965073
1771073912615348700,2.2543486328125,-0.003861580742523074,0.011451584286987782,0.00985368900001049
1771073912625288700,2.264288818359375,-0.002796316985040903,0.008255792781710625,0.005592633970081806
1771073912635228700,2.274228759765625,-0.0006657897611148655,0.011451584286987782,0.0034621069207787514
1771073912645168600,2.284168701171875,0.001464737462811172,0.015712639316916466,0.004527370445430279
1771073912665048600,2.304048583984375,-0.0017310534603893757,-0.001331579522229731,0.011984216049313545
1771073912674988500,2.313988525390625,-0.005992108024656773,-0.00985368900001049,0.017310533672571182
1771073912684928500,2.323928466796875,-0.010253162123262882,-0.015180006623268127,0.02157158963382244
1771073912694868700,2.33386865234375,-0.0070573715493083,-0.0141147430986166,0.023702116683125496
1771073912704808700,2.34380859375,-0.003861580742523074,-0.004527370445430279,0.024767380207777023
1771073912714748700,2.353748779296875,-0.0017310534603893757,0.010386320762336254,0.024767380207777023
1771073912724688600,2.363688720703125,-0.0017310534603893757,0.016777902841567993,0.02263685315847397
1771073912734628600,2.373628662109375,-0.0017310534603893757,0.016777902841567993,0.016245270147919655
1771073912744568600,2.383568603515625,-0.0006657897611148655,0.019973693415522575,0.011984216049313545
1771073912754508500,2.393508544921875,0.0025300011038780212,0.021038956940174103,0.011984216049313545
1771073912764448500,2.403448486328125,0.004660528618842363,0.014647374860942364,0.0141147430986166
1771073912774388700,2.413388671875,0.006791055668145418,0.011451584286987782,0.02157158963382244
1771073912784328700,2.42332861328125,0.006791055668145418,0.00612526573240757,0.03328948840498924
1771073912794268700,2.4332685546875,0.0025300011038780212,0.0018642114009708166,0.04394212365150452
1771073912804208600,2.443208740234375,0.0003994738799519837,-0.0002663159102667123,0.04500738903880119
1771073912814148600,2.453148681640625,0.0025300011038780212,-0.004527370445430279,0.04181159660220146
1771073912824088600,2.463088623046875,0.005725792143493891,-0.008788425475358963,0.036485280841588974
1771073912834028500,2.473028564453125,0.009986846707761288,-0.008788425475358963,0.03755054250359535
1771073912843968500,2.482968505859375,0.009986846707761288,0.002929474925622344,0.04500738903880119
1771073912853908700,2.49290869140625,0.00892158318310976,0.008255792781710625,0.05566002428531647
1771073912863848700,2.5028486328125,0.007856319658458233,-0.004527370445430279,0.05459476262331009
1771073912873788700,2.51278857421875,0.007856319658458233,-0.013049479573965073,0.04607265070080757
1771073912883728600,2.522728759765625,0.00892158318310976,-0.006657897960394621,0.031158961355686188
1771073912893668600,2.532668701171875,0.009986846707761288,-0.006657897960394621,0.010918952524662018
1771073912903608600,2.542608642578125,0.011052110232412815,-0.007723161485046148,-0.008255792781710625
1771073912913548500,2.552548583984375,0.00892158318310976,-0.005592633970081806,-0.019973693415522575
1771073912923488500,2.562488525390625,0.0003994738799519837,0.0018642114009708166,-0.018908429890871048
1771073912933428700,2.5724287109375,-0.004926844500005245,0.009321057237684727,-0.00612526573240757
1771073912943368700,2.58236865234375,-0.0017310534603893757,0.011451584286987782,0.0141147430986166
1771073912953308700,2.59230859375,-0.0006657897611148655,0.008255792781710625,0.03328948840498924
1771073912963248600,2.60224853515625,-0.0017310534603893757,-0.0023968431632965803,0.04607265070080757
1771073912973188600,2.612188720703125,-0.002796316985040903,-0.006657897960394621,0.04607265070080757
1771073912983128600,2.622128662109375,-0.0006657897611148655,0.003994738683104515,0.036485280841588974
1771073912993068500,2.632068603515625,-0.0006657897611148655,0.01784316636621952,0.019441060721874237
1771073913003008500,2.642008544921875,-0.002796316985040903,0.02636527456343174,0.0023968431632965803
1771073913012948700,2.65194873046875,-0.004926844500005245,0.030626330524683,-0.00612526573240757
1771073913022888700,2.661888671875,-0.0070573715493083,0.03914843872189522,-0.008255792781710625
1771073913032828700,2.67182861328125,-0.008122635073959827,0.04980107396841049,-0.007190529722720385
1771073913042768600,2.6817685546875,-0.008122635073959827,0.04340949282050133,-0.00612526573240757
1771073913052708600,2.69170849609375,-0.0006657897611148655,0.012516847811639309,-0.0018642114009708166
1771073913062648600,2.701648681640625,0.004660528618842363,-0.005592633970081806,0.00985368900001049
1771073913072588500,2.711588623046875,0.0025300011038780212,-0.007723161485046148,0.019441060721874237
1771073913082528500,2.721528564453125,-0.0017310534603893757,-0.0002663159102667123,0.026897907257080078
1771073913092468700,2.73146875,-0.003861580742523074,0.003994738683104515,0.026897907257080078
1771073913102408700,2.74140869140625,-0.002796316985040903,0.008255792781710625,0.02583264373242855
1771073913112348700,2.7513486328125,-0.003861580742523074,0.014647374860942364,0.023702116683125496
1771073913122288600,2.76128857421875,-0.003861580742523074,0.019973693415522575,0.02157158963382244
1771073913132228600,2.771228515625,-0.0006657897611148655,0.016777902841567993,0.020506324246525764
1771073913142168600,2.78116845703125,0.004660528618842363,0.007190529722720385,0.016245270147919655
1771073913152108500,2.791108642578125,0.007856319658458233,0.0007989477599039674,0.017310533672571182
1771073913162048500,2.801048583984375,0.006791055668145418,-0.007723161485046148,0.020506324246525764
1771073913171988700,2.81098876953125,0.0025300011038780212,-0.0141147430986166,0.020506324246525764
1771073913181928700,2.8209287109375,0.001464737462811172,-0.007723161485046148,0.019441060721874237
1771073913191868700,2.83086865234375,0.0025300011038780212,0.00612526573240757,0.016245270147919655
1771073913201808600,2.84080859375,0.004660528618842363,0.014647374860942364,0.006657897960394621
1771073913211748600,2.85074853515625,0.004660528618842363,0.015712639316916466,-0.0050600022077560425
1771073913221688600,2.8606884765625,0.004660528618842363,0.02210422046482563,-0.014647374860942364
1771073913231628500,2.870628662109375,0.005725792143493891,0.027430538088083267,-0.019973693415522575
1771073913241568500,2.880568603515625,0.004660528618842363,0.025300011038780212,-0.019973693415522575
1771073913251508700,2.8905087890625,0.005725792143493891,0.014647374860942364,-0.009321057237684727
1771073913261448700,2.90044873046875,0.005725792143493891,0.009321057237684727,0.004527370445430279
1771073913271388700,2.910388671875,0.0035952648613601923,0.010386320762336254,0.01837579719722271
1771073913281328600,2.92032861328125,0.0025300011038780212,0.007190529722720385,0.024767380207777023
1771073913291268600,2.9302685546875,0.0003994738799519837,0.0007989477599039674,0.023702116683125496
1771073913301208600,2.94020849609375,0.001464737462811172,-0.0023968431632965803,0.016245270147919655
1771073913311148500,2.9501484375,0.0003994738799519837,0.0018642114009708166,0.005592633970081806
1771073913321088500,2.960088623046875,-0.002796316985040903,0.00612526573240757,-0.0007989477599039674
1771073913331028700,2.97002880859375,-0.005992108024656773,0.009321057237684727,-0.0007989477599039674
1771073913340968700,2.97996875,-0.004926844500005245,0.011451584286987782,0.006657897960394621
1771073913350908700,2.98990869140625,-0.0017310534603893757,0.010386320762336254,0.015180006623268127
1771073913360848600,2.9998486328125,-0.002796316985040903,0.011451584286987782,0.023702116683125496
1771073913370788600,3.00978857421875,-0.002796316985040903,0.012516847811639309,0.03009369783103466
1771073913380728600,3.019728515625,0.001464737462811172,0.013582111336290836,0.032224226742982864
1771073913390668500,3.02966845703125,0.006791055668145418,0.012516847811639309,0.03328948840498924
1771073913400608500,3.0396083984375,0.007856319658458233,0.007190529722720385,0.032224226742982864
1771073913410548700,3.049548828125,0.006791055668145418,0.00612526573240757,0.03009369783103466
1771073913420488700,3.05948876953125,0.006791055668145418,0.002929474925622344,0.029028434306383133
1771073913430428700,3.0694287109375,0.006791055668145418,-0.005592633970081806,0.024767380207777023
1771073913440368600,3.07936865234375,0.006791055668145418,-0.004527370445430279,0.01837579719722271
1771073913450308600,3.08930859375,0.005725792143493891,0.003994738683104515,0.010918952524662018
1771073913460248600,3.09924853515625,0.004660528618842363,0.012516847811639309,0.005592633970081806
1771073913470188500,3.1091884765625,0.0035952648613601923,0.02210422046482563,0.0002663159102667123
1771073913480128500,3.11912841796875,0.001464737462811172,0.025300011038780212,0.001331579522229731
1771073913490068700,3.12906884765625,-0.0006657897611148655,0.02636527456343174,0.007723161485046148
1771073913500008700,3.1390087890625,-0.004926844500005245,0.02210422046482563,0.0141147430986166
1771073913509948700,3.14894873046875,-0.003861580742523074,0.014647374860942364,0.015180006623268127
1771073913519888600,3.158888671875,0.0003994738799519837,0.011451584286987782,0.011984216049313545
1771073913529828600,3.16882861328125,0.004660528618842363,0.0050600022077560425,0.006657897960394621
1771073913539768600,3.1787685546875,0.005725792143493891,0.0018642114009708166,0.004527370445430279
1771073913549708500,3.18870849609375,0.0035952648613601923,0.009321057237684727,0.006657897960394621
1771073913559648500,3.1986484375,0.0025300011038780212,0.012516847811639309,0.00985368900001049
1771073913569588700,3.208588623046875,-0.0017310534603893757,0.010386320762336254,0.005592633970081806
1771073913579528700,3.21852880859375,-0.0070573715493083,0.002929474925622344,-0.0018642114009708166
1771073913589468700,3.22846875,-0.005992108024656773,-0.0002663159102667123,-0.008255792781710625
1771073913599408600,3.23840869140625,-0.004926844500005245,0.00612526573240757,-0.011451584286987782
1771073913609348600,3.2483486328125,-0.002796316985040903,0.009321057237684727,-0.014647374860942364
1771073913619288600,3.25828857421875,-0.0017310534603893757,0.003994738683104515,-0.011451584286987782
1771073913629228500,3.268228515625,-0.002796316985040903,-0.001331579522229731,-0.0018642114009708166
1771073913639168500,3.27816845703125,-0.004926844500005245,-0.0034621069207787514,0.013049479573965073
1771073913649108700,3.288108642578125,-0.003861580742523074,0.0050600022077560425,0.023702116683125496
1771073913659048700,3.298048583984375,-0.002796316985040903,0.007190529722720385,0.03009369783103466
1771073913668988700,3.30798876953125,-0.0017310534603893757,-0.0002663159102667123,0.029028434306383133
1771073913678928600,3.3179287109375,-0.0006657897611148655,0.002929474925622344,0.02583264373242855
1771073913688868600,3.32786865234375,-0.0006657897611148655,0.012516847811639309,0.017310533672571182
1771073913698808600,3.33780859375,-0.0006657897611148655,0.009321057237684727,0.005592633970081806
1771073913708748500,3.34774853515625,0.0003994738799519837,0.00612526573240757,-0.0050600022077560425
1771073913718688500,3.3576884765625,0.0025300011038780212,0.002929474925622344,-0.012516847811639309
1771073913728628700,3.367628662109375,0.004660528618842363,-0.0002663159102667123,-0.011451584286987782
1771073913738568700,3.377568603515625,0.007856319658458233,-0.0002663159102667123,-0.009321057237684727
1771073913748508700,3.3875087890625,0.005725792143493891,-0.0002663159102667123,-0.003994738683104515
1771073913758448600,3.39744873046875,0.001464737462811172,-0.006657897960394621,-0.002929474925622344
1771073913768388600,3.407388671875,-0.002796316985040903,-0.011984216049313545,-0.007190529722720385
1771073913778328600,3.41732861328125,-0.0017310534603893757,-0.007723161485046148,-0.010386320762336254
1771073913788268500,3.4272685546875,-0.0017310534603893757,0.0018642114009708166,-0.013582111336290836
1771073913798208500,3.43720849609375,-0.0017310534603893757,0.0050600022077560425,-0.00612526573240757
1771073913808148700,3.447148681640625,0.0003994738799519837,0.002929474925622344,0.005592633970081806
1771073913818088700,3.457088623046875,0.001464737462811172,0.003994738683104515,0.017310533672571182
1771073913828028700,3.467028564453125,0.0035952648613601923,0.007190529722720385,0.02157158963382244
1771073913837968600,3.47696875,0.004660528618842363,0.0007989477599039674,0.01837579719722271
1771073913847908600,3.48690869140625,0.0035952648613601923,-0.011984216049313545,0.013049479573965073
1771073913857848600,3.4968486328125,-0.0017310534603893757,-0.016245270147919655,0.007723161485046148
1771073913867788500,3.50678857421875,-0.003861580742523074,-0.005592633970081806,0.005592633970081806
1771073913877728500,3.516728515625,-0.005992108024656773,0.0007989477599039674,0.0002663159102667123
1771073913887668700,3.526668701171875,-0.005992108024656773,0.00612526573240757,-0.002929474925622344
1771073913897608700,3.536608642578125,-0.005992108024656773,0.011451584286987782,-0.003994738683104515
1771073913907548700,3.546548583984375,-0.004926844500005245,0.007190529722720385,-0.007190529722720385
1771073913917488600,3.556488525390625,-0.0017310534603893757,-0.001331579522229731,-0.009321057237684727
1771073913927428600,3.5664287109375,0.0025300011038780212,-0.004527370445430279,-0.008255792781710625
1771073913937368600,3.57636865234375,0.0035952648613601923,-0.011984216049313545,-0.003994738683104515
1771073913947308500,3.58630859375,0.0025300011038780212,-0.026897907257080078,-0.0018642114009708166
1771073913957248500,3.59624853515625,0.0035952648613601923,-0.029028434306383133,-0.0050600022077560425
1771073913967188700,3.606188720703125,0.005725792143493891,-0.020506324246525764,-0.007190529722720385
1771073913977128700,3.616128662109375,0.006791055668145418,-0.00985368900001049,-0.011451584286987782
1771073913987068700,3.626068603515625,0.006791055668145418,-0.006657897960394621,-0.013582111336290836
1771073913997008600,3.636008544921875,0.005725792143493891,-0.0034621069207787514,-0.012516847811639309
1771073914006948600,3.645948486328125,0.0025300011038780212,-0.0034621069207787514,-0.009321057237684727
1771073914016888600,3.655888671875,0.001464737462811172,-0.008788425475358963,-0.0050600022077560425
1771073914026828500,3.66582861328125,0.0003994738799519837,-0.00985368900001049,-0.002929474925622344
1771073914036768500,3.6757685546875,-0.0017310534603893757,-0.006657897960394621,-0.003994738683104515
1771073914046708700,3.685708740234375,-0.0017310534603893757,0.002929474925622344,-0.00612526573240757
1771073914056648700,3.695648681640625,-0.002796316985040903,0.013582111336290836,-0.0050600022077560425
1771073914066588700,3.705588623046875,-0.0017310534603893757,0.02210422046482563,-0.0007989477599039674
1771073914076528400,3.7155283203125,0.0003994738799519837,0.013582111336290836,0.006657897960394621
1771073914086468400,3.72546826171875,0.001464737462811172,-0.0023968431632965803,0.015180006623268127
1771073914096408300,3.735408203125,-0.0006657897611148655,-0.005592633970081806,0.020506324246525764
1771073914106348300,3.745348388671875,-0.0017310534603893757,-0.006657897960394621,0.01837579719722271
1771073914116288500,3.75528857421875,-0.0017310534603893757,-0.010918952524662018,0.004527370445430279
1771073914126228500,3.765228515625,-0.0006657897611148655,-0.008788425475358963,-0.011451584286987782
1771073914136168400,3.77516845703125,0.004660528618842363,0.0050600022077560425,-0.02210422046482563
1771073914146108400,3.7851083984375,0.004660528618842363,0.010386320762336254,-0.025300011038780212
1771073914156048400,3.79504833984375,0.001464737462811172,0.007190529722720385,-0.023169483989477158
1771073914165988400,3.80498828125,-0.0006657897611148655,0.00612526573240757,-0.012516847811639309
1771073914175928300,3.81492822265625,-0.003861580742523074,0.002929474925622344,0.001331579522229731
1771073914185868300,3.824868408203125,-0.009187898598611355,-0.001331579522229731,0.015180006623268127
1771073914195808500,3.83480859375,-0.009187898598611355,-0.0023968431632965803,0.02263685315847397
1771073914205748500,3.84474853515625,-0.0070573715493083,0.0007989477599039674,0.019441060721874237
1771073914215688400,3.8546884765625,-0.002796316985040903,0.0050600022077560425,0.00985368900001049
1771073914225628400,3.86462841796875,0.001464737462811172,0.008255792781710625,0.0002663159102667123
1771073914235568400,3.874568359375,0.0035952648613601923,0.00612526573240757,-0.00612526573240757
1771073914245508400,3.88450830078125,0.004660528618842363,0.0018642114009708166,-0.011451584286987782
1771073914255448300,3.8944482421875,0.005725792143493891,-0.001331579522229731,-0.009321057237684727
1771073914265388300,3.90438818359375,0.007856319658458233,-0.0034621069207787514,-0.0050600022077560425
1771073914275328500,3.91432861328125,0.009986846707761288,-0.006657897960394621,0.0023968431632965803
1771073914285268500,3.9242685546875,0.007856319658458233,-0.006657897960394621,0.011984216049313545
1771073914295208400,3.93420849609375,0.005725792143493891,-0.004527370445430279,0.01837579719722271
1771073914305148400,3.9441484375,0.0025300011038780212,0.0050600022077560425,0.02157158963382244
1771073914315088400,3.95408837890625,0.004660528618842363,0.016777902841567993,0.017310533672571182
1771073914325028400,3.9640283203125,0.005725792143493891,0.014647374860942364,0.006657897960394621
1771073914334968300,3.97396826171875,0.0035952648613601923,0.0050600022077560425,-0.003994738683104515
1771073914344908300,3.983908203125,0.001464737462811172,0.003994738683104515,-0.011451584286987782
1771073914354848500,3.9938486328125,0.0003994738799519837,0.0018642114009708166,-0.015712639316916466
1771073914364788500,4.00378857421875,0.0003994738799519837,-0.007723161485046148,-0.016777902841567993
1771073914374728400,4.013728515625,0.001464737462811172,-0.016245270147919655,-0.013582111336290836
1771073914384668400,4.02366845703125,0.0035952648613601923,-0.024767380207777023,-0.009321057237684727
1771073914394608400,4.0336083984375,0.0035952648613601923,-0.026897907257080078,-0.0050600022077560425
1771073914404548400,4.04354833984375,0.0003994738799519837,-0.01837579719722271,0.0023968431632965803
1771073914414488300,4.05348828125,-0.003861580742523074,-0.010918952524662018,0.006657897960394621
1771073914424428300,4.06342822265625,-0.011318426579236984,-0.0023968431632965803,0.004527370445430279
1771073914434368500,4.073368408203125,-0.013448953628540039,0.012516847811639309,-0.0007989477599039674
1771073914444308500,4.08330859375,-0.011318426579236984,0.025300011038780212,-0.00612526573240757
1771073914454248400,4.09324853515625,-0.008122635073959827,0.028495801612734795,-0.009321057237684727
1771073914464188400,4.1031884765625,-0.002796316985040903,0.019973693415522575,-0.00612526573240757
1771073914474128400,4.11312841796875,-0.0006657897611148655,0.009321057237684727,0.0002663159102667123
1771073914484068400,4.123068359375,0.005725792143493891,0.003994738683104515,0.006657897960394621
1771073914494008300,4.13300830078125,0.00892158318310976,-0.004527370445430279,0.013049479573965073
1771073914503948300,4.1429482421875,0.007856319658458233,-0.00985368900001049,0.017310533672571182
1771073914513888500,4.152888427734375,0.0035952648613601923,-0.004527370445430279,0.017310533672571182
1771073914523828500,4.162828369140625,0.0025300011038780212,-0.001331579522229731,0.008788425475358963
1771073914533768400,4.1727685546875,0.001464737462811172,-0.0002663159102667123,-0.0007989477599039674
1771073914543708400,4.18270849609375,0.001464737462811172,-0.006657897960394621,-0.008255792781710625
1771073914553648400,4.1926484375,0.001464737462811172,-0.010918952524662018,-0.010386320762336254
1771073914563588400,4.20258837890625,0.0003994738799519837,-0.008788425475358963,-0.008255792781710625
1771073914573528300,4.2125283203125,-0.0017310534603893757,-0.007723161485046148,-0.0050600022077560425
1771073914583468300,4.22246826171875,-0.002796316985040903,-0.005592633970081806,-0.002929474925622344
1771073914593408500,4.232408447265625,-0.0017310534603893757,0.002929474925622344,-0.0018642114009708166
1771073914603348500,4.242348388671875,0.001464737462811172,0.010386320762336254,-0.0018642114009708166
1771073914613288400,4.252288330078125,-0.0006657897611148655,0.009321057237684727,-0.002929474925622344
1771073914623228400,4.262228515625,-0.002796316985040903,0.00612526573240757,-0.0050600022077560425
1771073914633168400,4.27216845703125,-0.0006657897611148655,0.009321057237684727,-0.0050600022077560425
1771073914643108400,4.2821083984375,0.0025300011038780212,0.00612526573240757,0.0034621069207787514
1771073914653048300,4.29204833984375,0.0003994738799519837,-0.008788425475358963,0.0141147430986166
1771073914662988300,4.30198828125,-0.004926844500005245,-0.016245270147919655,0.019441060721874237
1771073914672928500,4.311928466796875,-0.008122635073959827,-0.011984216049313545,0.01837579719722271
1771073914682868500,4.321868408203125,-0.005992108024656773,-0.006657897960394621,0.007723161485046148
1771073914692808400,4.331808349609375,-0.002796316985040903,-0.0002663159102667123,-0.003994738683104515
1771073914702748400,4.34174853515625,-0.0006657897611148655,0.010386320762336254,-0.011451584286987782
1771073914712688400,4.3516884765625,-0.004926844500005245,0.014647374860942364,-0.010386320762336254
1771073914722628400,4.36162841796875,-0.005992108024656773,0.008255792781710625,-0.009321057237684727
1771073914732568300,4.371568359375,-0.004926844500005245,-0.0002663159102667123,-0.009321057237684727
1771073914742508300,4.38150830078125,0.0003994738799519837,-0.0034621069207787514,-0.007190529722720385
1771073914752448500,4.391448486328125,0.005725792143493891,-0.011984216049313545,-0.008255792781710625
1771073914762388500,4.401388427734375,0.011052110232412815,-0.02157158963382244,-0.011451584286987782
1771073914772328400,4.411328369140625,0.014247900806367397,-0.02263685315847397,-0.008255792781710625
1771073914782268400,4.421268310546875,0.011052110232412815,-0.019441060721874237,-0.0018642114009708166
1771073914792208400,4.43120849609375,0.005725792143493891,-0.02157158963382244,0.0034621069207787514
1771073914802148400,4.4411484375,0.004660528618842363,-0.011984216049313545,0.007723161485046148
1771073914812088300,4.45108837890625,0.005725792143493891,-0.0002663159102667123,0.007723161485046148
1771073914822028300,4.4610283203125,0.0003994738799519837,0.002929474925622344,0.0023968431632965803
1771073914831968500,4.470968505859375,-0.003861580742523074,0.002929474925622344,-0.002929474925622344
1771073914841908500,4.480908447265625,-0.0070573715493083,0.010386320762336254,-0.00612526573240757
1771073914851848400,4.490848388671875,-0.008122635073959827,0.01784316636621952,-0.002929474925622344
1771073914861788400,4.500788330078125,-0.004926844500005245,0.02210422046482563,0.0034621069207787514
1771073914871728400,4.510728271484375,-0.0017310534603893757,0.01784316636621952,0.00985368900001049
1771073914881668400,4.52066845703125,0.0003994738799519837,0.007190529722720385,0.011984216049313545
1771073914891608300,4.5306083984375,0.001464737462811172,-0.001331579522229731,0.008788425475358963
1771073914901548300,4.54054833984375,-0.0017310534603893757,-0.006657897960394621,0.001331579522229731
1771073914911488500,4.550488525390625,-0.003861580742523074,-0.013049479573965073,-0.009321057237684727
1771073914921428500,4.560428466796875,-0.004926844500005245,-0.011984216049313545,-0.015712639316916466
1771073914931368400,4.570368408203125,-0.005992108024656773,-0.004527370445430279,-0.01784316636621952
1771073914941308400,4.580308349609375,-0.0070573715493083,-0.0034621069207787514,-0.014647374860942364
1771073914951248400,4.590248291015625,-0.003861580742523074,-0.0002663159102667123,-0.008255792781710625
1771073914961188400,4.600188232421875,-0.0006657897611148655,0.0050600022077560425,-0.0007989477599039674
1771073914971128300,4.61012841796875,-0.0006657897611148655,0.003994738683104515,0.0034621069207787514
1771073914981068300,4.620068359375,-0.004926844500005245,-0.0023968431632965803,0.00985368900001049
1771073914991008500,4.630008544921875,-0.003861580742523074,-0.00985368900001049,0.010918952524662018
1771073915000948500,4.639948486328125,0.001464737462811172,-0.00985368900001049,0.008788425475358963
1771073915010888400,4.649888427734375,0.006791055668145418,-0.004527370445430279,0.007723161485046148
1771073915020828400,4.659828369140625,0.007856319658458233,-0.0023968431632965803,0.005592633970081806
1771073915030768400,4.669768310546875,0.00892158318310976,-0.0023968431632965803,0.0023968431632965803
1771073915040708400,4.679708251953125,0.007856319658458233,-0.0023968431632965803,-0.0018642114009708166
1771073915050648300,4.6896484375,0.007856319658458233,0.00612526573240757,-0.0007989477599039674
1771073915060588300,4.69958837890625,0.005725792143493891,0.013582111336290836,0.001331579522229731
1771073915070528500,4.709528564453125,0.005725792143493891,0.014647374860942364,0.004527370445430279
1771073915080468500,4.719468505859375,0.0025300011038780212,0.011451584286987782,0.004527370445430279
1771073915090408400,4.729408447265625,-0.0006657897611148655,0.00612526573240757,0.004527370445430279
1771073915100348400,4.739348388671875,-0.002796316985040903,0.002929474925622344,0.0034621069207787514
1771073915110288400,4.749288330078125,-0.0006657897611148655,-0.001331579522229731,0.001331579522229731
1771073915120228400,4.759228271484375,0.0025300011038780212,-0.005592633970081806,0.0002663159102667123
1771073915130168300,4.769168212890625,0.0025300011038780212,-0.008788425475358963,-0.0007989477599039674
1771073915140108300,4.7791083984375,0.0025300011038780212,-0.017310533672571182,-0.0018642114009708166
1771073915150048500,4.789048583984375,0.0025300011038780212,-0.01837579719722271,0.0002663159102667123
1771073915159988500,4.798988525390625,0.001464737462811172,-0.013049479573965073,0.0023968431632965803
1771073915169928400,4.808928466796875,0.0003994738799519837,-0.00985368900001049,-0.0007989477599039674
1771073915179868400,4.818868408203125,-0.0006657897611148655,-0.010918952524662018,-0.00612526573240757
1771073915189808400,4.828808349609375,-0.0017310534603893757,-0.008788425475358963,-0.009321057237684727
1771073915199748400,4.838748291015625,-0.002796316985040903,0.003994738683104515,-0.00612526573240757
1771073915209688300,4.848688232421875,-0.0017310534603893757,0.01784316636621952,-0.0007989477599039674
1771073915219628300,4.858628173828125,-0.0017310534603893757,0.015712639316916466,0.005592633970081806
1771073915229568500,4.868568603515625,-0.0017310534603893757,0.00612526573240757,0.00985368900001049
1771073915239508500,4.878508544921875,-0.0006657897611148655,0.002929474925622344,0.016245270147919655
1771073915249448400,4.888448486328125,0.0025300011038780212,0.007190529722720385,0.019441060721874237
1771073915259388400,4.898388427734375,0.004660528618842363,0.0018642114009708166,0.016245270147919655
1771073915269328400,4.908328369140625,0.0035952648613601923,-0.011984216049313545,0.008788425475358963
1771073915279268400,4.918268310546875,0.0035952648613601923,-0.005592633970081806,0.004527370445430279
1771073915289208300,4.928208251953125,0.0035952648613601923,0.00612526573240757,0.004527370445430279
1771073915299148300,4.938148193359375,0.0035952648613601923,0.008255792781710625,0.0034621069207787514
1771073915309088500,4.948088623046875,0.0025300011038780212,-0.0002663159102667123,0.001331579522229731
1771073915319028500,4.958028564453125,0.001464737462811172,-0.007723161485046148,-0.0007989477599039674
1771073915328968400,4.967968505859375,0.0025300011038780212,-0.007723161485046148,-0.0007989477599039674
1771073915338908400,4.977908447265625,0.0035952648613601923,-0.0002663159102667123,-0.0007989477599039674
1771073915348848400,4.987848388671875,0.0035952648613601923,-0.004527370445430279,-0.0018642114009708166
1771073915358788400,4.997788330078125,0.001464737462811172,-0.015180006623268127,-0.002929474925622344
1771073915368728300,5.007728271484375,-0.0006657897611148655,-0.008788425475358963,-0.003994738683104515
1771073915378668300,5.017668212890625,-0.0017310534603893757,-0.0002663159102667123,-0.003994738683104515
1771073915388608500,5.0276083984375,-0.0017310534603893757,-0.0034621069207787514,-0.003994738683104515
1771073915398548500,5.037548583984375,-0.0017310534603893757,-0.005592633970081806,-0.003994738683104515
1771073915408488400,5.047488525390625,0.0003994738799519837,-0.004527370445430279,0.0002663159102667123
1771073915418428400,5.057428466796875,0.0025300011038780212,-0.007723161485046148,0.006657897960394621
1771073915428368400,5.067368408203125,0.0035952648613601923,-0.0141147430986166,0.00985368900001049
1771073915438308400,5.077308349609375,0.004660528618842363,-0.010918952524662018,0.008788425475358963
1771073915448248300,5.087248291015625,0.0035952648613601923,-0.0034621069207787514,0.0034621069207787514
1771073915458188300,5.097188232421875,0.0035952648613601923,-0.0002663159102667123,-0.0050600022077560425
1771073915468128500,5.10712841796875,0.001464737462811172,-0.006657897960394621,-0.012516847811639309
1771073915478068500,5.117068359375,-0.0017310534603893757,-0.010918952524662018,-0.016777902841567993
1771073915488008400,5.127008544921875,-0.002796316985040903,-0.0034621069207787514,-0.01784316636621952
1771073915497948400,5.136948486328125,-0.0017310534603893757,-0.007723161485046148,-0.013582111336290836
1771073915507888400,5.146888427734375,0.001464737462811172,-0.023702116683125496,-0.00612526573240757
1771073915517828400,5.156828369140625,0.0035952648613601923,-0.023702116683125496,0.006657897960394621
1771073915527768300,5.166768310546875,0.005725792143493891,-0.0141147430986166,0.0141147430986166
1771073915537708300,5.176708251953125,0.00892158318310976,-0.019441060721874237,0.0141147430986166
1771073915547648500,5.1866484375,0.012117373757064342,-0.01837579719722271,0.00985368900001049
1771073915557588500,5.19658837890625,0.01318263728171587,-0.004527370445430279,0.005592633970081806
1771073915567528400,5.206528564453125,0.007856319658458233,0.003994738683104515,0.0002663159102667123
1771073915577468400,5.216468505859375,-0.0017310534603893757,0.00612526573240757,-0.0018642114009708166
1771073915587408400,5.226408447265625,-0.010253162123262882,0.0007989477599039674,-0.0007989477599039674
1771073915597348400,5.236348388671875,-0.012383690103888512,-0.011984216049313545,-0.003994738683104515
1771073915607288300,5.246288330078125,-0.0070573715493083,-0.020506324246525764,-0.00612526573240757
1771073915617228300,5.256228271484375,-0.0006657897611148655,-0.011984216049313545,-0.010386320762336254
1771073915627168500,5.26616845703125,0.0025300011038780212,0.0018642114009708166,-0.013582111336290836
1771073915637108500,5.2761083984375,0.001464737462811172,0.010386320762336254,-0.015712639316916466
1771073915647048400,5.28604833984375,-0.002796316985040903,0.011451584286987782,-0.014647374860942364
1771073915656988400,5.295988525390625,-0.003861580742523074,0.011451584286987782,-0.003994738683104515
1771073915666928400,5.305928466796875,-0.0070573715493083,0.007190529722720385,0.011984216049313545
1771073915676868400,5.315868408203125,-0.010253162123262882,0.003994738683104515,0.02583264373242855
1771073915686808300,5.325808349609375,-0.010253162123262882,0.0018642114009708166,0.0354200154542923
1771073915696748300,5.335748291015625,-0.010253162123262882,-0.0002663159102667123,0.03009369783103466
1771073915706688500,5.3456884765625,-0.005992108024656773,0.0018642114009708166,0.015180006623268127
1771073915716628500,5.35562841796875,-0.0006657897611148655,0.012516847811639309,-0.0007989477599039674
1771073915726568400,5.365568359375,0.0035952648613601923,0.018908429890871048,-0.013582111336290836
1771073915736508400,5.37550830078125,0.0035952648613601923,0.016777902841567993,-0.016777902841567993
1771073915746448400,5.385448486328125,0.0035952648613601923,-0.0002663159102667123,-0.013582111336290836
1771073915756388400,5.395388427734375,0.0025300011038780212,-0.013049479573965073,-0.00612526573240757
1771073915766328300,5.405328369140625,0.0035952648613601923,-0.0141147430986166,0.0034621069207787514
1771073915776268300,5.415268310546875,0.005725792143493891,-0.016245270147919655,0.007723161485046148
1771073915786208500,5.42520849609375,0.0035952648613601923,-0.02157158963382244,0.007723161485046148
1771073915796148500,5.4351484375,-0.0006657897611148655,-0.01837579719722271,0.005592633970081806
1771073915806088400,5.44508837890625,-0.005992108024656773,-0.010918952524662018,0.0002663159102667123
1771073915816028700,5.455028564453125,-0.008122635073959827,-0.007723161485046148,-0.0050600022077560425
1771073915825968600,5.46496875,-0.0070573715493083,-0.001331579522229731,-0.0050600022077560425
1771073915835908600,5.47490869140625,-0.0017310534603893757,-0.0023968431632965803,0.0023968431632965803
1771073915845848800,5.484848876953125,0.0035952648613601923,-0.00985368900001049,0.0141147430986166
1771073915855788800,5.494788818359375,0.007856319658458233,-0.017310533672571182,0.02263685315847397
1771073915865728800,5.504728759765625,0.011052110232412815,-0.02157158963382244,0.023702116683125496
1771073915875669000,5.5146689453125,0.014247900806367397,-0.01837579719722271,0.02157158963382244
1771073915885609000,5.52460888671875,0.01957421936094761,-0.005592633970081806,0.01837579719722271
1771073915895549000,5.534548828125,0.021704746410250664,0.011451584286987782,0.01837579719722271
1771073915905489000,5.544489013671875,0.024900536984205246,0.013582111336290836,0.024767380207777023
1771073915915429000,5.55442919921875,0.02277000993490219,0.009321057237684727,0.036485280841588974
1771073915925369000,5.564369140625,0.014247900806367397,0.0007989477599039674,0.04394212365150452
1771073915935309000,5.57430908203125,0.004660528618842363,-0.0023968431632965803,0.04394212365150452
1771073915945249300,5.584249267578125,-0.0006657897611148655,-0.0002663159102667123,0.03328948840498924
1771073915955189200,5.594189208984375,-0.0017310534603893757,-0.0002663159102667123,0.011984216049313545
1771073915965129200,5.604129150390625,-0.003861580742523074,0.0007989477599039674,-0.009321057237684727
1771073915975069400,5.6140693359375,-0.005992108024656773,-0.0002663159102667123,-0.021038956940174103
1771073915985009400,5.624009521484375,-0.0070573715493083,-0.006657897960394621,-0.023169483989477158
1771073915994949400,5.633949462890625,-0.005992108024656773,-0.0141147430986166,-0.014647374860942364
1771073916004889600,5.6438896484375,-0.005992108024656773,-0.01837579719722271,0.0002663159102667123
1771073916014829600,5.65382958984375,-0.003861580742523074,-0.016245270147919655,0.0141147430986166
1771073916024769500,5.66376953125,-0.002796316985040903,-0.016245270147919655,0.017310533672571182
1771073916034709800,5.673709716796875,-0.0006657897611148655,-0.015180006623268127,0.00985368900001049
1771073916044649700,5.683649658203125,0.0003994738799519837,-0.0023968431632965803,-0.002929474925622344
1771073916054589700,5.693589599609375,-0.0017310534603893757,0.0050600022077560425,-0.012516847811639309
1771073916064530000,5.703530029296875,-0.004926844500005245,-0.0023968431632965803,-0.01784316636621952
1771073916074470000,5.713469970703125,-0.005992108024656773,-0.005592633970081806,-0.01784316636621952
1771073916084409900,5.723409912109375,-0.003861580742523074,0.0007989477599039674,-0.013582111336290836
1771073916094349800,5.733349853515625,-0.002796316985040903,0.003994738683104515,-0.008255792781710625
1771073916104289800,5.743289794921875,-0.0006657897611148655,0.0007989477599039674,-0.002929474925622344
1771073916114229800,5.753229736328125,-0.0006657897611148655,-0.004527370445430279,0.001331579522229731
1771073916124169700,5.763169677734375,0.0003994738799519837,-0.008788425475358963,0.004527370445430279
1771073916134109700,5.773109619140625,0.004660528618842363,-0.013049479573965073,0.0023968431632965803
1771073916144050000,5.7830498046875,0.006791055668145418,-0.015180006623268127,-0.002929474925622344
1771073916153990000,5.792989990234375,0.005725792143493891,-0.011984216049313545,-0.010386320762336254
1771073916163929900,5.802929931640625,0.005725792143493891,-0.006657897960394621,-0.016777902841567993
1771073916173869800,5.812869873046875,0.006791055668145418,-0.0023968431632965803,-0.01784316636621952
1771073916183809800,5.822809814453125,0.005725792143493891,0.002929474925622344,-0.012516847811639309
1771073916193749800,5.832749755859375,0.0025300011038780212,-0.0034621069207787514,-0.00612526573240757
1771073916203689700,5.842689697265625,-0.004926844500005245,-0.013049479573965073,-0.0018642114009708166
1771073916213629700,5.852629638671875,-0.013448953628540039,-0.015180006623268127,0.0023968431632965803
1771073916223570000,5.86256982421875,-0.019840534776449203,-0.00985368900001049,0.005592633970081806
1771073916233510000,5.872510009765625,-0.02197106182575226,-0.0034621069207787514,0.006657897960394621
1771073916243449900,5.882449951171875,-0.019840534776449203,0.003994738683104515,0.007723161485046148
1771073916253389800,5.892389892578125,-0.013448953628540039,0.011451584286987782,0.013049479573965073
1771073916263329800,5.902329833984375,-0.009187898598611355,0.018908429890871048,0.011984216049313545
1771073916273269800,5.912269775390625,-0.005992108024656773,0.021038956940174103,0.010918952524662018
1771073916283209700,5.922209716796875,-0.0070573715493083,0.012516847811639309,0.008788425475358963
1771073916293149700,5.932149658203125,-0.011318426579236984,0.0050600022077560425,0.0034621069207787514
1771073916303090000,5.94208984375,-0.005992108024656773,0.0050600022077560425,0.0002663159102667123
1771073916313030000,5.95202978515625,0.0003994738799519837,0.00612526573240757,-0.002929474925622344
1771073916322969900,5.961969970703125,0.005725792143493891,0.003994738683104515,-0.007190529722720385
1771073916332909800,5.971909912109375,0.006791055668145418,0.009321057237684727,-0.009321057237684727
1771073916342849800,5.981849853515625,0.0035952648613601923,0.00612526573240757,-0.009321057237684727
1771073916352789800,5.991789794921875,-0.002796316985040903,-0.0141147430986166,-0.010386320762336254
1771073916362729700,6.001729736328125,-0.004926844500005245,-0.026897907257080078,-0.007190529722720385
1771073916372669700,6.011669677734375,-0.004926844500005245,-0.02263685315847397,-0.0007989477599039674
1771073916382610000,6.02160986328125,0.0003994738799519837,-0.019441060721874237,-0.0007989477599039674
1771073916392550000,6.0315498046875,0.005725792143493891,-0.019441060721874237,-0.007190529722720385
1771073916402489900,6.04148974609375,0.011052110232412815,-0.0141147430986166,-0.019973693415522575
1771073916412429800,6.051429931640625,0.0153131652623415,-0.005592633970081806,-0.029561065137386322
1771073916422369800,6.061369873046875,0.0153131652623415,-0.0002663159102667123,-0.030626330524683
1771073916432309800,6.071309814453125,0.016378428786993027,-0.0023968431632965803,-0.025300011038780212
1771073916442249700,6.081249755859375,0.014247900806367397,-0.004527370445430279,-0.01784316636621952
1771073916452189700,6.091189697265625,0.011052110232412815,-0.004527370445430279,-0.009321057237684727
1771073916462130000,6.1011298828125,0.00892158318310976,0.0007989477599039674,0.0002663159102667123
1771073916472070000,6.11106982421875,0.007856319658458233,0.00612526573240757,0.008788425475358963
1771073916482009900,6.121009765625,0.006791055668145418,0.008255792781710625,0.015180006623268127
1771073916491949800,6.13094970703125,0.0035952648613601923,0.00612526573240757,0.0141147430986166
1771073916501889800,6.140889892578125,-0.0017310534603893757,0.007190529722720385,0.011984216049313545
1771073916511829800,6.150829833984375,-0.005992108024656773,0.009321057237684727,0.007723161485046148
1771073916521769700,6.160769775390625,-0.004926844500005245,0.009321057237684727,0.001331579522229731
1771073916531709700,6.170709716796875,-0.003861580742523074,0.002929474925622344,-0.0050600022077560425
1771073916541650000,6.18064990234375,-0.002796316985040903,-0.006657897960394621,-0.009321057237684727
1771073916551590000,6.19058984375,-0.004926844500005245,-0.0141147430986166,-0.010386320762336254
1771073916561529900,6.20052978515625,-0.010253162123262882,-0.013049479573965073,-0.003994738683104515
1771073916571469800,6.2104697265625,-0.011318426579236984,-0.007723161485046148,0.0002663159102667123
1771073916581409800,6.220409912109375,-0.010253162123262882,-0.001331579522229731,0.0023968431632965803
1771073916591349800,6.230349853515625,-0.010253162123262882,0.0018642114009708166,0.005592633970081806
1771073916601289700,6.240289794921875,-0.010253162123262882,0.007190529722720385,0.005592633970081806
1771073916611229700,6.250229736328125,-0.009187898598611355,0.014647374860942364,0.005592633970081806
1771073916621170000,6.260169921875,-0.005992108024656773,0.021038956940174103,0.006657897960394621
1771073916631110000,6.27010986328125,-0.0017310534603893757,0.03275685757398605,0.00985368900001049
1771073916641049900,6.2800498046875,0.0003994738799519837,0.03808317333459854,0.0141147430986166
1771073916650989800,6.28998974609375,-0.0006657897611148655,0.03382211923599243,0.0141147430986166
1771073916660929800,6.2999296875,-0.0006657897611148655,0.024234747514128685,0.013049479573965073
1771073916670869800,6.309869873046875,0.0025300011038780212,0.012516847811639309,0.010918952524662018
1771073916680809700,6.319809814453125,0.0035952648613601923,0.002929474925622344,0.010918952524662018
1771073916690749700,6.329749755859375,0.0035952648613601923,-0.0034621069207787514,0.0141147430986166
1771073916700690000,6.33968994140625,0.004660528618842363,-0.0034621069207787514,0.015180006623268127
1771073916710630000,6.3496298828125,0.0035952648613601923,0.0050600022077560425,0.013049479573965073
1771073916720569900,6.35956982421875,0.0025300011038780212,0.02210422046482563,0.013049479573965073
1771073916730509800,6.369509765625,-0.0006657897611148655,0.03169159218668938,0.011984216049313545
1771073916740449800,6.37944970703125,0.0025300011038780212,0.029561065137386322,0.004527370445430279
1771073916750389800,6.3893896484375,0.004660528618842363,0.024234747514128685,-0.0007989477599039674
1771073916760329700,6.399329833984375,-0.0017310534603893757,0.008255792781710625,-0.007190529722720385
1771073916770269700,6.409269775390625,-0.004926844500005245,-0.015180006623268127,-0.016777902841567993
1771073916780210000,6.4192099609375,-0.004926844500005245,-0.03435475379228592,-0.019973693415522575
1771073916790150000,6.42914990234375,-0.0006657897611148655,-0.036485280841588974,-0.019973693415522575
1771073916800089900,6.43908984375,0.001464737462811172,-0.03009369783103466,-0.015712639316916466
1771073916810029800,6.44902978515625,0.006791055668145418,-0.02157158963382244,-0.011451584286987782
1771073916819969800,6.4589697265625,0.011052110232412815,-0.019441060721874237,-0.008255792781710625
1771073916829909800,6.46890966796875,0.0153131652623415,-0.027963170781731606,-0.008255792781710625
1771073916839849700,6.478849609375,0.017443692311644554,-0.04500738903880119,-0.012516847811639309
1771073916849789700,6.488789794921875,0.0153131652623415,-0.05992107838392258,-0.02210422046482563
1771073916859730000,6.49872998046875,0.011052110232412815,-0.06418213248252869,-0.03488738462328911
1771073916869671400,6.50867138671875,0.00892158318310976,-0.05992107838392258,-0.04554001986980438
1771073916879610000,6.518610107421875,0.004660528618842363,-0.04394212365150452,-0.04554001986980438
1771073916889548800,6.528548828125,0.0003994738799519837,-0.019441060721874237,-0.03382211923599243
1771073916899487700,6.53848779296875,-0.0017310534603893757,-0.001331579522229731,-0.016777902841567993
1771073916909426700,6.5484267578125,-0.005992108024656773,0.00612526573240757,0.0023968431632965803
1771073916919365600,6.55836572265625,-0.009187898598611355,0.015712639316916466,0.023702116683125496
1771073916929304800,6.568304931640625,-0.009187898598611355,0.029561065137386322,0.040746334940195084
1771073916939244300,6.578244384765625,-0.008122635073959827,0.03275685757398605,0.04500738903880119
1771073916949184000,6.58818408203125,-0.008122635073959827,0.02636527456343174,0.04181159660220146
1771073916959124000,6.5981240234375,-0.010253162123262882,0.015712639316916466,0.026897907257080078
1771073916969064200,6.608064208984375,-0.010253162123262882,0.007190529722720385,0.005592633970081806
1771073916979004400,6.61800439453125,-0.0070573715493083,0.002929474925622344,-0.016777902841567993
1771073916988945000,6.62794482421875,-0.002796316985040903,0.0018642114009708166,-0.03808317333459854
1771073916998885600,6.6378857421875,-0.002796316985040903,0.002929474925622344,-0.04980107396841049
1771073917008826400,6.647826416015625,-0.002796316985040903,0.008255792781710625,-0.05299686640501022
1771073917018767400,6.657767333984375,-0.003861580742523074,0.013582111336290836,-0.048735812306404114
1771073917028708400,6.667708251953125,0.001464737462811172,0.023169483989477158,-0.04234423115849495
1771073917038649300,6.6776494140625,0.009986846707761288,0.023169483989477158,-0.03275685757398605
1771073917048590300,6.68759033203125,0.016378428786993027,0.015712639316916466,-0.024234747514128685
1771073917058530300,6.6975302734375,0.01957421936094761,-0.0034621069207787514,-0.015712639316916466
1771073917068470300,6.70747021484375,0.016378428786993027,-0.0141147430986166,-0.003994738683104515
1771073917078410200,6.71741015625,0.011052110232412815,-0.008788425475358963,0.013049479573965073
1771073917088350200,6.72735009765625,0.0035952648613601923,-0.0034621069207787514,0.026897907257080078
1771073917098290200,6.737290283203125,0.001464737462811172,0.008255792781710625,0.031158961355686188
1771073917108230100,6.747230224609375,0.0025300011038780212,0.015712639316916466,0.027963170781731606
1771073917118170000,6.757170166015625,-0.0017310534603893757,0.013582111336290836,0.010918952524662018
1771073917128110300,6.7671103515625,-0.004926844500005245,0.0018642114009708166,-0.009321057237684727
1771073917138050300,6.77705029296875,-0.004926844500005245,-0.001331579522229731,-0.024234747514128685
1771073917147990300,6.786990234375,-0.004926844500005245,-0.004527370445430279,-0.03169159218668938
1771073917157930200,6.79693017578125,-0.0006657897611148655,-0.015180006623268127,-0.03488738462328911
1771073917167870200,6.8068701171875,0.006791055668145418,-0.03009369783103466,-0.03169159218668938
1771073917177810200,6.81681005859375,0.012117373757064342,-0.03968106955289841,-0.023169483989477158
1771073917187750100,6.826750244140625,0.014247900806367397,-0.03755054250359535,-0.012516847811639309
1771073917197690000,6.836690185546875,0.012117373757064342,-0.0354200154542923,-0.00612526573240757
1771073917207630300,6.84663037109375,0.014247900806367397,-0.03755054250359535,-0.00612526573240757
1771073917217570300,6.8565703125,0.0153131652623415,-0.03755054250359535,-0.009321057237684727
1771073917227510300,6.86651025390625,0.012117373757064342,-0.0354200154542923,-0.012516847811639309
1771073917237450200,6.8764501953125,0.007856319658458233,-0.03009369783103466,-0.013582111336290836
1771073917247390200,6.88639013671875,0.006791055668145418,-0.026897907257080078,-0.018908429890871048
1771073917257330200,6.896330078125,0.006791055668145418,-0.017310533672571182,-0.024234747514128685
1771073917267270100,6.906270263671875,0.005725792143493891,-0.0002663159102667123,-0.02210422046482563
1771073917277210000,6.916210205078125,0.0035952648613601923,0.007190529722720385,-0.015712639316916466
1771073917287150300,6.926150390625,0.001464737462811172,0.002929474925622344,-0.00612526573240757
1771073917297090300,6.93609033203125,0.0003994738799519837,-0.004527370445430279,0.0034621069207787514
1771073917307030300,6.9460302734375,0.001464737462811172,-0.006657897960394621,0.00985368900001049
1771073917316970200,6.95597021484375,0.0003994738799519837,-0.0023968431632965803,0.011984216049313545
1771073917326910200,6.96591015625,-0.0006657897611148655,-0.001331579522229731,0.006657897960394621
1771073917336850200,6.97585009765625,0.0003994738799519837,0.002929474925622344,-0.0007989477599039674
1771073917346790100,6.9857900390625,-0.0017310534603893757,0.014647374860942364,-0.003994738683104515
1771073917356730000,6.995730224609375,-0.0070573715493083,0.018908429890871048,-0.0018642114009708166
1771073917366670300,7.00567041015625,-0.0070573715493083,0.02210422046482563,0.005592633970081806
1771073917376610300,7.0156103515625,-0.003861580742523074,0.021038956940174103,0.010918952524662018
1771073917386550300,7.02555029296875,-0.0006657897611148655,0.018908429890871048,0.019441060721874237
1771073917396490200,7.035490234375,-0.0006657897611148655,0.015712639316916466,0.023702116683125496
1771073917406430200,7.04543017578125,-0.005992108024656773,0.013582111336290836,0.024767380207777023
1771073917416370200,7.0553701171875,-0.008122635073959827,0.015712639316916466,0.020506324246525764
1771073917426310100,7.06531005859375,-0.0070573715493083,0.02210422046482563,0.011984216049313545
1771073917436250000,7.07525,-0.004926844500005245,0.02636527456343174,0.004527370445430279
1771073917446190300,7.0851904296875,-0.002796316985040903,0.024234747514128685,-0.0007989477599039674
1771073917456130300,7.09513037109375,-0.002796316985040903,0.018908429890871048,0.001331579522229731
1771073917466070300,7.1050703125,-0.003861580742523074,0.013582111336290836,0.006657897960394621
1771073917476010200,7.11501025390625,-0.002796316985040903,0.012516847811639309,0.013049479573965073
1771073917485950200,7.1249501953125,-0.0006657897611148655,0.008255792781710625,0.017310533672571182
1771073917495890200,7.13489013671875,0.0035952648613601923,0.003994738683104515,0.02157158963382244
1771073917505830100,7.144830078125,0.001464737462811172,-0.0023968431632965803,0.02157158963382244
1771073917515770000,7.15477001953125,-0.0006657897611148655,-0.007723161485046148,0.017310533672571182
1771073917525710300,7.16471044921875,-0.0006657897611148655,-0.004527370445430279,0.008788425475358963
1771073917535650300,7.174650390625,0.0003994738799519837,0.008255792781710625,-0.002929474925622344
1771073917545590300,7.18459033203125,-0.0006657897611148655,0.014647374860942364,-0.010386320762336254
1771073917565470200,7.20447021484375,0.0003994738799519837,0.011451584286987782,-0.0050600022077560425
1771073917575410200,7.21441015625,-0.002796316985040903,0.0018642114009708166,0.0023968431632965803
1771073917585350100,7.22435009765625,-0.005992108024656773,-0.0023968431632965803,0.008788425475358963
1771073917595290000,7.2342900390625,-0.003861580742523074,-0.001331579522229731,0.010918952524662018
1771073917605230300,7.244230224609375,0.0003994738799519837,-0.004527370445430279,0.006657897960394621
1771073917615170300,7.25417041015625,0.0003994738799519837,0.0018642114009708166,0.0002663159102667123
1771073917625110300,7.2641103515625,-0.0006657897611148655,0.011451584286987782,-0.0050600022077560425
1771073917635050200,7.27405029296875,-0.004926844500005245,0.013582111336290836,-0.0050600022077560425
1771073917644990200,7.283990234375,-0.008122635073959827,0.0050600022077560425,-0.0050600022077560425
1771073917654930200,7.29393017578125,-0.008122635073959827,-0.0023968431632965803,-0.003994738683104515
1771073917664870100,7.3038701171875,-0.0070573715493083,-0.005592633970081806,-0.0018642114009708166
1771073917674810000,7.31381005859375,-0.0017310534603893757,-0.007723161485046148,-0.0007989477599039674
1771073917684750300,7.323750244140625,-0.0006657897611148655,-0.0141147430986166,-0.002929474925622344
1771073917694690300,7.333690185546875,-0.0006657897611148655,-0.01837579719722271,-0.00612526573240757
1771073917704630300,7.34363037109375,0.001464737462811172,-0.010918952524662018,-0.009321057237684727
1771073917714570200,7.3535703125,0.0025300011038780212,-0.001331579522229731,-0.009321057237684727
1771073917724510200,7.36351025390625,0.0003994738799519837,0.0007989477599039674,-0.007190529722720385
1771073917734450200,7.3734501953125,-0.003861580742523074,0.007190529722720385,0.001331579522229731
1771073917744390100,7.38339013671875,-0.0070573715493083,0.013582111336290836,0.013049479573965073
1771073917754330000,7.393330078125,-0.008122635073959827,0.003994738683104515,0.02263685315847397
1771073917764270300,7.403270263671875,-0.005992108024656773,-0.020506324246525764,0.024767380207777023
1771073917774210300,7.413210205078125,-0.002796316985040903,-0.026897907257080078,0.020506324246525764
1771073917784150300,7.423150390625,0.0025300011038780212,-0.017310533672571182,0.013049479573965073
1771073917794090200,7.43309033203125,0.007856319658458233,-0.007723161485046148,0.0034621069207787514
1771073917804030200,7.4430302734375,0.007856319658458233,-0.001331579522229731,0.0002663159102667123
1771073917813970200,7.45297021484375,0.0035952648613601923,0.007190529722720385,0.006657897960394621
1771073917823910100,7.46291015625,-0.003861580742523074,0.011451584286987782,0.020506324246525764
1771073917833850000,7.47285009765625,-0.0070573715493083,0.015712639316916466,0.03328948840498924
1771073917843790300,7.482790283203125,-0.004926844500005245,0.018908429890871048,0.04607265070080757
1771073917853730300,7.492730224609375,0.001464737462811172,0.010386320762336254,0.05033370852470398
1771073917863670300,7.502670166015625,0.004660528618842363,-0.0034621069207787514,0.04713791608810425
1771073917873610200,7.5126103515625,0.005725792143493891,-0.010918952524662018,0.036485280841588974
1771073917883550200,7.52255029296875,0.005725792143493891,-0.011984216049313545,0.017310533672571182
1771073917893490200,7.532490234375,0.001464737462811172,-0.0034621069207787514,-0.0018642114009708166
1771073917903430100,7.54243017578125,-0.008122635073959827,0.009321057237684727,-0.012516847811639309
1771073917913370000,7.5523701171875,-0.01771000772714615,0.018908429890871048,-0.016777902841567993
1771073917923310300,7.562310302734375,-0.02090579830110073,0.025300011038780212,-0.015712639316916466
1771073917933250300,7.572250244140625,-0.018775271251797676,0.01784316636621952,-0.011451584286987782
1771073917943190300,7.582190185546875,-0.013448953628540039,-0.0023968431632965803,-0.010386320762336254
1771073917953130200,7.592130126953125,-0.008122635073959827,-0.017310533672571182,-0.013582111336290836
1771073917963070200,7.6020703125,-0.002796316985040903,-0.02583264373242855,-0.025300011038780212
1771073917973010200,7.61201025390625,0.005725792143493891,-0.02263685315847397,-0.03701791167259216
1771073917982950100,7.6219501953125,0.0035952648613601923,-0.0141147430986166,-0.04234423115849495
1771073917992890000,7.63189013671875,-0.003861580742523074,-0.007723161485046148,-0.040213704109191895
1771073918002830300,7.641830322265625,-0.014514217153191566,-0.005592633970081806,-0.029561065137386322
1771073918012770300,7.651770263671875,-0.018775271251797676,-0.0023968431632965803,-0.012516847811639309
1771073918022710300,7.661710205078125,-0.018775271251797676,0.007190529722720385,0.007723161485046148
1771073918032650200,7.671650146484375,-0.018775271251797676,0.007190529722720385,0.02263685315847397
1771073918042590200,7.681590087890625,-0.015579480677843094,0.002929474925622344,0.02583264373242855
1771073918052530200,7.6915302734375,-0.008122635073959827,0.008255792781710625,0.020506324246525764
1771073918062470100,7.70147021484375,-0.0017310534603893757,0.018908429890871048,0.013049479573965073
1771073918072410000,7.71141015625,0.004660528618842363,0.01784316636621952,0.004527370445430279
1771073918082350300,7.721350341796875,0.006791055668145418,0.0050600022077560425,-0.0007989477599039674
1771073918092290300,7.731290283203125,0.005725792143493891,-0.013049479573965073,-0.003994738683104515
1771073918102230300,7.741230224609375,0.007856319658458233,-0.02157158963382244,-0.009321057237684727
1771073918112170200,7.751170166015625,0.00892158318310976,-0.02263685315847397,-0.012516847811639309
1771073918122110200,7.761110107421875,0.011052110232412815,-0.023702116683125496,-0.011451584286987782
1771073918132050200,7.77105029296875,0.006791055668145418,-0.02157158963382244,-0.010386320762336254
1771073918141990100,7.780990234375,0.001464737462811172,-0.00985368900001049,-0.008255792781710625
1771073918151930000,7.79093017578125,-0.0006657897611148655,0.0018642114009708166,-0.007190529722720385
1771073918161870300,7.800870361328125,0.0025300011038780212,0.009321057237684727,-0.00612526573240757
1771073918171810300,7.810810302734375,0.005725792143493891,0.016777902841567993,-0.002929474925622344
1771073918181750300,7.820750244140625,0.0025300011038780212,0.018908429890871048,0.0023968431632965803
1771073918191690200,7.830690185546875,-0.003861580742523074,0.015712639316916466,0.0034621069207787514
1771073918201630200,7.840630126953125,-0.004926844500005245,0.012516847811639309,0.0002663159102667123
1771073918211570200,7.850570068359375,-0.002796316985040903,0.002929474925622344,-0.003994738683104515
1771073918221510100,7.86051025390625,-0.0017310534603893757,-0.0023968431632965803,-0.0050600022077560425
1771073918231450000,7.8704501953125,-0.0017310534603893757,-0.0023968431632965803,-0.00612526573240757
1771073918241390300,7.880390380859375,-0.005992108024656773,-0.005592633970081806,-0.0050600022077560425
1771073918251330300,7.890330322265625,-0.010253162123262882,-0.013049479573965073,-0.0050600022077560425
1771073918261270300,7.900270263671875,-0.011318426579236984,-0.006657897960394621,-0.0050600022077560425
1771073918271210200,7.910210205078125,-0.009187898598611355,0.0007989477599039674,-0.002929474925622344
1771073918281150200,7.920150146484375,-0.004926844500005245,0.002929474925622344,0.0023968431632965803
1771073918291090200,7.930090087890625,-0.0006657897611148655,0.00612526573240757,0.006657897960394621
1771073918301030100,7.940030029296875,0.004660528618842363,0.012516847811639309,0.006657897960394621
1771073918310970000,7.94997021484375,0.007856319658458233,0.01784316636621952,0.006657897960394621
1771073918320910300,7.959910400390625,0.006791055668145418,0.014647374860942364,0.006657897960394621
1771073918330850300,7.969850341796875,0.004660528618842363,0.00612526573240757,0.005592633970081806
1771073918340790300,7.979790283203125,0.001464737462811172,0.008255792781710625,0.0023968431632965803
1771073918350730200,7.989730224609375,-0.0006657897611148655,0.009321057237684727,-0.0007989477599039674
1771073918360670200,7.999670166015625,-0.0017310534603893757,0.002929474925622344,-0.002929474925622344
1771073918370610200,8.009610107421874,-0.002796316985040903,-0.0002663159102667123,-0.00612526573240757
1771073918380550100,8.019550048828124,-0.0006657897611148655,0.0018642114009708166,-0.007190529722720385
1771073918390490000,8.029489990234374,0.0025300011038780212,-0.004527370445430279,-0.010386320762336254
1771073918400430300,8.039430419921874,0.0025300011038780212,-0.016245270147919655,-0.013582111336290836
1771073918410370300,8.049370361328124,0.0003994738799519837,-0.01837579719722271,-0.015712639316916466
1771073918420310300,8.059310302734374,-0.0017310534603893757,-0.019441060721874237,-0.014647374860942364
1771073918430250200,8.069250244140624,-0.004926844500005245,-0.024767380207777023,-0.013582111336290836
1771073918440190200,8.079190185546874,-0.004926844500005245,-0.02263685315847397,-0.012516847811639309
1771073918450130200,8.089130126953124,-0.004926844500005245,-0.0141147430986166,-0.013582111336290836
1771073918460070100,8.099070068359374,-0.002796316985040903,-0.007723161485046148,-0.01784316636621952
1771073918470011000,8.109010986328125,-0.004926844500005245,-0.00985368900001049,-0.023169483989477158
1771073918479951000,8.118951171875,-0.004926844500005245,-0.011984216049313545,-0.024234747514128685
1771073918489891000,8.12889111328125,-0.004926844500005245,-0.007723161485046148,-0.019973693415522575
1771073918499831000,8.1388310546875,-0.005992108024656773,-0.00985368900001049,-0.012516847811639309
1771073918509771000,8.14877099609375,-0.005992108024656773,-0.015180006623268127,-0.00612526573240757
1771073918519711000,8.1587109375,-0.004926844500005245,-0.007723161485046148,-0.0018642114009708166
1771073918529651000,8.16865087890625,-0.005992108024656773,0.0007989477599039674,0.001331579522229731
1771073918539591200,8.178591064453125,-0.004926844500005245,-0.0023968431632965803,-0.0018642114009708166
1771073918549531100,8.18853125,-0.003861580742523074,-0.0023968431632965803,-0.00612526573240757
1771073918559471000,8.19847119140625,-0.0017310534603893757,-0.001331579522229731,-0.008255792781710625
1771073918569411000,8.2084111328125,-0.0006657897611148655,-0.006657897960394621,-0.010386320762336254
1771073918579351000,8.21835107421875,0.0003994738799519837,-0.0141147430986166,-0.015712639316916466
1771073918589291000,8.228291015625,0.001464737462811172,-0.013049479573965073,-0.021038956940174103
1771073918599231000,8.23823095703125,0.0035952648613601923,-0.006657897960394621,-0.02210422046482563
1771073918609171000,8.2481708984375,0.0025300011038780212,-0.006657897960394621,-0.019973693415522575
1771073918619111200,8.258111083984375,0.0025300011038780212,-0.011984216049313545,-0.016777902841567993
1771073918629051100,8.268051025390625,0.0035952648613601923,-0.015180006623268127,-0.011451584286987782
1771073918638991000,8.2779912109375,0.0025300011038780212,-0.024767380207777023,-0.008255792781710625
1771073918648931000,8.28793115234375,0.0025300011038780212,-0.032224226742982864,-0.009321057237684727
1771073918658871000,8.29787109375,0.0035952648613601923,-0.03009369783103466,-0.014647374860942364
1771073918668811000,8.30781103515625,0.0035952648613601923,-0.019441060721874237,-0.021038956940174103
1771073918678751000,8.3177509765625,0.001464737462811172,-0.00985368900001049,-0.019973693415522575
1771073918688691000,8.32769091796875,-0.002796316985040903,-0.0023968431632965803,-0.016777902841567993
1771073918698631200,8.337631103515625,-0.004926844500005245,0.0007989477599039674,-0.009321057237684727
1771073918708571100,8.347571044921875,-0.005992108024656773,0.00612526573240757,-0.0007989477599039674
1771073918718511000,8.357510986328125,-0.008122635073959827,0.002929474925622344,-0.0007989477599039674
1771073918728451000,8.367451171875,-0.005992108024656773,-0.001331579522229731,-0.002929474925622344
1771073918738391000,8.37739111328125,-0.002796316985040903,-0.0034621069207787514,-0.007190529722720385
1771073918748331000,8.3873310546875,-0.0006657897611148655,-0.005592633970081806,-0.009321057237684727
1771073918758271000,8.39727099609375,-0.002796316985040903,-0.006657897960394621,-0.011451584286987782
1771073918768211000,8.4072109375,-0.003861580742523074,-0.0034621069207787514,-0.010386320762336254
1771073918778151200,8.417151123046875,-0.005992108024656773,-0.001331579522229731,-0.009321057237684727
1771073918788091100,8.427091064453125,-0.005992108024656773,-0.001331579522229731,-0.010386320762336254
1771073918798031000,8.437031005859374,-0.004926844500005245,-0.006657897960394621,-0.013582111336290836
1771073918807971000,8.44697119140625,0.0035952648613601923,-0.0141147430986166,-0.015712639316916466
1771073918817911000,8.4569111328125,0.005725792143493891,-0.016245270147919655,-0.014647374860942364
1771073918827851000,8.46685107421875,0.005725792143493891,-0.011984216049313545,-0.009321057237684727
1771073918837791000,8.476791015625,0.005725792143493891,-0.008788425475358963,-0.00612526573240757
1771073918847731000,8.48673095703125,0.007856319658458233,-0.007723161485046148,-0.00612526573240757
1771073918857671200,8.496671142578125,0.006791055668145418,-0.004527370445430279,-0.008255792781710625
1771073918867611100,8.506611083984374,0.006791055668145418,-0.0023968431632965803,-0.009321057237684727
1771073918877551000,8.516551025390624,0.007856319658458233,-0.004527370445430279,-0.008255792781710625
1771073918887491000,8.526490966796874,0.005725792143493891,-0.011984216049313545,-0.003994738683104515
1771073918897431000,8.53643115234375,0.0025300011038780212,-0.00985368900001049,-0.0007989477599039674
1771073918907371000,8.54637109375,-0.002796316985040903,0.0007989477599039674,0.0023968431632965803
1771073918917311000,8.55631103515625,-0.0070573715493083,0.003994738683104515,0.0023968431632965803
1771073918927251000,8.5662509765625,-0.0070573715493083,0.0007989477599039674,0.0002663159102667123
1771073918947131100,8.586131103515624,-0.003861580742523074,0.014647374860942364,0.0002663159102667123
1771073918957071000,8.596071044921874,-0.0017310534603893757,0.009321057237684727,-0.0007989477599039674
1771073918967011000,8.606010986328124,0.0025300011038780212,-0.006657897960394621,-0.002929474925622344
1771073918976951000,8.615950927734374,0.006791055668145418,-0.006657897960394621,-0.003994738683104515
1771073918986891000,8.62589111328125,0.011052110232412815,-0.0023968431632965803,-0.002929474925622344
1771073918996831000,8.6358310546875,0.009986846707761288,-0.010918952524662018,-0.0007989477599039674
1771073919006771000,8.64577099609375,0.007856319658458233,-0.013049479573965073,0.004527370445430279
1771073919016711200,8.655711181640624,0.005725792143493891,-0.004527370445430279,0.010918952524662018
1771073919026651100,8.665651123046874,0.005725792143493891,0.0018642114009708166,0.015180006623268127
1771073919036591000,8.675591064453124,0.005725792143493891,0.0050600022077560425,0.015180006623268127
1771073919046531000,8.685531005859374,0.005725792143493891,0.007190529722720385,0.00985368900001049
1771073919056471000,8.695470947265624,0.004660528618842363,0.015712639316916466,-0.0007989477599039674
1771073919066411000,8.705410888671874,0.001464737462811172,0.025300011038780212,-0.0050600022077560425
1771073919076351000,8.71535107421875,0.0003994738799519837,0.025300011038780212,-0.003994738683104515
1771073919086291000,8.725291015625,-0.0017310534603893757,0.014647374860942364,0.0023968431632965803
1771073919096231200,8.735231201171874,-0.0017310534603893757,0.0050600022077560425,0.008788425475358963
1771073919106171100,8.745171142578124,-0.0006657897611148655,-0.005592633970081806,0.011984216049313545
1771073919116111000,8.755111083984374,0.0003994738799519837,-0.011984216049313545,0.00985368900001049
1771073919126051000,8.765051025390624,0.0035952648613601923,-0.017310533672571182,0.0023968431632965803
1771073919135991000,8.774990966796874,0.004660528618842363,-0.00985368900001049,-0.0050600022077560425
1771073919145931000,8.784930908203124,0.006791055668145418,-0.001331579522229731,-0.013582111336290836
1771073919155871000,8.79487109375,0.005725792143493891,0.0018642114009708166,-0.01784316636621952
1771073919165811000,8.80481103515625,0.0035952648613601923,0.0050600022077560425,-0.016777902841567993
1771073919175751200,8.814751220703124,0.0003994738799519837,0.009321057237684727,-0.011451584286987782
1771073919185691100,8.824691162109374,-0.0006657897611148655,0.002929474925622344,-0.00612526573240757
1771073919195631000,8.834631103515624,-0.002796316985040903,-0.001331579522229731,0.001331579522229731
1771073919205571000,8.844571044921874,-0.004926844500005245,0.0007989477599039674,0.007723161485046148
1771073919215511000,8.854510986328124,-0.005992108024656773,0.0018642114009708166,0.010918952524662018
1771073919225451000,8.864450927734374,-0.005992108024656773,0.007190529722720385,0.010918952524662018
1771073919235391000,8.874390869140624,-0.003861580742523074,0.021038956940174103,0.00985368900001049
1771073919245331000,8.8843310546875,-0.0017310534603893757,0.025300011038780212,0.00985368900001049
1771073919255271200,8.894271240234374,-0.002796316985040903,0.021038956940174103,0.008788425475358963
1771073919265211100,8.904211181640624,-0.0017310534603893757,0.014647374860942364,0.008788425475358963
1771073919275151000,8.914151123046874,0.0003994738799519837,0.00612526573240757,0.007723161485046148
1771073919285091000,8.924091064453124,0.0025300011038780212,-0.0002663159102667123,0.004527370445430279
1771073919295031000,8.934031005859374,0.005725792143493891,-0.004527370445430279,0.0034621069207787514
1771073919304971000,8.943970947265624,0.006791055668145418,-0.015180006623268127,0.0034621069207787514
1771073919314911000,8.953910888671874,0.007856319658458233,-0.01837579719722271,0.006657897960394621
1771073919324851000,8.963850830078124,0.007856319658458233,-0.0141147430986166,0.010918952524662018
1771073919334791200,8.973791259765624,0.009986846707761288,-0.008788425475358963,0.008788425475358963
1771073919344731100,8.983731201171874,0.01318263728171587,-0.004527370445430279,0.0023968431632965803
1771073919354671000,8.993671142578124,0.01318263728171587,-0.004527370445430279,-0.0050600022077560425
1771073919364611000,9.003611083984374,0.012117373757064342,-0.010918952524662018,-0.008255792781710625
1771073919374551000,9.013551025390624,0.01318263728171587,-0.0141147430986166,-0.003994738683104515
1771073919384491000,9.023490966796874,0.014247900806367397,-0.011984216049313545,0.001331579522229731
1771073919394431000,9.033430908203124,0.01318263728171587,-0.008788425475358963,0.006657897960394621
1771073919404371000,9.043370849609374,0.011052110232412815,-0.008788425475358963,0.00985368900001049
1771073919414311200,9.053311279296874,0.00892158318310976,-0.004527370445430279,0.011984216049313545
1771073919424251100,9.063251220703124,0.004660528618842363,-0.0034621069207787514,0.013049479573965073
1771073919434191000,9.073191162109374,0.001464737462811172,0.0007989477599039674,0.007723161485046148
1771073919444131000,9.083131103515624,0.0003994738799519837,0.010386320762336254,0.0002663159102667123
1771073919454071000,9.093071044921874,-0.0017310534603893757,0.014647374860942364,-0.009321057237684727
1771073919464011000,9.103010986328124,-0.004926844500005245,0.009321057237684727,-0.015712639316916466
1771073919473951000,9.112950927734374,-0.008122635073959827,0.002929474925622344,-0.01784316636621952
1771073919483891000,9.122890869140624,-0.011318426579236984,-0.001331579522229731,-0.014647374860942364
1771073919493831200,9.1328310546875,-0.012383690103888512,-0.00985368900001049,-0.008255792781710625
1771073919503771100,9.142771240234374,-0.014514217153191566,-0.011984216049313545,-0.0018642114009708166
1771073919513711000,9.152711181640624,-0.011318426579236984,-0.005592633970081806,0.005592633970081806
1771073919523651000,9.162651123046874,-0.0070573715493083,0.0050600022077560425,0.010918952524662018
1771073919533591000,9.172591064453124,-0.0070573715493083,0.015712639316916466,0.013049479573965073
1771073919543531000,9.182531005859374,-0.009187898598611355,0.014647374860942364,0.017310533672571182
1771073919573351200,9.21235107421875,0.007856319658458233,0.00612526573240757,0.010918952524662018
1771073919583291100,9.222291015625,0.016378428786993027,0.0018642114009708166,0.004527370445430279
1771073919593231000,9.232231201171874,0.020639482885599136,-0.004527370445430279,-0.0018642114009708166
1771073919603171000,9.242171142578124,0.02383527345955372,-0.008788425475358963,-0.008255792781710625
1771073919613111000,9.252111083984374,0.02383527345955372,-0.011984216049313545,-0.010386320762336254
1771073919623051000,9.262051025390624,0.021704746410250664,-0.011984216049313545,-0.011451584286987782
1771073919632991000,9.271990966796874,0.016378428786993027,-0.011984216049313545,-0.010386320762336254
1771073919642931000,9.281930908203124,0.009986846707761288,-0.011984216049313545,-0.007190529722720385
1771073919652871200,9.29187109375,0.0035952648613601923,-0.010918952524662018,-0.002929474925622344
1771073919662811100,9.30181103515625,-0.003861580742523074,-0.00985368900001049,-0.0018642114009708166
1771073919672751000,9.311751220703124,-0.008122635073959827,-0.005592633970081806,-0.0018642114009708166
1771073919682691000,9.321691162109374,-0.010253162123262882,0.003994738683104515,-0.0007989477599039674
1771073919692631000,9.331631103515624,-0.009187898598611355,0.008255792781710625,0.0002663159102667123
1771073919702571000,9.341571044921874,-0.009187898598611355,-0.001331579522229731,-0.0007989477599039674
1771073919712511000,9.351510986328124,-0.011318426579236984,-0.016245270147919655,-0.0018642114009708166
1771073919722451000,9.361450927734374,-0.011318426579236984,-0.02583264373242855,-0.002929474925622344
1771073919732391200,9.37139111328125,-0.008122635073959827,-0.027963170781731606,-0.0007989477599039674
1771073919742331100,9.3813310546875,-0.0017310534603893757,-0.029028434306383133,-0.003994738683104515
1771073919752271000,9.39127099609375,0.0035952648613601923,-0.024767380207777023,-0.003994738683104515
1771073919762211000,9.401211181640624,0.006791055668145418,-0.008788425475358963,-0.002929474925622344
1771073919772151000,9.411151123046874,0.004660528618842363,0.008255792781710625,0.0023968431632965803
1771073919782091000,9.421091064453124,0.0035952648613601923,0.013582111336290836,0.005592633970081806
1771073919792031000,9.431031005859374,0.005725792143493891,0.016777902841567993,0.008788425475358963
1771073919801971000,9.440970947265624,0.007856319658458233,0.019973693415522575,0.011984216049313545
1771073919811911200,9.4509111328125,0.005725792143493891,0.019973693415522575,0.016245270147919655
1771073919821851100,9.46085107421875,0.001464737462811172,0.010386320762336254,0.016245270147919655
1771073919831791000,9.470791015625,0.0003994738799519837,0.0007989477599039674,0.011984216049313545
1771073919841731000,9.48073095703125,0.001464737462811172,0.002929474925622344,0.004527370445430279
1771073919851671000,9.490671142578124,-0.0006657897611148655,0.008255792781710625,-0.003994738683104515
1771073919861611000,9.500611083984374,-0.004926844500005245,0.00612526573240757,-0.013582111336290836
1771073919871551000,9.510551025390624,-0.0070573715493083,0.0050600022077560425,-0.019973693415522575
1771073919881491000,9.520490966796874,-0.003861580742523074,-0.0034621069207787514,-0.024234747514128685
1771073919891431200,9.53043115234375,0.0003994738799519837,-0.017310533672571182,-0.019973693415522575
1771073919901371100,9.54037109375,-0.0006657897611148655,-0.02157158963382244,-0.007190529722720385
1771073919911311000,9.55031103515625,-0.0017310534603893757,-0.020506324246525764,0.007723161485046148
1771073919921251000,9.5602509765625,-0.002796316985040903,-0.011984216049313545,0.019441060721874237
1771073919931191000,9.57019091796875,-0.002796316985040903,-0.0002663159102667123,0.016245270147919655
1771073919941131000,9.580131103515624,-0.003861580742523074,0.014647374860942364,0.008788425475358963
1771073919951071000,9.590071044921874,-0.009187898598611355,0.025300011038780212,-0.0018642114009708166
1771073919961011000,9.600010986328124,-0.014514217153191566,0.027430538088083267,-0.009321057237684727
1771073919970951200,9.609951171875,-0.015579480677843094,0.02636527456343174,-0.009321057237684727
1771073919980891100,9.61989111328125,-0.01771000772714615,0.016777902841567993,-0.00612526573240757
1771073919990831000,9.6298310546875,-0.01771000772714615,0.010386320762336254,0.001331579522229731
1771073920000771000,9.63977099609375,-0.01664474420249462,0.007190529722720385,0.00985368900001049
1771073920010711000,9.6497109375,-0.014514217153191566,-0.0002663159102667123,0.0141147430986166
1771073920020651000,9.659651123046874,-0.009187898598611355,-0.006657897960394621,0.013049479573965073
1771073920030591000,9.669591064453124,-0.003861580742523074,-0.013049479573965073,0.008788425475358963
1771073920040531000,9.679531005859374,-0.0006657897611148655,-0.01837579719722271,-0.002929474925622344
1771073920050471200,9.68947119140625,0.0003994738799519837,-0.017310533672571182,-0.011451584286987782
1771073920060411100,9.6994111328125,0.0003994738799519837,-0.00985368900001049,-0.019973693415522575
1771073920070351000,9.70935107421875,0.0003994738799519837,-0.010918952524662018,-0.027430538088083267
1771073920080291000,9.719291015625,0.0003994738799519837,-0.013049479573965073,-0.025300011038780212
1771073920090231000,9.72923095703125,0.0003994738799519837,-0.006657897960394621,-0.015712639316916466
1771073920100171000,9.7391708984375,0.0003994738799519837,-0.0002663159102667123,-0.003994738683104515
1771073920110111000,9.749111083984374,0.0003994738799519837,-0.0023968431632965803,0.004527370445430279
1771073920120051000,9.759051025390624,0.001464737462811172,0.002929474925622344,0.011984216049313545
1771073920129991200,9.7689912109375,0.0025300011038780212,0.024234747514128685,0.015180006623268127
1771073920139931100,9.77893115234375,0.0003994738799519837,0.03914843872189522,0.017310533672571182
1771073920149871000,9.78887109375,-0.0006657897611148655,0.03382211923599243,0.013049479573965073
1771073920159811000,9.79881103515625,0.017443692311644554,0.0540621280670166,0.0023968431632965803
1771073920169751000,9.8087509765625,0.0003994738799519837,0.035952646285295486,-0.0007989477599039674
1771073920179691000,9.81869091796875,-0.015579480677843094,0.0050600022077560425,0.0034621069207787514
1771073920189631000,9.828630859375,-0.0070573715493083,-0.006657897960394621,-0.0018642114009708166
1771073920199571000,9.838571044921874,0.00892158318310976,0.0018642114009708166,-0.0050600022077560425
1771073920209511200,9.84851123046875,0.01850895583629608,0.008255792781710625,-0.007190529722720385
1771073920219451100,9.858451171875,0.0153131652623415,0.00612526573240757,-0.0050600022077560425
1771073920229391000,9.86839111328125,0.00892158318310976,-0.00985368900001049,-0.0018642114009708166
1771073920239331000,9.8783310546875,0.0035952648613601923,-0.015180006623268127,0.0023968431632965803
1771073920249271000,9.88827099609375,-0.0017310534603893757,-0.00985368900001049,0.0023968431632965803
1771073920259211000,9.8982109375,-0.003861580742523074,-0.004527370445430279,-0.003994738683104515
1771073920269151000,9.90815087890625,-0.0006657897611148655,-0.0023968431632965803,-0.013582111336290836
1771073920279091000,9.918091064453124,0.0025300011038780212,-0.0034621069207787514,-0.01784316636621952
1771073920289031200,9.92803125,0.0035952648613601923,-0.006657897960394621,-0.018908429890871048
1771073920298971100,9.93797119140625,0.0035952648613601923,-0.013049479573965073,-0.019973693415522575
1771073920308911000,9.9479111328125,0.005725792143493891,-0.0141147430986166,-0.019973693415522575
1771073920318851000,9.95785107421875,0.005725792143493891,-0.019441060721874237,-0.018908429890871048
1771073920328791000,9.967791015625,0.004660528618842363,-0.02583264373242855,-0.016777902841567993
1771073920338731000,9.97773095703125,0.001464737462811172,-0.019441060721874237,-0.008255792781710625
1771073920348671000,9.9876708984375,-0.002796316985040903,-0.008788425475358963,0.0002663159102667123
1771073920358611000,9.99761083984375,-0.0070573715493083,-0.008788425475358963,0.0023968431632965803
1771073920368551200,10.00755126953125,-0.008122635073959827,-0.00985368900001049,0.0002663159102667123
1771073920378491100,10.0174912109375,-0.0070573715493083,-0.0002663159102667123,-0.002929474925622344
1771073920388431000,10.02743115234375,-0.004926844500005245,0.0050600022077560425,-0.0018642114009708166
1771073920398371000,10.03737109375,-0.004926844500005245,0.00612526573240757,0.001331579522229731
1771073920408311000,10.04731103515625,-0.003861580742523074,0.010386320762336254,0.004527370445430279
1771073920418251000,10.0572509765625,-0.003861580742523074,0.015712639316916466,0.005592633970081806
1771073920428191000,10.06719091796875,-0.0017310534603893757,0.016777902841567993,0.0034621069207787514
1771073920448071200,10.0870712890625,-0.004926844500005245,0.0050600022077560425,0.0023968431632965803
1771073920458011100,10.09701123046875,-0.004926844500005245,-0.0034621069207787514,0.005592633970081806
1771073920467951400,10.106951416015624,-0.002796316985040903,-0.005592633970081806,0.00985368900001049
1771073920477891300,10.116891357421874,-0.002796316985040903,0.0007989477599039674,0.016245270147919655
1771073920487831300,10.126831298828124,-0.003861580742523074,0.011451584286987782,0.019441060721874237
1771073920497771500,10.136771484375,-0.005992108024656773,0.02210422046482563,0.016245270147919655
1771073920507711500,10.14671142578125,-0.004926844500005245,0.025300011038780212,0.008788425475358963
1771073920517651500,10.1566513671875,-0.0017310534603893757,0.03275685757398605,0.001331579522229731
1771073920527591700,10.166591796875,-0.0017310534603893757,0.027430538088083267,-0.0050600022077560425
1771073920537531600,10.17653173828125,0.0003994738799519837,0.011451584286987782,-0.00612526573240757
1771073920547471600,10.1864716796875,0.001464737462811172,0.0018642114009708166,-0.003994738683104515
1771073920557411800,10.196411865234374,0.005725792143493891,-0.0023968431632965803,-0.0018642114009708166
1771073920567351800,10.206351806640624,0.00892158318310976,-0.004527370445430279,-0.002929474925622344
1771073920577291800,10.216291748046874,0.007856319658458233,-0.005592633970081806,-0.00612526573240757
1771073920587232000,10.22623193359375,0.0025300011038780212,-0.011984216049313545,-0.010386320762336254
1771073920597172000,10.236171875,-0.0017310534603893757,-0.019441060721874237,-0.016777902841567993
1771073920607112000,10.24611181640625,-0.003861580742523074,-0.020506324246525764,-0.019973693415522575
1771073920617052200,10.25605224609375,-0.005992108024656773,-0.00985368900001049,-0.019973693415522575
1771073920626992000,10.2659921875,-0.005992108024656773,0.0007989477599039674,-0.01784316636621952
1771073920636932000,10.27593212890625,-0.004926844500005245,0.002929474925622344,-0.016777902841567993
1771073920646872300,10.285872314453124,-0.0017310534603893757,0.0007989477599039674,-0.012516847811639309
1771073920656812300,10.295812255859374,-0.0006657897611148655,0.008255792781710625,-0.00612526573240757
1771073920666752300,10.305752197265624,-0.0006657897611148655,0.01784316636621952,0.0002663159102667123
1771073920676692500,10.3156923828125,-0.002796316985040903,0.025300011038780212,-0.00612526573240757
1771073920686632400,10.325632568359374,-0.004926844500005245,0.03701791167259216,-0.018908429890871048
1771073920696572400,10.335572509765624,-0.009187898598611355,0.04554001986980438,-0.03914843872189522
1771073920706512600,10.3455126953125,-0.012383690103888512,0.04660528525710106,-0.05725792050361633
1771073920716452600,10.35545263671875,-0.01664474420249462,0.05086633935570717,-0.0679105594754219
1771073920726392600,10.365392578125,-0.014514217153191566,0.04127896577119827,-0.0679105594754219
1771073920736332500,10.37533251953125,-0.0070573715493083,0.02210422046482563,-0.05299686640501022
1771073920746272500,10.3852724609375,0.001464737462811172,0.010386320762336254,-0.025300011038780212
1771073920756212500,10.39521240234375,0.00892158318310976,-0.004527370445430279,0.001331579522229731
1771073920766152400,10.40515234375,0.01318263728171587,-0.013049479573965073,0.017310533672571182
1771073920776092700,10.4150927734375,0.011052110232412815,-0.016245270147919655,0.019441060721874237
1771073920786032600,10.42503271484375,0.006791055668145418,-0.019441060721874237,0.011984216049313545
1771073920795972600,10.43497265625,0.001464737462811172,-0.017310533672571182,0.0002663159102667123
1771073920805912600,10.44491259765625,-0.0017310534603893757,-0.008788425475358963,-0.008255792781710625
1771073920815852500,10.4548525390625,-0.0006657897611148655,-0.001331579522229731,-0.015712639316916466
1771073920825792500,10.46479248046875,0.0035952648613601923,-0.005592633970081806,-0.018908429890871048
1771073920835732500,10.474732421875,0.007856319658458233,-0.006657897960394621,-0.014647374860942364
1771073920845672400,10.48467236328125,0.006791055668145418,-0.006657897960394621,-0.003994738683104515
1771073920855612700,10.49461279296875,0.0003994738799519837,-0.006657897960394621,0.007723161485046148
1771073920865552600,10.504552734375,-0.003861580742523074,-0.001331579522229731,0.016245270147919655
1771073920875492600,10.51449267578125,-0.005992108024656773,0.011451584286987782,0.02263685315847397
1771073920885432600,10.5244326171875,-0.008122635073959827,0.025300011038780212,0.02583264373242855
1771073920895372500,10.53437255859375,-0.011318426579236984,0.030626330524683,0.023702116683125496
1771073920905312500,10.5443125,-0.014514217153191566,0.035952646285295486,0.0141147430986166
1771073920915252500,10.55425244140625,-0.014514217153191566,0.035952646285295486,0.001331579522229731
1771073920925192400,10.5641923828125,-0.014514217153191566,0.021038956940174103,-0.009321057237684727
1771073920935132700,10.574132568359374,-0.011318426579236984,0.0050600022077560425,-0.013582111336290836
1771073920945072600,10.58407275390625,-0.005992108024656773,-0.004527370445430279,-0.007190529722720385
1771073920955012600,10.5940126953125,-0.0006657897611148655,-0.007723161485046148,0.005592633970081806
1771073920964952600,10.60395263671875,0.001464737462811172,-0.019441060721874237,0.015180006623268127
1771073920974892500,10.613892578125,0.005725792143493891,-0.023702116683125496,0.016245270147919655
1771073920984832500,10.62383251953125,0.005725792143493891,-0.016245270147919655,0.00985368900001049
1771073920994772500,10.6337724609375,0.0035952648613601923,-0.00985368900001049,-0.003994738683104515
1771073921004712400,10.64371240234375,0.001464737462811172,-0.005592633970081806,-0.019973693415522575
1771073921014652700,10.653652587890624,0.0025300011038780212,0.002929474925622344,-0.025300011038780212
1771073921024592600,10.663592529296874,0.004660528618842363,0.003994738683104515,-0.019973693415522575
1771073921034532600,10.67353271484375,0.00892158318310976,0.0007989477599039674,-0.002929474925622344
1771073921044472600,10.68347265625,0.012117373757064342,-0.0034621069207787514,0.019441060721874237
1771073921054412500,10.69341259765625,0.005725792143493891,-0.010918952524662018,0.032224226742982864
1771073921064352500,10.7033525390625,0.0003994738799519837,-0.0141147430986166,0.027963170781731606
1771073921074292500,10.71329248046875,-0.0006657897611148655,0.0007989477599039674,0.010918952524662018
1771073921084232400,10.723232421875,-0.0017310534603893757,0.024234747514128685,-0.0050600022077560425
1771073921094172700,10.733172607421874,-0.0017310534603893757,0.029561065137386322,-0.012516847811639309
1771073921104112600,10.743112548828124,-0.002796316985040903,0.018908429890871048,-0.007190529722720385
1771073921114052600,10.753052490234374,-0.0006657897611148655,0.003994738683104515,0.007723161485046148
1771073921123992600,10.76299267578125,0.001464737462811172,-0.006657897960394621,0.02157158963382244
1771073921133932500,10.7729326171875,0.004660528618842363,-0.008788425475358963,0.024767380207777023
1771073921143872500,10.78287255859375,0.007856319658458233,-0.006657897960394621,0.019441060721874237
1771073921153812500,10.7928125,0.004660528618842363,-0.00985368900001049,0.008788425475358963
1771073921163752400,10.80275244140625,-0.0006657897611148655,-0.011984216049313545,0.0002663159102667123
1771073921173692700,10.812692626953124,-0.003861580742523074,-0.013049479573965073,-0.00612526573240757
1771073921183632600,10.822632568359374,-0.002796316985040903,-0.016245270147919655,-0.007190529722720385
1771073921193572600,10.832572509765624,0.0003994738799519837,-0.02157158963382244,-0.003994738683104515
1771073921203512600,10.8425126953125,0.0025300011038780212,-0.017310533672571182,0.004527370445430279
1771073921213452500,10.85245263671875,0.001464737462811172,-0.008788425475358963,0.00985368900001049
1771073921223392500,10.862392578125,0.0025300011038780212,0.0050600022077560425,0.0141147430986166
1771073921233332500,10.87233251953125,0.005725792143493891,0.02210422046482563,0.01837579719722271
1771073921243272400,10.8822724609375,0.005725792143493891,0.024234747514128685,0.01837579719722271
1771073921253212700,10.892212646484374,0.0035952648613601923,0.015712639316916466,0.013049479573965073
1771073921263152600,10.902152587890624,0.001464737462811172,0.0050600022077560425,0.006657897960394621
1771073921273092600,10.912092529296874,0.001464737462811172,0.002929474925622344,0.0002663159102667123
1771073921283032600,10.922032470703124,0.004660528618842363,-0.0002663159102667123,0.001331579522229731
1771073921292972500,10.93197265625,0.005725792143493891,-0.0034621069207787514,0.004527370445430279
1771073921302912500,10.94191259765625,0.005725792143493891,-0.001331579522229731,0.010918952524662018
1771073921312852500,10.9518525390625,0.005725792143493891,-0.005592633970081806,0.011984216049313545
1771073921322792400,10.96179248046875,0.0035952648613601923,-0.015180006623268127,0.00985368900001049
1771073921332732700,10.971732666015624,0.001464737462811172,-0.016245270147919655,0.006657897960394621
1771073921342672600,10.981672607421874,-0.004926844500005245,-0.019441060721874237,0.001331579522229731
1771073921352612600,10.991612548828124,-0.009187898598611355,-0.02157158963382244,-0.0018642114009708166
1771073921362552600,11.001552490234374,-0.008122635073959827,-0.011984216049313545,-0.0007989477599039674
1771073921372492500,11.011492431640624,-0.004926844500005245,-0.0023968431632965803,0.0034621069207787514
1771073921382432500,11.0214326171875,-0.0017310534603893757,0.0050600022077560425,0.00985368900001049
1771073921392372500,11.03137255859375,0.0003994738799519837,0.011451584286987782,0.017310533672571182
1771073921402312400,11.0413125,0.0003994738799519837,0.007190529722720385,0.020506324246525764
1771073921412252700,11.051252685546874,0.0003994738799519837,-0.001331579522229731,0.02263685315847397
1771073921422192600,11.061192626953124,-0.002796316985040903,-0.007723161485046148,0.020506324246525764
1771073921432132600,11.071132568359374,-0.003861580742523074,-0.00985368900001049,0.013049479573965073
1771073921442072600,11.081072509765624,-0.002796316985040903,-0.0023968431632965803,0.004527370445430279
1771073921452012500,11.091012451171874,0.0003994738799519837,0.0018642114009708166,-0.0007989477599039674
1771073921461952500,11.100952392578124,-0.0006657897611148655,0.002929474925622344,-0.0018642114009708166
1771073921471892500,11.110892578125,-0.0006657897611148655,0.003994738683104515,0.0023968431632965803
1771073921481832400,11.12083251953125,0.001464737462811172,0.0018642114009708166,0.008788425475358963
1771073921491772700,11.130772705078124,0.0035952648613601923,-0.0002663159102667123,0.013049479573965073
1771073921501712600,11.140712646484374,0.006791055668145418,-0.007723161485046148,0.008788425475358963
1771073921511652600,11.150652587890624,0.006791055668145418,-0.013049479573965073,0.0034621069207787514
1771073921521592600,11.160592529296874,0.005725792143493891,-0.004527370445430279,-0.0018642114009708166
1771073921531532500,11.170532470703124,0.0035952648613601923,-0.001331579522229731,-0.00612526573240757
1771073921541472500,11.180472412109374,0.0025300011038780212,-0.004527370445430279,-0.009321057237684727
1771073921551412500,11.19041259765625,0.0025300011038780212,-0.006657897960394621,-0.009321057237684727
1771073921561352400,11.2003525390625,0.004660528618842363,-0.007723161485046148,-0.007190529722720385
1771073921571292700,11.210292724609374,0.004660528618842363,-0.00985368900001049,-0.0007989477599039674
1771073921581232600,11.220232666015624,0.001464737462811172,-0.006657897960394621,0.004527370445430279
1771073921591172600,11.230172607421874,-0.0006657897611148655,0.0018642114009708166,0.008788425475358963
1771073921601112600,11.240112548828124,-0.002796316985040903,0.009321057237684727,0.010918952524662018
1771073921611052500,11.250052490234374,-0.003861580742523074,0.015712639316916466,0.00985368900001049
1771073921620992500,11.259992431640624,-0.003861580742523074,0.010386320762336254,0.008788425475358963
1771073921630932500,11.269932373046874,-0.004926844500005245,0.0007989477599039674,0.008788425475358963
1771073921640872400,11.27987255859375,-0.005992108024656773,-0.001331579522229731,0.007723161485046148
1771073921650812700,11.289812744140624,-0.008122635073959827,0.0007989477599039674,0.0034621069207787514
1771073921660752600,11.299752685546874,-0.0070573715493083,-0.0002663159102667123,-0.003994738683104515
1771073921670692600,11.309692626953124,-0.0017310534603893757,0.0050600022077560425,-0.009321057237684727
1771073921680632600,11.319632568359374,0.0003994738799519837,0.009321057237684727,-0.008255792781710625
1771073921690572500,11.329572509765624,0.0003994738799519837,0.010386320762336254,-0.002929474925622344
1771073921700512500,11.339512451171874,0.001464737462811172,0.0007989477599039674,0.0034621069207787514
1771073921710452500,11.349452392578126,0.005725792143493891,-0.011984216049313545,0.00985368900001049
1771073921720392400,11.359392333984376,0.006791055668145418,-0.019441060721874237,0.013049479573965073
1771073921730332700,11.369332763671874,0.005725792143493891,-0.019441060721874237,0.010918952524662018
1771073921740272600,11.379272705078124,0.0025300011038780212,-0.008788425475358963,0.005592633970081806
1771073921750212600,11.389212646484374,0.001464737462811172,-0.001331579522229731,-0.002929474925622344
1771073921760152600,11.399152587890624,0.0003994738799519837,0.009321057237684727,-0.010386320762336254
1771073921770092500,11.409092529296874,-0.0006657897611148655,0.018908429890871048,-0.012516847811639309
1771073921780032500,11.419032470703126,0.0003994738799519837,0.021038956940174103,-0.009321057237684727
1771073921789972500,11.428972412109376,0.0025300011038780212,0.010386320762336254,-0.003994738683104515
1771073921799912400,11.438912353515626,0.0035952648613601923,-0.0034621069207787514,0.0034621069207787514
1771073921809852700,11.448852783203124,0.0003994738799519837,-0.008788425475358963,0.007723161485046148
1771073921819792600,11.458792724609374,-0.002796316985040903,-0.007723161485046148,0.00985368900001049
1771073921829732600,11.468732666015624,-0.003861580742523074,-0.001331579522229731,0.006657897960394621
1771073921839672600,11.478672607421874,-0.003861580742523074,0.008255792781710625,0.001331579522229731
1771073921849612500,11.488612548828126,-0.002796316985040903,0.011451584286987782,-0.0018642114009708166
1771073921859552500,11.498552490234376,-0.0017310534603893757,0.00612526573240757,-0.002929474925622344
1771073921869492500,11.508492431640626,-0.0006657897611148655,0.002929474925622344,-0.002929474925622344
1771073921879432400,11.518432373046876,0.001464737462811172,0.002929474925622344,0.0002663159102667123
1771073921889372700,11.52837255859375,0.001464737462811172,-0.004527370445430279,0.0023968431632965803
1771073921899312600,11.538312744140624,0.0025300011038780212,-0.011984216049313545,0.0034621069207787514
1771073921909252600,11.548252685546874,0.0035952648613601923,-0.010918952524662018,0.0034621069207787514
1771073921919192600,11.558192626953126,0.004660528618842363,-0.008788425475358963,0.0034621069207787514
1771073921929132500,11.568132568359376,0.0035952648613601923,-0.004527370445430279,0.0023968431632965803
1771073921939072500,11.578072509765626,0.001464737462811172,0.002929474925622344,0.0002663159102667123
1771073921949012500,11.588012451171876,0.0003994738799519837,0.008255792781710625,-0.002929474925622344
1771073921958952400,11.597952392578126,-0.0017310534603893757,0.014647374860942364,-0.002929474925622344
1771073921968892700,11.607892578125,-0.002796316985040903,0.018908429890871048,-0.0007989477599039674
1771073921978832600,11.61783251953125,-0.003861580742523074,0.013582111336290836,-0.0007989477599039674
1771073921988772600,11.627772705078126,-0.003861580742523074,0.007190529722720385,-0.0018642114009708166
1771073921998712600,11.637712646484376,-0.003861580742523074,0.003994738683104515,-0.003994738683104515
1771073922008652500,11.647652587890626,0.0003994738799519837,0.0007989477599039674,-0.003994738683104515
1771073922018592500,11.657592529296876,0.004660528618842363,-0.001331579522229731,-0.0050600022077560425
1771073922028532500,11.667532470703126,0.007856319658458233,-0.008788425475358963,-0.002929474925622344
1771073922038472400,11.677472412109376,0.007856319658458233,-0.00985368900001049,0.0002663159102667123
1771073922048412700,11.68741259765625,0.0025300011038780212,-0.010918952524662018,0.0002663159102667123
1771073922058352600,11.6973525390625,-0.004926844500005245,-0.020506324246525764,-0.00612526573240757
1771073922068292600,11.707292724609376,-0.009187898598611355,-0.01837579719722271,-0.016777902841567993
1771073922078232600,11.717232666015626,-0.009187898598611355,-0.007723161485046148,-0.024234747514128685
1771073922088172500,11.727172607421876,-0.009187898598611355,0.0018642114009708166,-0.023169483989477158
1771073922098112500,11.737112548828126,-0.010253162123262882,0.008255792781710625,-0.015712639316916466
1771073922108052500,11.747052490234376,-0.009187898598611355,0.0050600022077560425,-0.0050600022077560425
1771073922117992400,11.756992431640626,-0.008122635073959827,-0.0002663159102667123,0.0034621069207787514
1771073922127932700,11.7669326171875,-0.005992108024656773,0.003994738683104515,0.007723161485046148
1771073922137872600,11.77687255859375,-0.005992108024656773,0.010386320762336254,0.007723161485046148
1771073922147812600,11.7868125,-0.0070573715493083,0.009321057237684727,0.0034621069207787514
1771073922157752600,11.796752685546876,-0.003861580742523074,-0.0002663159102667123,-0.0018642114009708166
1771073922167692500,11.806692626953126,0.0003994738799519837,-0.007723161485046148,-0.0018642114009708166
1771073922177632500,11.816632568359376,0.0025300011038780212,-0.008788425475358963,0.001331579522229731
1771073922187572500,11.826572509765626,0.004660528618842363,-0.008788425475358963,0.005592633970081806
1771073922197512400,11.836512451171876,0.004660528618842363,-0.006657897960394621,0.004527370445430279
1771073922207452700,11.84645263671875,0.0035952648613601923,-0.0023968431632965803,-0.0007989477599039674
1771073922217392600,11.856392578125,0.0025300011038780212,-0.005592633970081806,-0.009321057237684727
