time,seconds_elapsed,z,y,x
1771082268178072000,0.162072021484375,-0.7426090240478516,0.02614501118659973,-0.11269097775220871
1771082268187906800,0.17190673828125,-0.28232669830322266,0.013806216418743134,-0.05708754062652588
1771082268197759700,0.181759765625,0.10725975036621094,0.00038111209869384766,-0.004681885242462158
1771082268207633700,0.191633544921875,0.4258098602294922,-0.01445518434047699,0.04179909825325012
1771082268217530000,0.201530029296875,0.8088960647583008,-0.03820456564426422,0.08288273215293884
1771082268227450400,0.211450439453125,1.0090084075927734,-0.044688764959573746,0.125944584608078
1771082268237394000,0.221393798828125,0.5011672973632812,-0.025597114115953445,0.051990121603012085
1771082268247360000,0.231360107421875,0.04290962219238281,-0.014789000153541565,0.010105729103088379
1771082268257346800,0.241346923828125,-0.2642192840576172,0.002756841480731964,-0.028259068727493286
1771082268267351300,0.251351318359375,-0.46686744689941406,0.010502316057682037,-0.06067860126495361
1771082268277370400,0.261370361328125,-0.546696662902832,0.014941304922103882,-0.07475803792476654
1771082268287400200,0.271400146484375,-0.44191837310791016,0.01199367642402649,-0.06027255952358246
1771082268297437000,0.28143701171875,-0.1926136016845703,0.009708739817142487,-0.036503374576568604
1771082268307476500,0.2914765625,0.04499244689941406,0.0017814338207244873,-0.011699706315994263
1771082268317483500,0.3014833984375,0.2609081268310547,-0.01099119707942009,0.017614006996154785
1771082268327424300,0.31142431640625,0.4613323211669922,-0.02526111900806427,0.04576250910758972
1771082268347305700,0.3313056640625,0.3491554260253906,-0.022075582295656204,0.04102560877799988
1771082268357246500,0.34124658203125,0.08465862274169922,-0.008045561611652374,0.008264273405075073
1771082268367187000,0.35118701171875,-0.11253929138183594,-0.003663957118988037,-0.01206827163696289
1771082268377127700,0.361127685546875,-0.24983596801757812,-0.0027553215622901917,-0.03211002051830292
1771082268387068400,0.371068359375,-0.3086891174316406,0.007271423935890198,-0.03973287343978882
1771082268397009200,0.381009033203125,-0.27088069915771484,0.0054905712604522705,-0.045112937688827515
1771082268406950000,0.390949951171875,-0.15327072143554688,0.0010337606072425842,-0.02170291543006897
1771082268416890400,0.400890380859375,-0.0044994354248046875,-0.002484343945980072,-0.0055675208568573
1771082268426831000,0.4108310546875,0.12594985961914062,-0.01064908504486084,0.010389178991317749
1771082268436771800,0.420771728515625,0.25040149688720703,-0.01746707782149315,0.02597936987876892
1771082268446712600,0.430712646484375,0.29468250274658203,-0.014385722577571869,0.031210362911224365
1771082268456653000,0.440653076171875,0.22374629974365234,-0.013415336608886719,0.031033694744110107
1771082268466593800,0.45059375,0.08017921447753906,-0.006596922874450684,0.003101527690887451
1771082268476534500,0.460534423828125,-0.04098987579345703,-0.002495996654033661,-0.007578611373901367
1771082268486475300,0.470475341796875,-0.12410259246826172,-0.004794947803020477,-0.01474231481552124
1771082268496415700,0.480415771484375,-0.17717742919921875,-0.0034892484545707703,-0.019495338201522827
1771082268506356500,0.4903564453125,-0.14956283569335938,-0.0032372623682022095,-0.026977211236953735
1771082268516297200,0.500297119140625,-0.0945577621459961,0.00045975297689437866,-0.022593766450881958
1771082268526238000,0.510238037109375,0.0036268234252929688,-0.00945783406496048,-0.012313544750213623
1771082268536178700,0.5201787109375,0.08323955535888672,-0.007558859884738922,0.0027179718017578125
1771082268556060000,0.540059814453125,0.15353870391845703,-0.00860217958688736,0.020253092050552368
1771082268566000600,0.550000732421875,0.1245107650756836,-0.007128491997718811,0.012152343988418579
1771082268575941400,0.55994140625,0.04450035095214844,-0.015576731413602829,0.0031959116458892822
1771082268585881900,0.5698818359375,-0.031540870666503906,-0.0029487162828445435,-0.0033348500728607178
1771082268595822600,0.579822509765625,-0.07086944580078125,-0.004145294427871704,-0.010754227638244629
1771082268605763300,0.589763427734375,-0.08595943450927734,-0.009305775165557861,-0.009861171245574951
1771082268615704000,0.5997041015625,-0.07257366180419922,0.00043567270040512085,-0.01745849847793579
1771082268625644500,0.60964453125,-0.033585548400878906,-0.006045863032341003,-0.011939436197280884
1771082268635585300,0.619585205078125,0.011744499206542969,-0.009753331542015076,0.002470731735229492
1771082268645526000,0.629526123046875,0.060965538024902344,-0.01830398291349411,0.005172073841094971
1771082268655466800,0.639466796875,0.09285354614257812,-0.00595024973154068,0.00874340534210205
1771082268665407500,0.649407470703125,0.0794839859008789,-0.008641012012958527,0.008872449398040771
1771082268675348000,0.659347900390625,0.05457019805908203,-0.009446978569030762,0.0006060898303985596
1771082268685288700,0.669288818359375,0.011247634887695312,-0.00798693299293518,-0.0002563893795013428
1771082268695229400,0.6792294921875,-0.03134727478027344,-0.013410486280918121,-0.00837099552154541
1771082268705170200,0.689170166015625,-0.042609214782714844,-0.006564825773239136,-0.0029373764991760254
1771082268715110700,0.699110595703125,-0.04424762725830078,-0.006488874554634094,-0.007826060056686401
1771082268725051400,0.709051513671875,-0.027004241943359375,-0.00385342538356781,-0.001575171947479248
1771082268734992100,0.7189921875,0.004082679748535156,-0.005769766867160797,0.004266947507858276
1771082268744932900,0.728932861328125,0.0370025634765625,-0.012464575469493866,0.005506724119186401
1771082268754873300,0.738873291015625,0.052880287170410156,-0.014644607901573181,0.00488048791885376
1771082268764814000,0.74881396484375,0.047290802001953125,-0.010030873119831085,0.00016695261001586914
1771082268774754800,0.7587548828125,0.02294445037841797,-0.005697689950466156,-0.0038570761680603027
1771082268784695600,0.768695556640625,0.0037097930908203125,-0.008601471781730652,-0.0006493031978607178
1771082268794636300,0.77863623046875,-0.024616241455078125,-0.009003609418869019,-0.004760712385177612
1771082268804576800,0.78857666015625,-0.02420806884765625,-0.006940022110939026,-0.006857424974441528
1771082268814517500,0.798517578125,-0.01673603057861328,-0.006857819855213165,-0.011680781841278076
1771082268824458200,0.808458251953125,0.0023946762084960938,-0.013738073408603668,-0.002705216407775879
1771082268844339500,0.82833935546875,0.025770187377929688,-0.015783123672008514,-0.006146222352981567
1771082268854280200,0.8382802734375,0.030053138732910156,-0.011048607528209686,-0.0037148892879486084
1771082268864221000,0.848220947265625,0.020128250122070312,-0.015912026166915894,-0.001018613576889038
1771082268874161700,0.85816162109375,0.010372161865234375,-0.018543768674135208,0.0016327202320098877
1771082268884102100,0.86810205078125,0.000774383544921875,-0.0069069042801856995,0.0019882023334503174
1771082268894043000,0.87804296875,-0.01336669921875,-0.0118393674492836,-0.007283896207809448
1771082268903983600,0.887983642578125,-0.015493392944335938,-0.0070716217160224915,-0.00493466854095459
1771082268913924400,0.89792431640625,-0.005808830261230469,-0.0046329498291015625,-0.002829045057296753
1771082268923865000,0.907864990234375,0.01078033447265625,-0.014105357229709625,0.0014931857585906982
1771082268933805600,0.9178056640625,0.022378921508789062,-0.011549457907676697,0.0035935044288635254
1771082268943746300,0.927746337890625,0.024361610412597656,-0.011492282152175903,-0.010617583990097046
1771082268953687000,0.93768701171875,0.009833335876464844,-0.01163974404335022,0.003659754991531372
1771082268963627800,0.947627685546875,0.0026044845581054688,-0.018847648054361343,-0.0009315609931945801
1771082268973568300,0.957568359375,0.00020313262939453125,-0.009353496134281158,-0.003092050552368164
1771082268983509000,0.967509033203125,-0.013928413391113281,-0.011789068579673767,-0.005216538906097412
1771082268993449700,0.97744970703125,-0.004273414611816406,-0.011829741299152374,-0.00996541976928711
1771082269003390500,0.987390380859375,-0.0018453598022460938,-0.01176789402961731,0.0019467473030090332
1771082269013331200,0.997331298828125,0.00525665283203125,-0.011808916926383972,-0.007731974124908447
1771082269023271700,1.007271728515625,0.014591217041015625,-0.007038824260234833,-0.0006674528121948242
1771082269033212400,1.01721240234375,0.019059181213378906,-0.01657586544752121,-0.0053903162479400635
1771082269043153200,1.027153076171875,0.014036178588867188,-0.01183106005191803,0.004092097282409668
1771082269053094000,1.037093994140625,0.006739616394042969,-0.009516745805740356,-0.002962559461593628
1771082269063034400,1.047034423828125,0.001918792724609375,-0.009595312178134918,-0.005191057920455933
1771082269072975000,1.05697509765625,-0.005173683166503906,-0.01908976212143898,-0.009838581085205078
1771082269092856600,1.076856689453125,0.013760566711425781,-0.00014985352754592896,-0.0050747692584991455
1771082269112737800,1.09673779296875,0.011197090148925781,-0.004988320171833038,-0.005198687314987183
1771082269122678500,1.106678466796875,0.008658409118652344,-0.009853832423686981,-0.005136698484420776
1771082269132619300,1.116619384765625,0.015580177307128906,-0.00992678850889206,-0.002722233533859253
1771082269142560000,1.12656005859375,0.0035495758056640625,-0.012454695999622345,-0.0002461373805999756
1771082269152500500,1.13650048828125,-0.0012187957763671875,-0.0029652565717697144,0.0021886825561523438
1771082269162441200,1.146441162109375,0.0011577606201171875,-0.019531268626451492,-0.004936128854751587
1771082269172382000,1.1563818359375,-0.0035686492919921875,-0.014632493257522583,-0.0025250017642974854
1771082269182322700,1.16632275390625,-0.0011501312255859375,-0.007562913000583649,-0.00025588274002075195
1771082269192263200,1.17626318359375,0.003582000732421875,-0.00992649793624878,-0.005087494850158691
1771082269202204000,1.186203857421875,0.0011739730834960938,-0.01235254853963852,0.006641507148742676
1771082269212144600,1.19614453125,0.015285491943359375,-0.002966664731502533,-0.005367934703826904
1771082269222085400,1.20608544921875,0.01032257080078125,-0.010220184922218323,-0.0004926323890686035
1771082269232025900,1.21602587890625,0.0077953338623046875,-0.010287053883075714,-0.00040799379348754883
1771082269241966600,1.225966552734375,0.0029592514038085938,-0.003292784094810486,-0.009842991828918457
1771082269251907300,1.2359072265625,0.0029125213623046875,-0.01524660736322403,-0.0002872049808502197
1771082269261848000,1.24584814453125,0.014638900756835938,-0.012872539460659027,-0.0050172507762908936
1771082269271788800,1.255788818359375,0.007336616516113281,-0.015147648751735687,-0.0027066469192504883
1771082269281729300,1.265729248046875,0.004866600036621094,-0.012778110802173615,-0.00043454766273498535
1771082269291670000,1.275669921875,0.000080108642578125,-0.015156656503677368,-0.002807050943374634
1771082269301610800,1.28561083984375,-0.004627227783203125,-0.008078373968601227,-0.0051400065422058105
1771082269311551500,1.295551513671875,0.007224082946777344,-0.015243850648403168,-0.005079776048660278
1771082269321492000,1.305491943359375,0.007106781005859375,-0.012872710824012756,0.002042323350906372
1771082269331432700,1.3154326171875,0.009346961975097656,-0.010640084743499756,0.004336357116699219
1771082269341373400,1.32537353515625,-0.0025777816772460938,-0.010699979960918427,-0.002824246883392334
1771082269351314200,1.335314208984375,-0.00017452239990234375,-0.01075887680053711,0.00415840744972229
1771082269361254700,1.345254638671875,0.009250640869140625,-0.008363507688045502,-0.003100275993347168
1771082269371195400,1.3551953125,0.009099006652832031,-0.008461341261863708,-0.0007197558879852295
1771082269381136100,1.36513623046875,-0.005175590515136719,-0.013266153633594513,-0.0007331967353820801
1771082269391076900,1.375076904296875,0.006683349609375,-0.006120398640632629,-0.007808476686477661
1771082269401017600,1.385017578125,0.0018663406372070312,-0.015672817826271057,-0.005349487066268921
1771082269410958000,1.3949580078125,0.0018377304077148438,-0.008583076298236847,0.004130631685256958
1771082269420898800,1.40489892578125,-0.0005435943603515625,-0.003968663513660431,-0.007735133171081543
1771082269430839600,1.414839599609375,-0.0028867721557617188,-0.015911251306533813,-0.0052773356437683105
1771082269440780300,1.4247802734375,0.001873016357421875,-0.011174701154232025,0.0018481016159057617
1771082269450720800,1.434720703125,0.0042018890380859375,-0.008871398866176605,-0.007727146148681641
1771082269460661500,1.44466162109375,0.011199951171875,-0.016023673117160797,-0.003017038106918335
1771082269470602200,1.454602294921875,0.0016031265258789062,-0.013744309544563293,-0.007801830768585205
1771082269480543000,1.46454296875,0.006283760070800781,-0.016004905104637146,-0.0005324482917785645
1771082269490483500,1.4744833984375,0.0038251876831054688,-0.015975400805473328,0.004261493682861328
1771082269500424200,1.484424072265625,0.0014085769653320312,-0.01820167899131775,0.0018115639686584473
1771082269510365000,1.494364990234375,-0.005671501159667969,-0.013426966965198517,-0.005408823490142822
1771082269520305700,1.5043056640625,-0.005574226379394531,-0.006380409002304077,-0.0029889941215515137
1771082269530246400,1.514246337890625,0.0039386749267578125,-0.008865609765052795,0.001744002103805542
1771082269540187000,1.524186767578125,0.006232261657714844,-0.01837228238582611,-0.003120929002761841
1771082269560068400,1.544068359375,0.0036802291870117188,-0.008835859596729279,-0.005444139242172241
1771082269570009000,1.554009033203125,0.0036220550537109375,-0.011280141770839691,0.0016840696334838867
1771082269589890300,1.573890380859375,-0.0057926177978515625,-0.00884769856929779,-0.005405634641647339
1771082269599831000,1.5838310546875,-0.0033407211303710938,-0.015898503363132477,-0.0006323456764221191
1771082269609771800,1.593771728515625,-0.0032825469970703125,-0.006453581154346466,0.004061371088027954
1771082269619712300,1.603712158203125,0.008546829223632812,-0.01835475116968155,-0.003094613552093506
1771082269629653000,1.613653076171875,-0.00336456298828125,-0.011223196983337402,0.0016401410102844238
1771082269639593700,1.62359375,0.003757476806640625,-0.011273384094238281,-0.0007669031620025635
1771082269649534500,1.633534423828125,-0.001010894775390625,-0.013677045702934265,-0.0007795393466949463
1771082269659475200,1.64347509765625,0.0013599395751953125,-0.013686351478099823,-0.005398660898208618
1771082269669415700,1.653415771484375,-0.0033693313598632812,-0.015950791537761688,-0.0006247162818908691
1771082269679356400,1.6633564453125,0.0037527084350585938,-0.01121358573436737,0.004068881273269653
1771082269689297200,1.673297119140625,-0.012787818908691406,-0.008909650146961212,0.0016213655471801758
1771082269699238000,1.68323779296875,-0.0055084228515625,-0.008998401463031769,-0.0007853507995605469
1771082269709178400,1.693178466796875,0.008711814880371094,-0.011439971625804901,-0.01021486520767212
1771082269719119000,1.703119140625,-0.00084686279296875,-0.01629702001810074,0.00405573844909668
1771082269729059800,1.713059814453125,-0.0008268356323242188,-0.016262643039226532,-0.007910609245300293
1771082269739000600,1.72300048828125,-0.007876396179199219,-0.018583141267299652,0.004069209098815918
1771082269748941000,1.732941162109375,0.004029273986816406,-0.013802066445350647,-0.0007326006889343262
1771082269758881800,1.7428818359375,0.006320953369140625,-0.01135309785604477,0.0015066266059875488
1771082269768822500,1.752822509765625,0.0015096664428710938,-0.011401131749153137,-0.0056067705154418945
1771082269778763300,1.76276318359375,0.0038423538208007812,-0.011448360979557037,0.0015241503715515137
1771082269788704000,1.7727041015625,-0.0032825469970703125,-0.013849109411239624,-0.0008809566497802734
1771082269798644500,1.78264453125,0.010900497436523438,-0.01385553926229477,-0.005600273609161377
1771082269808585200,1.792585205078125,0.00130462646484375,-0.013861872255802155,-0.0031780600547790527
1771082269818526000,1.80252587890625,0.005992889404296875,-0.016117632389068604,0.0015572607517242432
1771082269828466700,1.812466796875,0.0058956146240234375,-0.016086265444755554,-0.005557000637054443
1771082269838407200,1.8224072265625,0.0034456253051757812,-0.01359923928976059,-0.007844090461730957
1771082269848348000,1.832347900390625,0.0033941268920898438,-0.008901245892047882,-0.005486339330673218
1771082269858288600,1.84228857421875,-0.0037240982055664062,-0.013596870005130768,-0.0077745914459228516
1771082269868229400,1.8522294921875,0.008112907409667969,-0.01596181094646454,0.0017467737197875977
1771082269878169900,1.862169921875,-0.0037889480590820312,-0.011224441230297089,0.0015904009342193604
1771082269888110600,1.872110595703125,0.000988006591796875,-0.008920334279537201,-0.007980555295944214
1771082269898051300,1.88205126953125,0.0009765625,-0.011261343955993652,-0.007974833250045776
1771082269917932800,1.901932861328125,-0.003914833068847656,-0.009005382657051086,-0.0032491981983184814
1771082269927873500,1.91187353515625,-0.00384521484375,-0.013696394860744476,-0.00567743182182312
1771082269937814300,1.921814208984375,0.003284454345703125,-0.011249199509620667,-0.0008996129035949707
1771082269957695700,1.94169580078125,0.00337982177734375,-0.01120392233133316,0.0013330280780792236
1771082269967636500,1.951636474609375,-0.0013818740844726562,-0.011254452168941498,-0.00106889009475708
1771082269977577200,1.9615771484375,0.012765884399414062,-0.015910863876342773,0.006088286638259888
1771082269987518000,1.97151806640625,0.0031414031982421875,0.0005971342325210571,-0.008266240358352661
1771082269997458700,1.981458740234375,-0.001613616943359375,-0.013775885105133057,-0.0059014856815338135
1771082270007399400,1.9913994140625,-0.0015840530395507812,-0.011429257690906525,-0.0034742355346679688
1771082270017340200,2.001340087890625,0.0007982254028320312,-0.011374153196811676,-0.0010874569416046143
1771082270027281000,2.011281005859375,-0.006274223327636719,-0.01142185926437378,0.0036138594150543213
1771082270037221600,2.0212216796875,0.005606651306152344,-0.011468760669231415,-0.00834512710571289
1771082270047162400,2.031162353515625,-0.006255149841308594,-0.0044519901275634766,-0.0035228431224823
1771082270057103000,2.04110302734375,-0.0014362335205078125,-0.009323656558990479,-0.0035914182662963867
1771082270067043800,2.0510439453125,0.0080108642578125,-0.011756941676139832,-0.006013959646224976
1771082270076984600,2.060984619140625,0.0055255889892578125,-0.009441092610359192,-0.0035856664180755615
1771082270086925300,2.07092529296875,-0.008692741394042969,-0.014229610562324524,-0.008157998323440552
1771082270096865800,2.08086572265625,0.000873565673828125,-0.014127835631370544,-0.001086413860321045
1771082270106806500,2.090806640625,0.0008640289306640625,-0.011673450469970703,-0.0035498738288879395
1771082270116747300,2.100747314453125,-0.0014982223510742188,-0.014070458710193634,0.00109061598777771
1771082270126688000,2.11068798828125,0.005595207214355469,-0.011718913912773132,-0.01318061351776123
1771082270136628700,2.120628662109375,-0.006266593933105469,-0.01411517709493637,-0.0012148618698120117
1771082270146569500,2.130569580078125,-0.0014505386352539062,-0.01882578432559967,-0.005928605794906616
1771082270156510200,2.14051025390625,0.0009298324584960938,-0.01168639212846756,-0.0011466145515441895
1771082270166451000,2.150450927734375,0.0032749176025390625,-0.011728882789611816,0.0010995268821716309
1771082270176391700,2.1603916015625,-0.0014829635620117188,-0.011770665645599365,-0.001400381326675415
1771082270186332400,2.17033251953125,-0.0038099288940429688,-0.014166057109832764,-0.006111055612564087
1771082270196273000,2.18027294921875,0.00331878662109375,-0.018773935735225677,-0.0013260245323181152
1771082270216154400,2.200154296875,-0.006117820739746094,-0.011678747832775116,-0.0014953911304473877
1771082270226095000,2.21009521484375,0.0034046173095703125,-0.009367071092128754,-0.006204456090927124
1771082270236035600,2.22003564453125,0.0009927749633789062,-0.011802516877651215,-0.001315981149673462
1771082270245976300,2.229976318359375,0.00333404541015625,-0.016551673412322998,-0.003673762083053589
1771082270255917000,2.2399169921875,0.0032815933227539062,-0.014158785343170166,-0.0012836456298828125
1771082270265857800,2.24985791015625,-0.00618743896484375,-0.0165143683552742,-0.0012876689434051514
1771082270275798500,2.259798583984375,0.0033359527587890625,-0.01647639274597168,0.0010626912117004395
1771082270285739000,2.269739013671875,0.005637168884277344,-0.011730454862117767,-0.0060433149337768555
1771082270295679700,2.2796796875,-0.006224632263183594,-0.016480810940265656,-0.0012594163417816162
1771082270305620500,2.289620361328125,0.0033006668090820312,-0.011632919311523438,-0.0013656914234161377
1771082270315561200,2.299561279296875,-0.003814697265625,-0.009322009980678558,-0.0013683438301086426
1771082270325501700,2.309501708984375,0.0009632110595703125,-0.014112509787082672,-0.0038270950317382812
1771082270335442400,2.3194423828125,-0.006112098693847656,-0.01176026463508606,-0.001434415578842163
1771082270345383200,2.329383056640625,0.0010519027709960938,-0.011801525950431824,-0.006042599678039551
1771082270355324000,2.339323974609375,0.0033922195434570312,-0.011842101812362671,0.001095592975616455
1771082270365264400,2.349264404296875,0.012754440307617188,-0.011780120432376862,-0.008365273475646973
1771082270375205000,2.359205078125,0.007836341857910156,-0.014178238809108734,-0.0011875629425048828
1771082270385145900,2.369145751953125,0.007708549499511719,-0.014179207384586334,-0.008256077766418457
1771082270395086600,2.379086669921875,-0.0018339157104492188,-0.018891632556915283,-0.003434479236602783
1771082270405027300,2.38902734375,-0.0041561126708984375,-0.014003574848175049,0.0013059377670288086
1771082270414967800,2.3989677734375,0.00533294677734375,-0.014007456600666046,-0.0034498274326324463
1771082270424908500,2.408908447265625,-0.006522178649902344,-0.006846494972705841,-0.005873918533325195
1771082270434849300,2.418849365234375,-0.00170135498046875,-0.014134436845779419,-0.0034471452236175537
1771082270444790000,2.4287900390625,-0.0016698837280273438,-0.007073238492012024,-0.0034151077270507812
1771082270454730500,2.43873046875,-0.0016393661499023438,-0.007192626595497131,0.0036793053150177
1771082270464671200,2.448671142578125,0.0030984878540039062,-0.018979623913764954,-0.0011160075664520264
1771082270474612000,2.458612060546875,-0.001659393310546875,-0.011837676167488098,-0.003477126359939575
1771082270484552700,2.468552734375,-0.0016260147094726562,-0.014231957495212555,-0.005900740623474121
1771082270494493400,2.478493408203125,-0.0015954971313476562,-0.007271014153957367,-0.0011191964149475098
1771082270504434000,2.488433837890625,0.003143310546875,-0.016909055411815643,-0.0011251270771026611
1771082270514374700,2.498374755859375,0.014864921569824219,-0.012155912816524506,-0.00584036111831665
1771082270524315400,2.5083154296875,0.009911537170410156,-0.01689918339252472,-0.0010598301887512207
1771082270534256000,2.518256103515625,-0.0020246505737304688,-0.01214621216058731,-0.0009656846523284912
1771082270544196600,2.528196533203125,0.0027208328247070312,-0.023955419659614563,-0.003328472375869751
1771082270554137300,2.538137451171875,-0.004382133483886719,-0.009667649865150452,-0.00104600191116333
1771082270564078000,2.548078125,-0.0019512176513671875,-0.016803815960884094,-0.005763381719589233
1771082270574018800,2.558018798828125,0.00043773651123046875,-0.009698137640953064,0.001370161771774292
1771082270583959300,2.567959228515625,0.0004329681396484375,-0.012128077447414398,-0.0010323822498321533
1771082270593900000,2.577900146484375,0.00042724609375,-0.019124232232570648,-0.00810346007347107
1771082270603840800,2.5878408203125,0.007488250732421875,-0.01658659428358078,-0.008095711469650269
1771082270623722200,2.60772216796875,0.007404327392578125,-0.016408726572990417,-0.0008765459060668945
1771082270633662700,2.617662841796875,0.0025739669799804688,-0.00921061635017395,-0.003240823745727539
1771082270643603500,2.627603515625,0.004886627197265625,-0.013901099562644958,-0.000857919454574585
1771082270653544200,2.637544189453125,0.00010204315185546875,-0.009195223450660706,-0.0009717345237731934
1771082270663485000,2.64748486328125,0.00010585784912109375,-0.00927925854921341,-0.0010828375816345215
1771082270673425400,2.65742529296875,0.0024614334106445312,-0.018779084086418152,-0.0010901987552642822
1771082270683366100,2.6673662109375,0.00007152557373046875,-0.018700510263442993,-0.0035544633865356445
1771082270693307000,2.677306884765625,0.007136344909667969,-0.02098042145371437,-0.005874931812286377
1771082270703247600,2.68724755859375,-0.0047512054443359375,-0.013907037675380707,-0.0034481287002563477
1771082270713188000,2.69718798828125,0.009456634521484375,-0.011558234691619873,-0.001061767339706421
1771082270723128800,2.70712890625,-0.007178306579589844,-0.013855300843715668,0.0036391019821166992
1771082270733069600,2.717069580078125,0.00000667572021484375,-0.013858787715435028,-0.0011563599109649658
1771082270743010300,2.72701025390625,0.0023670196533203125,-0.009156495332717896,-0.0059729814529418945
1771082270752951000,2.736950927734375,0.009392738342285156,-0.013949774205684662,-0.005898833274841309
1771082270762891500,2.7468916015625,-0.0025320053100585938,-0.004537373781204224,-0.005825936794281006
1771082270772832300,2.756832275390625,-0.0024871826171875,-0.016470544040203094,-0.008108556270599365
1771082270782773000,2.76677294921875,0.004619598388671875,-0.00937042385339737,-0.003290235996246338
1771082270792713700,2.776713623046875,0.0045452117919921875,-0.01180296391248703,-0.0032616257667541504
1771082270802654200,2.786654296875,-0.007298469543457031,-0.011843539774417877,-0.0008783638477325439
1771082270812595000,2.796594970703125,0.006954193115234375,-0.009529143571853638,-0.003345310688018799
1771082270822535700,2.80653564453125,-0.00022220611572265625,-0.019024811685085297,-0.003314971923828125
1771082270832476400,2.816476318359375,0.006844520568847656,-0.016590729355812073,-0.0031832456588745117
1771082270842417000,2.8264169921875,-0.0026845932006835938,-0.021158214658498764,-0.007864177227020264
1771082270852357600,2.836357666015625,0.0020704269409179688,-0.0115237757563591,-0.007758527994155884
1771082270872239000,2.856239013671875,0.0018892288208007812,-0.013964951038360596,0.0041789710521698
1771082270882179800,2.866179931640625,-0.0028476715087890625,-0.011612318456172943,-0.0006254911422729492
1771082270902061000,2.88606103515625,-0.000476837158203125,-0.011520415544509888,0.004155278205871582
1771082270921942500,2.905942626953125,-0.0027666091918945312,-0.014066435396671295,0.0040618181228637695
1771082270931883000,2.915883056640625,-0.0027179718017578125,-0.01877787709236145,-0.0007398724555969238
1771082270941823700,2.92582373046875,-0.0026674270629882812,-0.018702201545238495,0.0014994442462921143
1771082270951764500,2.935764404296875,-0.00026607513427734375,-0.01627061516046524,-0.003260374069213867
1771082270961705200,2.945705322265625,-0.0002574920654296875,-0.016338631510734558,0.006185740232467651
1771082270971645700,2.955645751953125,-0.0049591064453125,-0.01394931972026825,-0.0010056495666503906
1771082270981586400,2.96558642578125,-0.004870414733886719,-0.011599823832511902,-0.0011161863803863525
1771082270991527200,2.975527099609375,0.009343147277832031,-0.011748552322387695,-0.00828695297241211
1771082271001468000,2.985468017578125,0.004481315612792969,-0.011790037155151367,0.0035972297191619873
1771082271011408600,2.99540869140625,-0.00029659271240234375,-0.014185138046741486,-0.00365293025970459
1771082271021349000,3.00534912109375,-0.00028896331787109375,-0.018894605338573456,-0.0012631714344024658
1771082271031289900,3.015289794921875,-0.000278472900390625,-0.0070454999804496765,0.0033391714096069336
1771082271041230600,3.025230712890625,0.004437446594238281,-0.01422826200723648,0.0009038150310516357
1771082271051171300,3.03517138671875,0.00672149658203125,-0.011874116957187653,-0.0038452446460723877
1771082271071052500,3.055052490234375,0.0018787384033203125,-0.011934742331504822,0.0008398592472076416
1771082271080993300,3.0649931640625,-0.0005044937133789062,-0.009618833661079407,-0.010971039533615112
1771082271090934000,3.07493408203125,0.004215240478515625,-0.014404423534870148,-0.0013964176177978516
1771082271100874500,3.08487451171875,0.011211395263671875,-0.009693048894405365,-0.006107151508331299
1771082271110815200,3.094815185546875,0.006316184997558594,-0.014477409422397614,0.0058425962924957275
1771082271120756000,3.104755859375,-0.003204345703125,-0.009662926197052002,-0.00605165958404541
1771082271130696700,3.11469677734375,-0.0007944107055664062,-0.01209348440170288,-0.003621906042098999
1771082271140637400,3.124637451171875,0.008638381958007812,-0.014483541250228882,-0.0012326538562774658
1771082271150578000,3.134577880859375,-0.0009212493896484375,-0.019086144864559174,0.0011167824268341064
1771082271160518700,3.1445185546875,-0.007965087890625,-0.011942453682422638,-0.0036358237266540527
1771082271170459400,3.15445947265625,0.01335906982421875,-0.002566412091255188,0.0011087656021118164
1771082271180400000,3.164400146484375,-0.00804901123046875,-0.019243910908699036,-0.0036428868770599365
1771082271190340600,3.174340576171875,-0.003204345703125,-0.019058585166931152,-0.005961865186691284
1771082271200281300,3.18428125,0.006268501281738281,-0.011813454329967499,-0.005887895822525024
1771082271210222000,3.19422216796875,0.001461029052734375,-0.01185387372970581,-0.001208484172821045
1771082271220162800,3.204162841796875,0.0014390945434570312,-0.014247924089431763,-0.008276641368865967
1771082271230103300,3.214103271484375,0.00612640380859375,-0.016602061688899994,-0.0011012256145477295
1771082271240044000,3.2240439453125,0.006030082702636719,-0.0142112597823143,0.0011449456214904785
1771082271249984800,3.23398486328125,0.00357818603515625,-0.0166679248213768,-0.0012538433074951172
1771082271259925500,3.243925537109375,0.0058765411376953125,-0.016627445816993713,-0.005966931581497192
1771082271269866200,3.2538662109375,0.0057811737060546875,-0.01187904179096222,-0.008247196674346924
1771082271279806700,3.263806640625,-0.0013751983642578125,-0.016731761395931244,-0.012842923402786255
1771082271299688200,3.283688232421875,-0.0083465576171875,-0.016829751431941986,-0.008034855127334595
1771082271319569400,3.3035693359375,-0.008143424987792969,-0.014471113681793213,-0.005503803491592407
1771082271329510100,3.31351025390625,-0.000942230224609375,-0.009758628904819489,-0.0030831992626190186
1771082271349391400,3.333391357421875,0.0039196014404296875,-0.01683015376329422,-0.007857978343963623
1771082271369272600,3.3532724609375,0.001560211181640625,-0.009863130748271942,0.0016124248504638672
1771082271379213000,3.363213134765625,0.001537322998046875,-0.009936049580574036,-0.000794142484664917
1771082271389153800,3.37315380859375,-0.0008401870727539062,-0.010007761418819427,-0.005514919757843018
1771082271409035000,3.393034912109375,0.0015869140625,-0.010029874742031097,-0.0030287206172943115
1771082271418975700,3.402975830078125,-0.0007925033569335938,-0.017061002552509308,-0.005357950925827026
1771082271428916200,3.412916259765625,-0.0007762908935546875,-0.014656782150268555,-0.0005863010883331299
1771082271438857000,3.42285693359375,0.00159454345703125,-0.014649800956249237,0.0017523467540740967
1771082271448797400,3.43279736328125,-0.0007839202880859375,-0.016997233033180237,0.0016977190971374512
1771082271458738200,3.44273828125,0.0015869140625,-0.009888343513011932,-0.003064572811126709
1771082271468678700,3.4526787109375,-0.0007915496826171875,-0.012312263250350952,-0.0006854236125946045
1771082271488560000,3.47256005859375,0.0017099380493164062,-0.01469384878873825,-0.002847015857696533
1771082271508441300,3.49244140625,0.008839607238769531,-0.007694348692893982,-0.0004490017890930176
1771082271518381800,3.5023818359375,0.0016298294067382812,-0.0054491013288497925,-0.00742793083190918
1771082271538263000,3.522262939453125,-0.0054836273193359375,-0.012545369565486908,0.0069322288036346436
1771082271558144500,3.54214453125,-0.0006666183471679688,-0.010168537497520447,-0.0026092529296875
1771082271578025700,3.562025634765625,-0.0052623748779296875,-0.012721128761768341,-0.0027746856212615967
1771082271587966500,3.571966552734375,-0.005168914794921875,-0.010389238595962524,-0.005210846662521362
1771082271607847700,3.59184765625,-0.0002422332763671875,-0.010516434907913208,-0.0029526054859161377
1771082271617788400,3.601788330078125,-0.007294654846191406,-0.012935616075992584,-0.0030298829078674316
1771082271637670000,3.621669921875,0.004486083984375,-0.017547808587551117,0.0042397379875183105
1771082271657551000,3.641551025390625,0.004460334777832031,-0.01753837615251541,-0.00301206111907959
1771082271677432600,3.6614326171875,-0.0028238296508789062,-0.015093609690666199,0.0017072856426239014
1771082271697313800,3.681313720703125,0.001987457275390625,-0.015204742550849915,0.0015377998352050781
1771082271717195300,3.7011953125,-0.0028219223022460938,-0.012755811214447021,-0.0008392632007598877
1771082271727136000,3.711135986328125,-0.000415802001953125,-0.015134818851947784,-0.003306865692138672
1771082271737076500,3.721076416015625,0.004302024841308594,-0.010309368371963501,-0.0032771527767181396
1771082271756958000,3.7409580078125,-0.0052947998046875,-0.01269163191318512,0.0015503168106079102
1771082271776839400,3.76083935546875,-0.000484466552734375,-0.01020977646112442,0.001566380262374878
1771082271786780000,3.77077978515625,-0.00047397613525390625,-0.017339810729026794,-0.0008394420146942139
1771082271806661400,3.790661376953125,0.004179954528808594,-0.0077808573842048645,-0.0033165812492370605
1771082271816602000,3.80060205078125,-0.0005950927734375,-0.014954246580600739,-0.005640178918838501
1771082271826542600,3.81054248046875,-0.005290985107421875,-0.005525112152099609,-0.0032172799110412598
1771082271836483300,3.8204833984375,0.0018634796142578125,-0.012733221054077148,0.0038738250732421875
1771082271856364800,3.84036474609375,0.0018453598022460938,-0.010366015136241913,-0.0032890141010284424
1771082271876246000,3.86024609375,-0.0005254745483398438,-0.01033705472946167,-0.005584985017776489
1771082271896127500,3.88012744140625,0.0018930435180664062,-0.015035174787044525,-0.0008031129837036133
1771082271916008700,3.9000087890625,-0.005227088928222656,-0.008062466979026794,-0.0008277595043182373
1771082271925949400,3.909949462890625,-0.000431060791015625,-0.008168257772922516,-0.0007366538047790527
1771082271935890200,3.91989013671875,-0.007483482360839844,-0.015332303941249847,-0.0007497966289520264
1771082271945831000,3.929830810546875,0.009123802185058594,-0.015314050018787384,0.0015915930271148682
1771082271955771400,3.939771484375,0.001911163330078125,-0.019905678927898407,-0.005522400140762329
1771082271965712100,3.949712158203125,-0.0004730224609375,-0.012748315930366516,-0.0031014680862426758
1771082271975652900,3.95965283203125,0.008955001831054688,-0.005710244178771973,-0.005429476499557495
1771082271985593600,3.969593505859375,-0.005318641662597656,-0.017728641629219055,-0.0052616894245147705
1771082271995534000,3.9795341796875,-0.002872467041015625,-0.01531616598367691,-0.007553696632385254
1771082272005474800,3.989474853515625,0.0018863677978515625,-0.010589592158794403,-0.002744615077972412
1771082272025356300,4.009356201171875,-0.009824752807617188,-0.015238404273986816,-0.000310748815536499
1771082272035297000,4.019297119140625,-0.0073032379150390625,-0.012870289385318756,-0.0026844441890716553
1771082272055178200,4.03917822265625,0.004679679870605469,-0.015412069857120514,0.009063541889190674
1771082272065119000,4.049118896484375,-0.0001068115234375,-0.013038180768489838,-0.00042819976806640625
1771082272075059700,4.059059814453125,-0.00716400146484375,-0.015514358878135681,0.00426211953163147
1771082272094941000,4.07894091796875,-0.0022497177124023438,-0.013235539197921753,-0.003053009510040283
1771082272104881700,4.088881591796875,-0.002208709716796875,-0.011002697050571442,-0.010089576244354248
1771082272114822400,4.098822509765625,0.00254058837890625,-0.018221385776996613,0.004178941249847412
1771082272124763000,4.108762939453125,0.00250244140625,-0.015902571380138397,0.004083871841430664
1771082272144644400,4.128644287109375,0.000030517578125,-0.015925981104373932,0.0016226470470428467
1771082272154585000,4.138585205078125,-0.007027626037597656,-0.015795938670635223,-0.0008859932422637939
1771082272164525800,4.14852587890625,-0.004553794860839844,-0.018124260008335114,-0.005605220794677734
1771082272174466300,4.15846630859375,-0.0044727325439453125,-0.013350866734981537,-0.0032848119735717773
1771082272184407000,4.168406982421875,0.0026683807373046875,-0.01807422935962677,-0.012672662734985352
1771082272204288500,4.18828857421875,0.0002346038818359375,-0.01345837116241455,-0.0007898211479187012
1771082272214229000,4.19822900390625,-0.009183883666992188,-0.013471342623233795,-0.0031563639640808105
1771082272224169700,4.208169677734375,0.00038814544677734375,-0.013379335403442383,-0.003130018711090088
1771082272234110500,4.2181103515625,0.00038433074951171875,-0.013393618166446686,-0.007811844348907471
1771082272244051200,4.22805126953125,-0.0019712448120117188,-0.013305775821208954,0.0016082227230072021
1771082272253991700,4.23799169921875,0.005125999450683594,-0.01086510717868805,0.0039103031158447266
1771082272263932400,4.247932373046875,0.0003337860107421875,-0.020236603915691376,-0.005597472190856934
1771082272273873200,4.257873046875,-0.004378318786621094,-0.01061752438545227,-0.003175288438796997
1771082272283814000,4.26781396484375,0.0004062652587890625,-0.010674968361854553,-0.005502879619598389
1771082272293754600,4.277754638671875,-0.0019512176513671875,-0.020151518285274506,-0.005436569452285767
1771082272303695000,4.287695068359375,0.0027923583984375,-0.015344344079494476,-0.005371361970901489
1771082272313635800,4.2976357421875,0.005105018615722656,-0.012971572577953339,-0.0030548572540283203
1771082272333517300,4.317517333984375,-0.009024620056152344,-0.015331275761127472,-0.0008295178413391113
1771082272353398500,4.3373984375,0.000499725341796875,-0.015216603875160217,-0.003206789493560791
1771082272363339300,4.34733935546875,-0.008923530578613281,-0.019806981086730957,-0.0031787455081939697
1771082272373280000,4.357280029296875,0.007708549499511719,-0.015005543828010559,0.0015574097633361816
1771082272383220500,4.367220458984375,0.009936332702636719,-0.01263841986656189,-0.0032025575637817383
1771082272403102000,4.38710205078125,0.005103111267089844,-0.01504843682050705,-0.0010098814964294434
1771082272422983400,4.4069833984375,-0.004401206970214844,-0.012504465878009796,-0.005813956260681152
1771082272432924000,4.416923828125,0.00508880615234375,-0.014785751700401306,-0.0009319782257080078
1771082272442864600,4.42686474609375,0.0026531219482421875,-0.014776602387428284,-0.005650430917739868
1771082272462746000,4.44674609375,0.002529144287109375,-0.009974554181098938,0.0016123056411743164
1771082272472686600,4.4566865234375,0.004843711853027344,-0.00769130140542984,-0.0031485557556152344
1771082272482627300,4.46662744140625,0.0024127960205078125,-0.010256581008434296,0.003941386938095093
1771082272492568000,4.476568115234375,0.00237274169921875,-0.012677222490310669,0.0015978813171386719
1771082272502508800,4.4865087890625,0.0046901702880859375,-0.01034892350435257,-0.0008084475994110107
1771082272512449300,4.49644921875,0.0022602081298828125,-0.01502043753862381,-0.0008203685283660889
1771082272522390000,4.50639013671875,0.0022249221801757812,-0.017361685633659363,0.0015221834182739258
1771082272532330800,4.516330810546875,-0.00487518310546875,-0.010246723890304565,-0.0054895877838134766
1771082272542271500,4.526271484375,0.0022726058959960938,-0.01973329484462738,-0.005422681570053101
1771082272552212200,4.536212158203125,-0.00011730194091796875,-0.01728738844394684,-0.007712006568908691
1771082272562152700,4.546152587890625,0.0022449493408203125,-0.017233677208423615,-0.005357295274734497
1771082272572093400,4.556093505859375,0.0069217681884765625,-0.00541224330663681,0.0016675889492034912
1771082272582034200,4.5660341796875,-0.0002536773681640625,-0.01497652381658554,-0.003094196319580078
1771082272591975000,4.575974853515625,-0.0026006698608398438,-0.014964200556278229,-0.000713735818862915
1771082272601915400,4.585915283203125,-0.0025548934936523438,-0.01730351150035858,-0.007790952920913696
1771082272611856100,4.595856201171875,-0.0048656463623046875,-0.012441910803318024,-0.0006236135959625244
1771082272621796900,4.605796875,0.0022840499877929688,-0.014826126396656036,-0.0007405281066894531
1771082272631737600,4.615737548828125,-0.0024557113647460938,-0.010209597647190094,-0.0008554756641387939
1771082272641678300,4.62567822265625,-0.00005817413330078125,-0.010276727378368378,0.003841966390609741
1771082272651618800,4.635618896484375,-0.00005435943603515625,-0.01269703358411789,-0.0033103525638580322
1771082272661559600,4.6455595703125,0.009366989135742188,-0.010365530848503113,-0.0009271204471588135
1771082272671500300,4.655500244140625,0.004505157470703125,-0.015138663351535797,-0.005645662546157837
1771082272681441000,4.66544091796875,-0.0049839019775390625,-0.010415047407150269,-0.000868380069732666
1771082272701322200,4.685322265625,0.00926971435546875,-0.01513228565454483,-0.007852762937545776
1771082272711263000,4.695262939453125,0.006764411926269531,-0.017471663653850555,-0.0030387043952941895
1771082272721203700,4.70520361328125,-0.005114555358886719,-0.01741776615381241,0.0015932321548461914
1771082272731144200,4.715144287109375,0.004389762878417969,-0.017262868583202362,-0.005521625280380249
1771082272741085000,4.7250849609375,0.006670951843261719,-0.019566737115383148,-0.0006445050239562988
1771082272751025700,4.735025634765625,-0.0028543472290039062,-0.014769330620765686,-0.0030134618282318115
1771082272760966400,4.74496630859375,0.004258155822753906,-0.017117641866207123,-0.0029878318309783936
1771082272770907100,4.7549072265625,0.008901596069335938,-0.01706964522600174,-0.0007110536098480225
1771082272780847600,4.76484765625,-0.0006608963012695312,-0.012313850224018097,-0.0007246136665344238
1771082272790788400,4.774788330078125,0.006419181823730469,-0.01470021903514862,0.0015144646167755127
1771082272800729000,4.78472900390625,-0.0030994415283203125,-0.009983927011489868,-0.003346681594848633
1771082272810669800,4.794669921875,-0.0030450820922851562,-0.014763429760932922,-0.0009620189666748047
1771082272820610300,4.8046103515625,0.0017175674438476562,-0.0125022754073143,-0.0033257007598876953
1771082272830551000,4.814551025390625,0.004048347473144531,-0.017239809036254883,-0.005751878023147583
1771082272840491800,4.82449169921875,-0.0007257461547851562,-0.01708788424730301,-0.0009728372097015381
1771082272850432500,4.8344326171875,0.006351470947265625,-0.009872719645500183,-0.0033371448516845703
1771082272870313700,4.854313720703125,0.0015573501586914062,-0.016940481960773468,0.0012902319431304932
1771082272880254500,4.86425439453125,-0.0055294036865234375,-0.021604042500257492,-0.008173853158950806
1771082272890195200,4.8741953125,0.001628875732421875,-0.007358372211456299,0.003709256649017334
1771082272900136000,4.884135986328125,-0.00310516357421875,-0.01207973062992096,-0.01050373911857605
1771082272910076400,4.894076416015625,-0.0030469894409179688,-0.014571912586688995,-0.0033930838108062744
1771082272920017200,4.90401708984375,-0.0029935836791992188,-0.016920648515224457,-0.003361940383911133
1771082272929958000,4.9139580078125,-0.0052967071533203125,-0.01441974937915802,-0.0009770095348358154
1771082272939898600,4.923898681640625,0.0065631866455078125,-0.016768142580986023,-0.005593657493591309
1771082272949839000,4.933839111328125,-0.005312919616699219,-0.016725972294807434,-0.0032734274864196777
1771082272959779800,4.94377978515625,-0.0028667449951171875,-0.011975906789302826,-0.005598574876785278
1771082272969720600,4.953720458984375,0.006604194641113281,-0.012013614177703857,-0.005632579326629639
1771082272989601800,4.973601806640625,-0.0028667449951171875,-0.009673066437244415,-0.0008500516414642334
1771082272999542500,4.98354248046875,-0.0028142929077148438,-0.012001551687717438,-0.0033174753189086914
1771082273009483300,4.993483154296875,0.004298210144042969,-0.009684525430202484,-0.0056418776512146
1771082273019424000,5.003424072265625,-0.009897232055664062,-0.0120156928896904,-0.003218144178390503
1771082273029364700,5.01336474609375,-0.00031185150146484375,-0.009701304137706757,-0.0031890869140625
1771082273039305200,5.02330517578125,0.0020513534545898438,-0.012131206691265106,-0.0008070468902587891
1771082273049246000,5.033245849609375,-0.0026884078979492188,-0.005103416740894318,0.0015352964401245117
1771082273059186700,5.043186767578125,-0.0073490142822265625,-0.01467285305261612,-0.003224283456802368
1771082273069127400,5.05312744140625,-0.009575843811035156,-0.01701989769935608,-0.0056521594524383545
1771082273079068000,5.06306787109375,0.004712104797363281,-0.012264922261238098,-0.0008747577667236328
1771082273089008600,5.073008544921875,-0.004780769348144531,-0.01465209573507309,-0.005594164133071899
1771082273098949400,5.082949462890625,0.0023670196533203125,-0.012188993394374847,-0.005628228187561035
1771082273108890000,5.09289013671875,-0.0023784637451171875,-0.012223131954669952,-0.005559831857681274
1771082273118830600,5.10283056640625,0.007080078125,-0.009800508618354797,-0.005492568016052246
1771082273128771300,5.112771240234375,-0.009515762329101562,-0.007520154118537903,0.003990739583969116
1771082273138712000,5.122712158203125,-0.009356498718261719,-0.01950547844171524,-0.0007078647613525391
1771082273148652800,5.13265283203125,-0.0021333694458007812,-0.017165258526802063,-0.0030757784843444824
1771082273158593500,5.142593505859375,-0.006800651550292969,-0.010050676763057709,0.003910243511199951
1771082273168534000,5.152533935546875,0.00037860870361328125,-0.014930933713912964,0.0014653801918029785
1771082273188415500,5.17241552734375,-0.001979827880859375,-0.010277867317199707,-0.0033245086669921875
1771082273208296700,5.192296630859375,0.00048351287841796875,-0.015195794403553009,0.001482844352722168
1771082273218237400,5.202237548828125,-0.006581306457519531,-0.01047120988368988,0.0013308227062225342
1771082273238119000,5.222118896484375,-0.001766204833984375,-0.015241622924804688,-0.012873530387878418
1771082273248059400,5.232059326171875,0.00768280029296875,-0.015224866569042206,0.0014413893222808838
1771082273258000100,5.242000244140625,0.00284576416015625,-0.01049979031085968,-0.0032147467136383057
1771082273267940900,5.25194091796875,0.005157470703125,-0.015270672738552094,-0.0009341835975646973
1771082273277881600,5.261881591796875,-0.0019922256469726562,-0.017505846917629242,0.0015121698379516602
1771082273287822300,5.271822265625,-0.001953125,-0.015097066760063171,-0.00334891676902771
1771082273297762800,5.2817626953125,-0.004269599914550781,-0.017437025904655457,0.003642469644546509
1771082273307703600,5.29170361328125,0.0005121231079101562,-0.017281800508499146,-0.005860835313796997
1771082273317644000,5.30164404296875,0.009921073913574219,-0.014876745641231537,-0.003332376480102539
1771082273327584800,5.311584716796875,0.0026960372924804688,-0.014866076409816742,0.001406341791152954
1771082273337525500,5.321525390625,0.0002994537353515625,-0.014855585992336273,-0.0033510923385620117
1771082273347466000,5.331466064453125,0.0026521682739257812,-0.007782377302646637,0.001387953758239746
1771082273357406700,5.34140673828125,0.0049648284912109375,-0.014952845871448517,0.0013394057750701904
1771082273367347200,5.35134716796875,0.0025310516357421875,-0.019649505615234375,-0.0034169256687164307
1771082273377288000,5.361287841796875,0.0072002410888671875,-0.012496396899223328,-0.0010311007499694824
1771082273387228400,5.371228515625,0.007082939147949219,-0.010171115398406982,-0.003393620252609253
1771082273397169200,5.381169189453125,-0.00009822845458984375,-0.014947481453418732,-0.0009062886238098145
1771082273407110000,5.39110986328125,-0.0071563720703125,-0.012578465044498444,-0.0009174048900604248
1771082273417050400,5.40105029296875,0.0047359466552734375,-0.017212815582752228,-0.003281831741333008
1771082273426991000,5.4109912109375,-0.0024023056030273438,-0.010100327432155609,0.0014560520648956299
1771082273436931600,5.420931640625,0.004702568054199219,-0.012523569166660309,-0.005656510591506958
1771082273446872300,5.430872314453125,-0.0000820159912109375,-0.012552127242088318,-0.00794193148612976
1771082273456812800,5.440812744140625,-0.004786491394042969,-0.012580208480358124,0.0015822052955627441
1771082273466753500,5.45075341796875,0.007069587707519531,-0.012505941092967987,0.0037828385829925537
1771082273476694300,5.4606943359375,0.004599571228027344,-0.012534797191619873,-0.0033684968948364258
1771082273486634800,5.470634765625,0.0021715164184570312,-0.010206006467342377,-0.000984281301498413
1771082273496575500,5.480575439453125,-0.0025701522827148438,-0.017336100339889526,-0.000993281602859497
1771082273506516000,5.490515869140625,-0.00017070770263671875,-0.019638746976852417,-0.003356426954269409
1771082273516456700,5.500456787109375,0.00218963623046875,-0.012485824525356293,-0.0009715855121612549
1771082273526397200,5.510397216796875,-0.0049076080322265625,-0.012512139976024628,-0.005690217018127441
1771082273536338000,5.520337890625,0.006946563720703125,-0.01018659770488739,-0.005518883466720581
1771082273546278400,5.5302783203125,-0.004935264587402344,-0.019671298563480377,-0.0008456110954284668
1771082273556219100,5.54021923828125,0.00457000732421875,-0.007809244096279144,-0.0009588301181793213
1771082273566160000,5.550159912109375,0.011562347412109375,-0.014979280531406403,-0.00813305377960205
1771082273576100400,5.560100341796875,-0.000400543212890625,-0.012513592839241028,-0.003313511610031128
1771082273586041000,5.570041015625,-0.0027446746826171875,-0.012542329728603363,-0.0009293854236602783
1771082273595981600,5.579981689453125,0.0020093917846679688,-0.010216288268566132,-0.005546003580093384
1771082273605922300,5.58992236328125,-0.0027294158935546875,-0.014991901814937592,-0.0007703900337219238
1771082273615863000,5.599863037109375,0.006735801696777344,-0.01262502372264862,-0.003137260675430298
1771082273625803500,5.609803466796875,-0.005146980285644531,-0.014901429414749146,-0.005465507507324219
1771082273635744300,5.619744140625,-0.0027036666870117188,-0.012536056339740753,-0.005399823188781738
1771082273645685000,5.62968505859375,0.00205230712890625,-0.021879706531763077,-0.002980947494506836
1771082273655625700,5.639625732421875,-0.0003337860107421875,-0.014689438045024872,-0.0006023645401000977
1771082273665566200,5.649566162109375,0.0020294189453125,-0.01703907549381256,-0.000616908073425293
1771082273675507000,5.6595068359375,0.004352569580078125,-0.012283779680728912,-0.005340635776519775
1771082273685447700,5.66944775390625,-0.0027799606323242188,-0.012319214642047882,-0.0005676150321960449
1771082273705329200,5.6893291015625,-0.00021076202392578125,-0.01465674489736557,-0.005190104246139526
1771082273715269600,5.69926953125,0.009215354919433594,-0.01935834437608719,-0.0028766095638275146
1771082273735151000,5.719151123046875,0.0020875930786132812,-0.01199968159198761,-0.0029504597187042236
1771082273755032300,5.7390322265625,-0.009748458862304688,-0.009680114686489105,-0.005179166793823242
1771082273774913800,5.758913818359375,0.0046291351318359375,-0.014319740235805511,-0.00288274884223938
1771082273794795300,5.778795166015625,-0.004779815673828125,-0.009584993124008179,-0.0030340254306793213
1771082273814676500,5.798676513671875,0.0024890899658203125,-0.014368884265422821,-0.0007692575454711914
1771082273824617200,5.8086171875,0.004807472229003906,-0.009658083319664001,0.003824859857559204
1771082273834558000,5.818557861328125,0.002376556396484375,-0.021505896002054214,0.0013813972473144531
1771082273854439200,5.838439208984375,-0.0000896453857421875,-0.016713984310626984,-0.0009119808673858643
1771082273864380000,5.8483798828125,-0.0024404525756835938,-0.007153622806072235,0.003786414861679077
1771082273874320600,5.858320556640625,-0.0023965835571289062,-0.0049173831939697266,0.0013436079025268555
1771082273894201900,5.878201904296875,0.0023202896118164062,-0.01681658625602722,0.0013055801391601562
1771082273904142600,5.888142578125,-0.004778861999511719,-0.005002103745937347,-0.001095890998840332
1771082273914083300,5.898083251953125,0.009428977966308594,-0.012218914926052094,-0.005811631679534912
1771082273924024000,5.908024169921875,0.0022125244140625,-0.012252561748027802,-0.0010315775871276855
1771082273943905300,5.9279052734375,0.0022230148315429688,-0.009788081049919128,-0.008070707321166992
1771082273953846000,5.937845947265625,0.006899833679199219,-0.012216538190841675,-0.0033549070358276367
1771082273963786800,5.947786865234375,0.0020809173583984375,-0.012148328125476837,-0.003426283597946167
1771082273973727200,5.957727294921875,0.006756782531738281,-0.009724080562591553,-0.001041114330291748
1771082273983668000,5.96766796875,-0.0027704238891601562,-0.016862206161022186,0.0036594271659851074
1771082273993608700,5.977608642578125,-0.0027256011962890625,-0.00965079665184021,-0.0010344982147216797
1771082274013490000,5.997489990234375,-0.0027484893798828125,-0.011975161731243134,-0.0010907649993896484
1771082274023430700,6.0074306640625,-0.00740814208984375,-0.016721472144126892,0.0036106109619140625
1771082274033371400,6.017371337890625,-0.0049285888671875,-0.00951528549194336,-0.0011835694313049316
1771082274043312000,6.02731201171875,0.006928443908691406,-0.016656890511512756,0.0011650323867797852
1771082274053252900,6.0372529296875,-0.004955291748046875,-0.016718469560146332,-0.008296966552734375
1771082274063193300,6.047193359375,0.006903648376464844,-0.014220930635929108,-0.0012230873107910156
1771082274073134000,6.057134033203125,0.0020856857299804688,-0.01186690479516983,0.0010242760181427002
1771082274083074800,6.06707470703125,-0.005009651184082031,-0.016615018248558044,-0.0013724863529205322
1771082274093015600,6.077015625,-0.000217437744140625,-0.011866793036460876,-0.001273125410079956
1771082274102956000,6.0869560546875,-0.00021076202392578125,-0.004843413829803467,-0.0036316215991973877
1771082274112896800,6.096896728515625,-0.0002079010009765625,-0.016669586300849915,-0.005848914384841919
1771082274122837500,6.10683740234375,-0.0049114227294921875,-0.018881455063819885,-0.003422558307647705
1771082274132778200,6.1167783203125,0.004590034484863281,-0.01174115389585495,-0.001036614179611206
1771082274142718700,6.12671875,-0.0001926422119140625,-0.014137066900730133,-0.00575333833694458
1771082274152659500,6.136659423828125,0.011586189270019531,-0.018949225544929504,-0.003328561782836914
1771082274162600200,6.14660009765625,0.00433349609375,-0.009555406868457794,-0.005652785301208496
1771082274172541000,6.156541015625,-0.0004444122314453125,-0.014342054724693298,-0.0008753836154937744
1771082274182481700,6.166481689453125,0.006628990173339844,-0.011986017227172852,-0.0032404959201812744
1771082274192422100,6.176422119140625,0.0065212249755859375,-0.016732148826122284,-0.0008575916290283203
1771082274202363000,6.18636279296875,0.006415367126464844,-0.011981979012489319,-0.0032230019569396973
1771082274212303600,6.1963037109375,-0.0007524490356445312,-0.009665295481681824,0.0015138983726501465
1771082274222244400,6.206244384765625,0.003970146179199219,-0.009639613330364227,0.0038175582885742188
1771082274232184800,6.216184814453125,-0.0008020401000976562,-0.007361963391304016,-0.0033343732357025146
1771082274242125600,6.22612548828125,0.010986328125,-0.009830869734287262,-0.005658507347106934
1771082274252066300,6.23606640625,-0.005672454833984375,-0.012159600853919983,-0.003336399793624878
1771082274262007000,6.246007080078125,0.0061969757080078125,-0.012194253504276276,0.0014023780822753906
1771082274271947500,6.255947509765625,-0.0033206939697265625,-0.019291222095489502,0.008416473865509033
1771082274281888300,6.26588818359375,-0.0009069442749023438,-0.009687915444374084,-0.0012682974338531494
1771082274291829000,6.2758291015625,-0.00324249267578125,-0.0144723579287529,-0.0012725591659545898
1771082274301769700,6.285769775390625,-0.00083160400390625,-0.012114159762859344,-0.0012767612934112549
1771082274311710500,6.29571044921875,0.0038967132568359375,-0.01921246200799942,-0.0013827979564666748
1771082274321651000,6.30565087890625,0.0014810562133789062,-0.012066669762134552,-0.01080232858657837
1771082274331591700,6.315591796875,0.008519172668457031,-0.012102864682674408,-0.0011286139488220215
1771082274341532400,6.325532470703125,-0.003391265869140625,-0.01213846355676651,-0.0034894943237304688
1771082274351473200,6.33547314453125,0.0060882568359375,-0.012173466384410858,0.0011499524116516113
1771082274361413600,6.34541357421875,0.003635406494140625,-0.0170183926820755,-0.01302039623260498
1771082274371354400,6.355354248046875,-0.0034847259521484375,-0.012263469398021698,-0.0057659149169921875
1771082274381295000,6.365295166015625,-0.008131980895996094,-0.019359290599822998,0.0013676583766937256
1771082274391235800,6.37523583984375,0.00142669677734375,-0.012211047112941742,-0.008199632167816162
1771082274401176300,6.38517626953125,0.0037593841552734375,-0.009890541434288025,-0.0033797919750213623
1771082274411117000,6.395116943359375,-0.0010089874267578125,-0.01938307285308838,0.003714829683303833
1771082274421057800,6.405057861328125,-0.0033435821533203125,-0.019300207495689392,0.001274019479751587
1771082274430998500,6.41499853515625,0.0061321258544921875,-0.01450725644826889,0.005935966968536377
1771082274440939300,6.424939208984375,0.0036802291870117188,-0.014403760433197021,0.003356248140335083
1771082274450879700,6.434879638671875,0.0012693405151367188,-0.0095905140042305,-0.006244182586669922
1771082274460820500,6.444820556640625,0.0012502670288085938,-0.014274686574935913,-0.001456916332244873
1771082274470761200,6.45476123046875,-0.005831718444824219,-0.01416931301355362,-0.00381314754486084
1771082274480702000,6.464701904296875,-0.0010242462158203125,-0.018777161836624146,-0.0014207065105438232
1771082274490642400,6.474642333984375,0.00135040283203125,-0.011638626456260681,0.000931859016418457
1771082274500583200,6.484583251953125,-0.0033750534057617188,-0.025804869830608368,-0.003920376300811768
1771082274510524000,6.49452392578125,-0.008021354675292969,-0.013840608298778534,-0.006336629390716553
1771082274520464600,6.504464599609375,-0.005532264709472656,-0.006682440638542175,0.007869362831115723
1771082274530405000,6.514405029296875,-0.0007257461547851562,-0.011516965925693512,-0.004160583019256592
1771082274540345900,6.524345947265625,0.006352424621582031,-0.01391661912202835,-0.0017623603343963623
1771082274550286600,6.53428662109375,-0.007876396179199219,-0.016276277601718903,-0.004112690687179565
1771082274560227300,6.544227294921875,0.001674652099609375,-0.006825119256973267,-0.001715242862701416
1771082274570167800,6.554167724609375,0.0016498565673828125,-0.016365863382816315,-0.00877496600151062
1771082274580108500,6.564108642578125,0.003978729248046875,-0.016330398619174957,-0.006299823522567749
1771082274590049000,6.574049072265625,-0.003147125244140625,-0.01629553735256195,0.0031969547271728516
1771082274599989800,6.58398974609375,0.0016164779663085938,-0.01155264675617218,-0.0039446353912353516
1771082274619871000,6.60387109375,-0.0007476806640625,-0.011500284075737,-0.0038646459579467773
1771082274629811700,6.613811767578125,-0.0007333755493164062,-0.009089723229408264,-0.006179928779602051
1771082274639752200,6.623752197265625,-0.007781982421875,-0.011427931487560272,-0.008456647396087646
1771082274649693000,6.63369287109375,0.004124641418457031,-0.011474765837192535,-0.003734409809112549
1771082274659633400,6.64363330078125,0.006412506103515625,-0.013770349323749542,-0.0013441145420074463
1771082274669574100,6.65357421875,-0.0007562637329101562,-0.006613351404666901,-0.00370141863822937
1771082274679515000,6.663514892578125,0.0016126632690429688,-0.01841001957654953,-0.0013108253479003906
1771082274689455400,6.673455322265625,-0.005475044250488281,-0.011277593672275543,-0.008377283811569214
1771082274699396000,6.68339599609375,-0.0030241012573242188,-0.008870743215084076,-0.0013020634651184082
1771082274709336600,6.693336669921875,0.0017375946044921875,-0.011314496397972107,-0.0013057589530944824
1771082274719277300,6.70327734375,-0.0006437301635742188,-0.009008929133415222,0.0010448992252349854
1771082274729217800,6.7132177734375,0.004078865051269531,-0.013801805675029755,-0.008415937423706055
1771082274739158500,6.723158447265625,-0.0006952285766601562,-0.011454775929450989,0.0011160969734191895
1771082274749099300,6.733099365234375,0.0040264129638671875,-0.011399269104003906,-0.0012822151184082031
1771082274759039700,6.743039794921875,0.0039653778076171875,-0.009092286229133606,-0.00138816237449646
1771082274768980500,6.75298046875,-0.005515098571777344,-0.01153235137462616,-0.008453309535980225
1771082274778921000,6.7629208984375,0.004000663757324219,-0.016387946903705597,-0.006085425615310669
1771082274788861700,6.77286181640625,-0.0007715225219726562,-0.009289227426052094,-0.006009399890899658
1771082274798802200,6.78280224609375,-0.000759124755859375,-0.018786020576953888,-0.0011249780654907227
1771082274808743000,6.792742919921875,0.0063228607177734375,-0.009293027222156525,0.0011207759380340576
1771082274818683600,6.80268359375,0.00386810302734375,-0.016438350081443787,-0.0013794898986816406
1771082274828624100,6.8126240234375,-0.0032558441162109375,-0.021110285073518753,-0.001381903886795044
1771082274838564900,6.82256494140625,-0.0031986236572265625,-0.01158144325017929,-0.0037377476692199707
1771082274848505300,6.83250537109375,-0.005496978759765625,-0.00926855206489563,-0.0013473927974700928
1771082274858446000,6.842446044921875,-0.0006952285766601562,-0.013958081603050232,0.001003950834274292
1771082274868386600,6.852386474609375,-0.0030317306518554688,-0.013965629041194916,-0.0014935731887817383
1771082274878327300,6.862327392578125,-0.00533294677734375,-0.004552975296974182,-0.0038483738899230957
1771082274888267800,6.872267822265625,-0.0005331039428710938,-0.0023600980639457703,-0.003809630870819092
1771082274898208500,6.88220849609375,-0.002872467041015625,-0.007266663014888763,-0.006227731704711914
1771082274908149200,6.892149169921875,0.0042438507080078125,-0.012091442942619324,0.0008116364479064941
1771082274918089700,6.90208984375,-0.007596015930175781,-0.009671032428741455,-0.00864449143409729
1771082274928030500,6.912030517578125,-0.002758026123046875,-0.016810037195682526,-0.003817230463027954
1771082274937971200,6.92197119140625,-0.0027093887329101562,-0.007352851331233978,-0.0037781894207000732
1771082274947912000,6.931911865234375,-0.0026636123657226562,-0.014632388949394226,-0.003638744354248047
1771082274957852400,6.941852294921875,0.006800651550292969,-0.009917214512825012,-0.005957812070846558
1771082274967793200,6.951793212890625,0.004334449768066406,-0.016950219869613647,-0.0035296380519866943
1771082274977734000,6.96173388671875,-0.00044345855712890625,-0.014550723135471344,-0.003496229648590088
1771082274987674600,6.971674560546875,-0.0027866363525390625,-0.019254103302955627,0.0012452304363250732
1771082274997615400,6.981615478515625,0.00432586669921875,-0.012209497392177582,-0.003509521484375
1771082275007555800,6.991555908203125,-0.0004520416259765625,-0.012243308126926422,-0.0011221468448638916
1771082275017496600,7.00149658203125,-0.0004425048828125,-0.016883254051208496,-0.005837440490722656
1771082275027437300,7.011437255859375,0.006630897521972656,-0.014484874904155731,-0.008119851350784302
1771082275037378000,7.0213779296875,0.008875846862792969,-0.019087456166744232,-0.005655646324157715
1771082275047318500,7.031318603515625,0.008733749389648438,-0.016652338206768036,-0.0033344030380249023
1771082275057259300,7.04125927734375,0.0038824081420898438,-0.009552083909511566,-0.0033034086227416992
1771082275067200000,7.051199951171875,-0.005597114562988281,-0.009627312421798706,-0.003274589776992798
1771082275077140700,7.061140625,0.0039157867431640625,-0.016769930720329285,-0.0032446086406707764
1771082275087081200,7.071081298828125,0.0014982223510742188,-0.004854343831539154,0.0038469433784484863
1771082275097022000,7.08102197265625,0.001476287841796875,-0.016782239079475403,0.001403123140335083
1771082275106962700,7.090962646484375,0.001453399658203125,-0.011929340660572052,0.0037086308002471924
1771082275116903400,7.1009033203125,-0.0009241104125976562,-0.01892881840467453,-0.001087188720703125
1771082275126844200,7.11084423828125,0.0038051605224609375,-0.014139175415039062,-0.003551483154296875
1771082275136784600,7.12078466796875,-0.0033159255981445312,-0.006976038217544556,-0.005973905324935913
1771082275146725400,7.130725341796875,0.0014524459838867188,-0.01406095176935196,0.0010620653629302979
1771082275156666000,7.140666015625,-0.0009241104125976562,-0.014063909649848938,-0.0036896467208862305
1771082275166606800,7.15060693359375,-0.0009059906005859375,-0.011712513864040375,-0.006007850170135498
1771082275176547300,7.16054736328125,-0.000888824462890625,-0.01871560513973236,-0.005933135747909546
1771082275186488000,7.170488037109375,0.001483917236328125,-0.016283810138702393,0.0035566985607147217
1771082275196428800,7.1804287109375,0.0038175582885742188,-0.013793520629405975,-0.0013384819030761719
1771082275206369500,7.19036962890625,-0.0033054351806640625,-0.013800941407680511,0.0010127127170562744
1771082275216310000,7.20031005859375,-0.0008935928344726562,-0.011456809937953949,0.003325521945953369
1771082275226250800,7.210250732421875,-0.0008764266967773438,-0.013755574822425842,-0.003818213939666748
1771082275236191500,7.22019140625,-0.0008573532104492188,-0.013661719858646393,-0.0038818717002868652
1771082275246132200,7.23013232421875,-0.005545616149902344,-0.016025632619857788,0.0007641017436981201
1771082275256073000,7.240072998046875,0.0016126632690429688,-0.0089358389377594,-0.0016275346279144287
1771082275266013400,7.250013427734375,-0.0007658004760742188,-0.00902421772480011,-0.006334424018859863
1771082275275954200,7.2599541015625,-0.0007476806640625,-0.013819724321365356,-0.0040018558502197266
1771082275285895000,7.26989501953125,-0.003086090087890625,-0.01147240400314331,-0.006314873695373535
1771082275295835600,7.279835693359375,0.0016756057739257812,-0.018479496240615845,0.0008278489112854004
1771082275305776000,7.289776123046875,-0.0077667236328125,-0.008991613984107971,-0.008628547191619873
1771082275315716900,7.299716796875,0.0017833709716796875,-0.013889551162719727,-0.006155848503112793
1771082275325657600,7.30965771484375,-0.010012626647949219,-0.0068324655294418335,-0.0038262605667114258
1771082275335598300,7.319598388671875,-0.0027799606323242188,-0.014018788933753967,0.0009206831455230713
1771082275345538800,7.329538818359375,0.0043315887451171875,-0.016376733779907227,-0.003828674554824829
1771082275355479600,7.3394794921875,-0.0051517486572265625,-0.01869538426399231,-0.0015378594398498535
1771082275365420300,7.349420166015625,-0.00270843505859375,-0.006849601864814758,-0.0038919448852539062
1771082275375361000,7.359361083984375,0.013818740844726562,-0.018744222819805145,-0.0038524866104125977
1771082275385301800,7.3693017578125,0.011240005493164062,-0.01160622388124466,0.003147304058074951
1771082275395242200,7.3792421875,0.003993034362792969,-0.00939769297838211,0.0030694305896759033
1771082275405183000,7.389182861328125,0.00392913818359375,-0.014186970889568329,-0.004070013761520386
1771082275415123700,7.399123779296875,-0.00319671630859375,-0.021148819476366043,-0.006381899118423462
1771082275425064400,7.409064453125,0.013338088989257812,-0.013868853449821472,-0.0063009560108184814
1771082275435005000,7.4190048828125,-0.001007080078125,-0.009166419506072998,-0.008575648069381714
1771082275444945700,7.428945556640625,0.0037212371826171875,-0.018668144941329956,-0.003749549388885498
1771082275454886400,7.438886474609375,0.008370399475097656,-0.011531427502632141,0.005704730749130249
1771082275464827100,7.4488271484375,-0.005888938903808594,-0.011576555669307709,-0.0039348304271698
1771082275474767600,7.458767578125,0.00127410888671875,-0.009164728224277496,-0.0038946568965911865
1771082275484708400,7.468708251953125,-0.0058078765869140625,-0.013957895338535309,-0.001500844955444336
1771082275494649000,7.478649169921875,-0.0033502578735351562,-0.013962574303150177,0.003105461597442627
1771082275504589800,7.48858984375,0.00612640380859375,-0.011714771389961243,-0.004034578800201416
1771082275514530600,7.498530517578125,0.0036725997924804688,-0.011756844818592072,-0.0016384422779083252
1771082275524471000,7.508470947265625,0.0036134719848632812,-0.011696308851242065,-0.0016365349292755127
1771082275534411800,7.518411865234375,-0.0035037994384765625,-0.0164472833275795,-0.011153757572174072
1771082275544352500,7.5283525390625,0.0012664794921875,-0.009347580373287201,0.0007781982421875
1771082275554293200,7.538293212890625,0.0036020278930664062,-0.014137700200080872,0.0007398128509521484
1771082275564233700,7.548233642578125,-0.00351715087890625,-0.011785082519054413,-0.0016522109508514404
1771082275574174500,7.558174560546875,-0.0034532546997070312,-0.011825978755950928,-0.0017519891262054443
1771082275584115200,7.568115234375,-0.0010395050048828125,-0.014217622578144073,-0.006457597017288208
1771082275594056000,7.578055908203125,-0.0033731460571289062,-0.014217972755432129,0.0006875097751617432
1771082275603996400,7.587996337890625,0.006103515625,-0.011864013969898224,-0.0017036497592926025
1771082275613937200,7.597937255859375,-0.0034093856811523438,-0.018966495990753174,0.00290602445602417
1771082275623878000,7.6078779296875,-0.00334930419921875,-0.01418200135231018,0.0028330087661743164
1771082275633818600,7.617818603515625,0.006125450134277344,-0.014081045985221863,0.00040608644485473633
1771082275643759400,7.62775927734375,0.001316070556640625,-0.01183127611875534,-0.0042327940464019775
1771082275653699800,7.637699951171875,-0.005766868591308594,-0.014225713908672333,-0.0018333494663238525
1771082275663640600,7.647640625,-0.0009593963623046875,-0.01658022403717041,-0.004182487726211548
1771082275673581300,7.657581298828125,-0.0032930374145507812,-0.009580202400684357,0.0005704164505004883
1771082275683521800,7.667521728515625,-0.0008792877197265625,-0.018973127007484436,-0.004274994134902954
1771082275693462500,7.677462646484375,0.00855255126953125,-0.014185629785060883,-0.006481558084487915
1771082275703403300,7.6874033203125,-0.0033578872680664062,-0.011835098266601562,-0.006398111581802368
1771082275713343700,7.69734375,0.0037631988525390625,-0.016583755612373352,-0.008671194314956665
1771082275723284500,7.707284423828125,-0.0033588409423828125,-0.011836066842079163,0.003219395875930786
1771082275733225000,7.717224853515625,0.008470535278320312,-0.011876106262207031,-0.01098543405532837
1771082275743165700,7.727165771484375,-0.0034418106079101562,-0.011918358504772186,-0.001307845115661621
1771082275753106200,7.737106201171875,0.0036802291870117188,-0.011855125427246094,-0.003665745258331299
1771082275763047000,7.747046875,0.0036220550537109375,-0.011891975998878479,-0.005985170602798462
1771082275772987600,7.756987548828125,-0.0035009384155273438,-0.016639694571495056,0.001253962516784668
1771082275782928100,7.76692822265625,-0.0057926177978515625,-0.018852077424526215,-0.003602832555770874
1771082275792868900,7.776868896484375,0.0013666152954101562,-0.01631898432970047,0.0012422800064086914
1771082275802809300,7.786809326171875,-0.0057125091552734375,-0.014031916856765747,-0.005968630313873291
1771082275812750000,7.79675,0.0038013458251953125,-0.013930581510066986,-0.008249670267105103
1771082275822690600,7.806690673828125,-0.005677223205566406,-0.016188107430934906,0.005988180637359619
1771082275832631300,7.81663134765625,-0.0008716583251953125,-0.01615561544895172,-0.0011999309062957764
1771082275852512500,7.836512451171875,-0.005663871765136719,-0.011440396308898926,-0.0012498795986175537
1771082275872393700,7.856393798828125,-0.005471229553222656,-0.009139351546764374,-0.0013374090194702148
1771082275892275000,7.87627490234375,-0.0052471160888671875,-0.02097919210791588,0.0010499358177185059
1771082275912156200,7.89615625,-0.00024127960205078125,-0.014070011675357819,-0.008334636688232422
1771082275932037600,7.91603759765625,-0.005053520202636719,-0.01882338523864746,-0.008109509944915771
1771082275951918800,7.9359189453125,0.004464149475097656,-0.018711045384407043,-0.005818098783493042
1771082275971800000,7.955800048828125,-0.00034618377685546875,-0.009287118911743164,-0.0009675920009613037
1771082275991681300,7.975681396484375,-0.002719879150390625,-0.011802226305007935,-0.005758047103881836
1771082276011562500,7.9955625,-0.0074901580810546875,-0.011843495070934296,-0.0031853318214416504
1771082276031443700,8.015443603515624,0.0021038055419921875,-0.014098256826400757,0.0014762580394744873
1771082276041384400,8.025384521484375,0.004427909851074219,-0.011743396520614624,0.0013235211372375488
1771082276061265700,8.045265625,0.0019330978393554688,-0.014001481235027313,0.001268625259399414
1771082276081147100,8.065147216796875,-0.002716064453125,-0.011615760624408722,-0.008123159408569336
1771082276101028400,8.0850283203125,-0.00038433074951171875,-0.014017492532730103,-0.0033141672611236572
1771082276110969000,8.094968994140626,-0.00037860870361328125,-0.016276434063911438,0.0015269815921783447
1771082276120909800,8.104909912109376,-0.00036907196044921875,-0.01624245196580887,-0.005586773157119751
1771082276130850600,8.1148505859375,0.0019979476928710938,-0.011500440537929535,-0.01032954454421997
1771082276140791000,8.124791015625,-0.0027379989624023438,-0.013900354504585266,-0.0008675158023834229
1771082276160672500,8.144672607421874,0.004380226135253906,-0.011455312371253967,-0.000810772180557251
1771082276170613200,8.15461328125,-0.0003986358642578125,-0.016210287809371948,-0.005531251430511475
1771082276190494500,8.174494384765625,-0.00037670135498046875,-0.016226373612880707,-0.010247766971588135
1771082276200435200,8.184435302734375,-0.005076408386230469,-0.011484622955322266,-0.0006851851940155029
1771082276210376000,8.1943759765625,-0.007343292236328125,-0.009179085493087769,0.0016559064388275146
1771082276220316400,8.20431640625,-0.002506256103515625,-0.013971984386444092,-0.005561888217926025
1771082276230257200,8.214257080078125,0.00460052490234375,-0.01397927850484848,-0.010202378034591675
1771082276240198000,8.224197998046876,-0.00018215179443359375,-0.018692173063755035,-0.007703453302383423
1771082276250138600,8.234138671875,0.004534721374511719,-0.011555030941963196,-0.0006394684314727783
1771082276270019800,8.254019775390624,-0.00035953521728515625,-0.013636082410812378,-0.005338907241821289
1771082276279960600,8.263960693359374,-0.005063056945800781,-0.01354420930147171,0.0018894374370574951
1771082276299842000,8.283842041015625,-0.007361412048339844,-0.011252053081989288,-0.00516858696937561
1771082276319723300,8.30372314453125,-0.007069587707519531,-0.011452622711658478,0.0019521117210388184
1771082276339604700,8.323604736328125,-0.0021610260009765625,-0.009111881256103516,-0.009934276342391968
1771082276349545500,8.33354541015625,-0.00682830810546875,-0.016260184347629547,-0.0075417160987854
1771082276359486000,8.34348583984375,0.00035381317138671875,-0.01858074963092804,0.0018738508224487305
1771082276369426700,8.3534267578125,0.0027027130126953125,-0.02086551859974861,-0.0027886927127838135
1771082276379367400,8.363367431640626,-0.0020475387573242188,-0.01614832878112793,-0.0004133284091949463
1771082276389308200,8.37330810546875,0.0074062347412109375,-0.013765037059783936,0.0019232332706451416
1771082276399248600,8.38324853515625,0.0025777816772460938,-0.018583379685878754,-0.005197107791900635
1771082276409189400,8.393189453125,-0.0021715164184570312,-0.01134614646434784,-0.005135893821716309
1771082276419130000,8.403130126953124,0.00022125244140625,-0.011394314467906952,0.0019871890544891357
1771082276429070800,8.41307080078125,-0.0068416595458984375,-0.0043787881731987,0.0019286572933197021
1771082276439011300,8.42301123046875,-0.004370689392089844,-0.01631457358598709,0.0018711090087890625
1771082276448952000,8.4329521484375,0.00041103363037109375,-0.009219914674758911,-0.005145668983459473
1771082276468833500,8.45283349609375,0.005114555358886719,-0.011661551892757416,-0.00041928887367248535
1771082276488714800,8.47271484375,-0.0020341873168945312,-0.013996206223964691,0.0065670013427734375
1771082276508596200,8.49259619140625,0.000316619873046875,-0.014043383300304413,-0.005338400602340698
1771082276518537000,8.502536865234376,-0.0020399093627929688,-0.0140494704246521,-0.0029197335243225098
1771082276528477400,8.5124775390625,-0.002002716064453125,-0.014052584767341614,-0.007605075836181641
1771082276538418200,8.522418212890624,-0.0019674301147460938,-0.011599458754062653,-0.00044083595275878906
1771082276548359000,8.53235888671875,0.0027799606323242188,-0.01399771124124527,0.001793503761291504
1771082276558299600,8.542299560546875,0.0003814697265625,-0.016353115439414978,-0.000616908073425293
1771082276568240000,8.552240234375,-0.0066814422607421875,-0.00925493985414505,-0.0007339417934417725
1771082276578180900,8.562180908203125,-0.0018596649169921875,-0.0186532661318779,0.006315767765045166
1771082276588121600,8.57212158203125,0.0005311965942382812,-0.011516757309436798,-0.000979691743850708
1771082276598062300,8.582062255859375,0.0005283355712890625,-0.011562086641788483,-0.0010906755924224854
1771082276608003000,8.592003173828125,-0.0065402984619140625,-0.016315259039402008,-0.0010979175567626953
1771082276617943600,8.601943603515625,-0.004073143005371094,-0.013824425637722015,0.0011473596096038818
1771082276627884300,8.61188427734375,0.007769584655761719,-0.011476986110210419,0.001102834939956665
1771082276637825000,8.621824951171876,0.000579833984375,-0.01623157411813736,0.0010590553283691406
1771082276647765800,8.631765869140626,0.009989738464355469,-0.023258335888385773,-0.006047725677490234
1771082276657706200,8.641706298828124,0.009827613830566406,-0.018297486007213593,-0.0060742199420928955
1771082276667647000,8.65164697265625,-0.0021047592163085938,-0.018229804933071136,-0.0012897849082946777
1771082276677587700,8.661587646484374,0.000286102294921875,-0.015707068145275116,0.0034148693084716797
1771082276697469000,8.681468994140625,-0.002227783203125,-0.00616280734539032,0.0009364783763885498
1771082276707409700,8.69140966796875,0.0025177001953125,-0.006297372281551361,-0.001356959342956543
1771082276717350100,8.70135009765625,-0.00458526611328125,-0.011138297617435455,-0.001359790563583374
1771082276727291000,8.711290771484375,0.00020122528076171875,-0.02050812914967537,-0.006070345640182495
1771082276737231600,8.721231689453125,-0.004506111145019531,-0.015596002340316772,-0.0037413835525512695
1771082276747172000,8.731172119140625,-0.004427909851074219,-0.006156153976917267,0.0033584237098693848
1771082276757112800,8.74111279296875,-0.0019969940185546875,-0.013353727757930756,0.0009227097034454346
1771082276767053300,8.75105322265625,-0.0066680908203125,-0.008761726319789886,-0.0014724135398864746
1771082276776994000,8.760994140625,0.0028619766235351562,-0.015813983976840973,-0.0038275718688964844
1771082276786934500,8.7709345703125,0.019296646118164062,-0.011079087853431702,-0.001434922218322754
1771082276796875300,8.780875244140624,-0.004566192626953125,-0.018092721700668335,-0.003790736198425293
1771082276806815700,8.790815673828124,0.007285118103027344,-0.013319864869117737,-0.001398712396621704
1771082276816756500,8.800756591796874,-0.006958961486816406,-0.008626557886600494,-0.0014008283615112305
1771082276826697200,8.810697265625,0.0049266815185546875,-0.010972470045089722,-0.0036553144454956055
1771082276836637700,8.8206376953125,0.011910438537597656,-0.013381175696849823,-0.010682731866836548
1771082276846578400,8.830578369140625,0.004651069641113281,-0.011041142046451569,-0.0011129379272460938
1771082276856519000,8.840518798828125,-0.00719451904296875,-0.015803009271621704,-0.0011198222637176514
1771082276866459600,8.850459716796875,-0.0023632049560546875,-0.01577979326248169,0.0012285113334655762
1771082276876400000,8.860400146484375,-0.0093841552734375,-0.020462680608034134,0.0035368800163269043
1771082276886340900,8.8703408203125,0.0001926422119140625,-0.008584544062614441,0.0010974109172821045
1771082276896281600,8.880281494140625,-0.0045166015625,-0.011033043265342712,-0.0013006031513214111
1771082276906222000,8.89022216796875,0.0002727508544921875,-0.011086441576480865,-0.00846913456916809
1771082276916162800,8.900162841796876,0.00262451171875,-0.011037059128284454,-0.005999118089675903
1771082276926103300,8.910103271484376,0.002582550048828125,-0.02040569856762886,-0.0035702884197235107
1771082276936044000,8.9200439453125,0.009603500366210938,-0.01078379899263382,-0.005890518426895142
1771082276945984500,8.929984619140624,0.00473785400390625,-0.006132766604423523,-0.0034634768962860107
1771082276955925200,8.93992529296875,-0.0023975372314453125,-0.010976433753967285,0.0035298168659210205
1771082276965866000,8.949865966796875,0.004706382751464844,-0.008574597537517548,0.0010912418365478516
1771082276975806500,8.959806396484375,-0.004787445068359375,-0.006215669214725494,-0.003660142421722412
1771082276985747200,8.969747314453125,0.0023603439331054688,-0.013310372829437256,-0.0013721883296966553
1771082276995687700,8.979687744140625,-0.004740715026855469,-0.008515335619449615,-0.00608333945274353
1771082277005628400,8.98962841796875,-0.0023050308227539062,-0.020280297845602036,-0.006007373332977295
1771082277015569000,8.99956884765625,-0.0022649765014648438,-0.0059518963098526,-0.003578394651412964
1771082277025509600,9.009509521484375,0.0048370361328125,-0.005988091230392456,0.00351870059967041
1771082277035450400,9.019450439453125,0.007114410400390625,-0.015542767941951752,-0.003628283739089966
1771082277045390800,9.029390869140625,-0.0047702789306640625,-0.01316671073436737,0.0057220458984375
1771082277055331600,9.03933154296875,-0.0023345947265625,-0.008374057710170746,-0.003815948963165283
1771082277065272000,9.04927197265625,0.004769325256347656,-0.006117478013038635,-0.003777801990509033
1771082277075212800,9.059212890625,-0.0000171661376953125,-0.006150916218757629,-0.0013859868049621582
1771082277085153300,9.0691533203125,-0.009428024291992188,-0.015702880918979645,0.0008640885353088379
1771082277095094000,9.079093994140624,0.0025033950805664062,-0.015576556324958801,-0.008592933416366577
1771082277105034500,9.089034423828124,0.004820823669433594,-0.015554234385490417,-0.0015141665935516357
1771082277114975200,9.098975341796875,0.0047435760498046875,-0.013177990913391113,-0.006222963333129883
1771082277124916000,9.108916015625,-0.0023956298828125,-0.015448056161403656,-0.001436084508895874
1771082277134856700,9.118856689453125,0.004708290100097656,-0.015325985848903656,-0.0014375746250152588
1771082277144797400,9.12879736328125,-0.009492874145507812,-0.008244946599006653,0.0032695531845092773
1771082277154738000,9.138738037109375,-0.011685371398925781,-0.013053417205810547,0.0031896233558654785
1771082277174619400,9.158619384765625,0.0027151107788085938,-0.015520729124546051,-0.0015169978141784668
1771082277184560000,9.16856005859375,-0.009099006652832031,-0.010790728032588959,0.003191441297531128
1771082277194500600,9.17850048828125,0.005181312561035156,-0.015556760132312775,-0.0015957653522491455
1771082277214382000,9.198382080078124,-0.0020084381103515625,-0.010744765400886536,-0.003946930170059204
1771082277234263300,9.21826318359375,0.00030040740966796875,-0.010860197246074677,-0.003829360008239746
1771082277254144800,9.238144775390625,0.0026121139526367188,-0.008698880672454834,-0.00622442364692688
1771082277264085500,9.24808544921875,-0.0021371841430664062,-0.013499781489372253,-0.006146132946014404
1771082277283966700,9.267966796875,-0.011477470397949219,-0.015715599060058594,0.001008540391921997
1771082277303848200,9.28784814453125,-0.0017957687377929688,-0.020414534956216812,-0.008390545845031738
1771082277313789000,9.297788818359376,0.0005922317504882812,-0.008441075682640076,-0.0036686360836029053
1771082277333670100,9.317670166015626,-0.0017375946044921875,-0.008413039147853851,0.0011500120162963867
1771082277353551600,9.337551513671874,0.0006780624389648438,-0.006070874631404877,-0.0011750459671020508
1771082277373432800,9.357432861328125,0.00293731689453125,-0.013246729969978333,-0.01523563265800476
1771082277383373600,9.36737353515625,-0.00417327880859375,-0.006095565855503082,0.0014721453189849854
1771082277393314300,9.377314208984375,-0.001743316650390625,-0.008585542440414429,-0.010451197624206543
1771082277403255000,9.387255126953125,0.0006418228149414062,-0.010929249227046967,-0.0055946409702301025
1771082277413195500,9.397195556640625,0.0006341934204101562,-0.01569296419620514,-0.005526840686798096
1771082277423136300,9.40713623046875,0.0006256103515625,-0.01792396605014801,-0.005459338426589966
1771082277433077000,9.417076904296875,-0.001735687255859375,-0.01786249876022339,0.0016691088676452637
1771082277443017700,9.427017822265626,-0.0064105987548828125,-0.008282974362373352,-0.0031946301460266113
1771082277452958200,9.436958251953126,-0.0015926361083984375,-0.00602789968252182,0.003896057605743408
1771082277462899000,9.44689892578125,0.0054988861083984375,-0.015581890940666199,-0.005611509084701538
1771082277472839700,9.456839599609374,0.00305938720703125,-0.008499443531036377,-0.005644470453262329
1771082277482780400,9.466780517578124,0.0077228546142578125,-0.013303659856319427,-0.0033234357833862305
1771082277492721000,9.476720947265624,-0.0041751861572265625,-0.015673503279685974,0.0014151036739349365
1771082277502661600,9.48666162109375,0.002960205078125,-0.015649549663066864,0.0013660788536071777
1771082277512602400,9.496602294921875,-0.004147529602050781,-0.008461222052574158,-0.0034926235675811768
1771082277532483800,9.51648388671875,0.0053730010986328125,-0.01332148164510727,-0.005899637937545776
1771082277542424300,9.52642431640625,0.012350082397460938,-0.010982424020767212,0.0012361407279968262
1771082277562305800,9.546305908203125,0.007354736328125,-0.008494384586811066,-0.0033675730228424072
1771082277582187000,9.56618701171875,-0.0021429061889648438,-0.008642129600048065,-0.00342521071434021
1771082277602068500,9.586068359375,0.00008869171142578125,-0.01564864069223404,-0.003323197364807129
1771082277621950000,9.605949951171874,0.0069980621337890625,-0.017995521426200867,-0.00793313980102539
1771082277641831200,9.6258310546875,0.00441741943359375,-0.022621959447860718,-0.007799029350280762
1771082277661712400,9.64571240234375,-0.007334709167480469,-0.005943186581134796,-0.003022521734237671
1771082277681593900,9.66559375,-0.0048503875732421875,-0.015513993799686432,-0.0005803108215332031
1771082277701475000,9.68547509765625,0.0020647048950195312,-0.015589497983455658,-0.0030835866928100586
1771082277721356300,9.705356201171876,0.0043163299560546875,-0.010875441133975983,-0.0006778240203857422
1771082277741237500,9.725237548828124,0.009008407592773438,-0.017973825335502625,-0.0031203031539916992
1771082277751178000,9.735177978515624,0.004155158996582031,-0.008494362235069275,-0.0008413493633270264
1771082277761118700,9.74511865234375,0.00173187255859375,-0.015652984380722046,-0.01016804575920105
1771082277771059500,9.7550595703125,-0.0006494522094726562,-0.010818898677825928,0.004101753234863281
1771082277790940700,9.774940673828125,0.004084587097167969,-0.013184316456317902,-0.002990216016769409
1771082277810822000,9.79482177734375,-0.00777435302734375,-0.010864831507205963,0.0016256272792816162
1771082277830703000,9.814703125,0.008931159973144531,-0.010858617722988129,0.0013427436351776123
1771082277840643800,9.824643798828125,-0.0006322860717773438,-0.010914944112300873,0.001294940710067749
1771082277860525000,9.844525146484376,-0.00279998779296875,-0.013300612568855286,-0.0012528002262115479
1771082277870465500,9.854465576171876,0.0019578933715820312,-0.018024824559688568,0.003451228141784668
1771082277880406300,9.86440625,-0.00042629241943359375,-0.00854451209306717,-0.001340329647064209
1771082277890346800,9.8743466796875,0.006646156311035156,-0.008534625172615051,-0.001344233751296997
1771082277900287500,9.88428759765625,0.0041828155517578125,-0.010882087051868439,-0.001347273588180542
1771082277920168700,9.904168701171875,-0.000736236572265625,-0.01063566654920578,-0.006163686513900757
1771082277940050000,9.9240498046875,-0.0053730010986328125,-0.012969568371772766,-0.0013644397258758545
1771082277949990700,9.93399072265625,-0.0029268264770507812,-0.012888818979263306,0.0009871721267700195
1771082277969872000,9.953871826171875,-0.007534980773925781,-0.010419145226478577,-0.0014886260032653809
1771082277989753000,9.973753173828126,0.0019063949584960938,-0.017508067190647125,-0.008715599775314331
1771082278009634300,9.99363427734375,0.0019283294677734375,-0.017315581440925598,-0.006225526332855225
1771082278019575000,10.003574951171874,0.0018987655639648438,-0.012555688619613647,-0.0014386177062988281
1771082278029515500,10.013515625,-0.0075473785400390625,-0.000812232494354248,0.003268510103225708
1771082278049396700,10.033396728515624,-0.00281524658203125,-0.010581761598587036,-0.0015427172183990479
1771082278069278200,10.0532783203125,0.006621360778808594,-0.010741852223873138,0.0009298324584960938
1771082278089159400,10.073159423828125,-0.000579833984375,-0.015448309481143951,0.0010290145874023438
1771082278099100000,10.083099853515625,0.0017871856689453125,-0.013073846697807312,-0.006076455116271973
1771082278109040600,10.09304052734375,0.0017604827880859375,-0.015447549521923065,-0.006000608205795288
1771082278118981000,10.102981201171875,-0.0029726028442382812,-0.015325494110584259,-0.0013193488121032715
1771082278128921900,10.112921875,0.0017900466918945312,-0.015205472707748413,-0.006133288145065308
1771082278138862600,10.122862548828126,0.0064716339111328125,-0.01048075407743454,0.001006394624710083
1771082278148803300,10.13280322265625,0.0040111541748046875,-0.010441482067108154,-0.006098717451095581
1771082278158744000,10.142744140625,-0.0031156539916992188,-0.010504767298698425,0.0010403692722320557
1771082278178625300,10.162625244140624,0.0016603469848632812,-0.012701913714408875,-0.006068110466003418
1771082278198506800,10.1825068359375,-0.00078582763671875,-0.008163511753082275,0.0012451112270355225
1771082278218388000,10.202387939453125,-0.0031080245971679688,-0.013151399791240692,-0.001083076000213623
1771082278228328700,10.21232861328125,-0.0007009506225585938,-0.02013051137328148,-0.003444761037826538
1771082278248210000,10.2322099609375,-0.0006351470947265625,-0.012827709317207336,-0.0010270476341247559
1771082278268091400,10.25209130859375,-0.0053958892822265625,-0.010480783879756927,-0.001043558120727539
1771082278278032100,10.2620322265625,0.0017633438110351562,-0.017606303095817566,-0.001153498888015747
1771082278287972900,10.271972900390624,-0.010035514831542969,-0.012838698923587799,0.0011937916278839111
1771082278307854000,10.29185400390625,-0.005107879638671875,-0.012780226767063141,-0.003527015447616577
1771082278317794800,10.301794921875,-0.0003108978271484375,-0.015158817172050476,-0.003493666648864746
1771082278327735600,10.311735595703125,0.00205230712890625,-0.01278916746377945,-0.0034608840942382812
1771082278337676000,10.321676025390625,0.004374504089355469,-0.015167608857154846,-0.008137226104736328
1771082278357557500,10.3415576171875,0.0019245147705078125,-0.012882784008979797,-0.008138328790664673
1771082278377438700,10.361438720703125,-0.005194664001464844,-0.0128883495926857,0.0011993348598480225
1771082278397320200,10.3813203125,0.0019283294677734375,-0.012940369546413422,-0.0035192668437957764
1771082278417201700,10.40120166015625,0.0066928863525390625,-0.008175641298294067,0.001397162675857544
1771082278427142100,10.41114208984375,-0.000476837158203125,-0.012985281646251678,-0.0011077523231506348
1771082278437083000,10.421082763671874,0.001888275146484375,-0.010654740035533905,-0.0034682154655456543
1771082278447023600,10.431023681640625,-0.005204200744628906,-0.01306876540184021,-0.0010815560817718506
1771082278456964400,10.44096435546875,0.013719558715820312,-0.010733947157859802,-0.0010889768600463867
1771082278466904800,10.45090478515625,-0.0029821395874023438,-0.015602849423885345,-0.0011981725692749023
1771082278476845600,10.460845458984375,-0.0029306411743164062,-0.01312391459941864,-0.0012036263942718506
1771082278486786300,10.470786376953125,0.0018291473388671875,-0.013139605522155762,-0.005918383598327637
1771082278496727000,10.48072705078125,-0.0076198577880859375,-0.013056017458438873,-0.008097589015960693
1771082278506667500,10.49066748046875,-0.00043010711669921875,-0.008367113769054413,-0.0031775832176208496
1771082278516608300,10.500608154296875,-0.005126953125,-0.01542595773935318,0.0014566481113433838
1771082278526549000,10.510549072265626,-0.00033092498779296875,-0.012949958443641663,-0.003301650285720825
1771082278536489700,10.52048974609375,0.0020322799682617188,-0.01061711460351944,0.0014365315437316895
1771082278546430500,10.530430419921874,0.004355430603027344,-0.02244894951581955,-0.003321439027786255
1771082278556371000,10.540370849609374,0.0019321441650390625,-0.015249207615852356,-0.003291517496109009
1771082278566311700,10.550311767578124,0.0019025802612304688,-0.008172333240509033,-0.007969856262207031
1771082278576252400,10.56025244140625,0.004231452941894531,-0.01543821394443512,-0.0032557547092437744
1771082278586193200,10.570193115234375,-0.007607460021972656,-0.015421085059642792,-0.000871807336807251
1771082278596133600,10.580133544921875,-0.0027666091918945312,-0.008338473737239838,-0.0009846091270446777
1771082278606074400,10.590074462890625,-0.0027170181274414062,-0.010892987251281738,-0.003347933292388916
1771082278616015000,10.60001513671875,0.00203704833984375,-0.008594438433647156,-0.0032156705856323242
1771082278625955600,10.60995556640625,0.004361152648925781,-0.013295195996761322,-0.0009351074695587158
1771082278635896300,10.619896240234375,0.004292488098144531,-0.013412803411483765,-0.005653560161590576
1771082278645837000,10.629837158203125,-0.0028390884399414062,-0.013426557183265686,-0.005584776401519775
1771082278655777500,10.639777587890626,-0.002788543701171875,-0.004022873938083649,-0.0008085370063781738
1771082278665718300,10.64971826171875,0.004322052001953125,-0.018217019736766815,0.0015338361263275146
1771082278675658800,10.65965869140625,0.0019016265869140625,-0.015796400606632233,-0.0009733438491821289
1771082278685599500,10.669599609375,0.004229545593261719,-0.011061832308769226,-0.010501652956008911
1771082278695540000,10.6795400390625,-0.0028972625732421875,-0.01817478984594345,0.003671020269393921
1771082278705480700,10.689480712890624,-0.000492095947265625,-0.006337694823741913,-0.0011242032051086426
1771082278715421400,10.69942138671875,-0.0028362274169921875,-0.013430364429950714,-0.0058394670486450195
1771082278725362000,10.70936181640625,-0.0027856826782226562,-0.011089518666267395,-0.0010589957237243652
1771082278735302700,10.719302734375,0.00432586669921875,-0.013496294617652893,-0.0010667741298675537
1771082278745243100,10.7292431640625,0.006609916687011719,-0.015964843332767487,-0.005681097507476807
1771082278755183900,10.739183837890625,0.0017938613891601562,-0.013581767678260803,0.0014510750770568848
1771082278765124400,10.749124267578125,-0.0029420852661132812,-0.018301300704479218,0.006110072135925293
1771082278775065000,10.759065185546875,-0.007598876953125,-0.01587928831577301,-0.0010800659656524658
1771082278785005800,10.769005859375,-0.0027608871459960938,-0.01349763572216034,-0.005796104669570923
1771082278794946300,10.7789462890625,0.0019969940185546875,-0.020575735718011856,0.0036930739879608154
1771082278804887000,10.788886962890626,-0.0027418136596679688,-0.01576150953769684,-0.005811095237731934
1771082278814827500,10.79882763671875,-0.0026912689208984375,-0.008571319282054901,-0.008195877075195312
1771082278824768300,10.808768310546874,0.002063751220703125,-0.00856386125087738,-0.005730420351028442
1771082278834708700,10.818708740234374,0.0020313262939453125,-0.013265125453472137,-0.003306061029434204
1771082278844649500,10.8286494140625,-0.0074176788330078125,-0.013179436326026917,-0.0032764077186584473
1771082278854590200,10.838590087890625,0.0021257400512695312,-0.008488476276397705,-0.0032472312450408936
1771082278864530700,10.84853076171875,0.0020961761474609375,-0.018001489341259003,-0.0009661614894866943
1771082278874471400,10.858471435546875,0.002063751220703125,-0.01793587952852249,-0.005684882402420044
1771082278884412000,10.868411865234375,0.0020351409912109375,-0.015519946813583374,-0.0010088682174682617
1771082278894352600,10.8783525390625,-0.0003509521484375,-0.013144277036190033,-0.005726069211959839
1771082278904293000,10.888293212890625,0.0020112991333007812,-0.010706298053264618,-0.005656063556671143
1771082278914233900,10.89823388671875,-0.0050830841064453125,-0.01311945915222168,0.0014756619930267334
1771082278924174300,10.90817431640625,0.009130477905273438,-0.003720894455909729,-0.0009286701679229736
1771082278934115000,10.918114990234375,-0.00043964385986328125,-0.008502878248691559,-0.0031910240650177
1771082278944055800,10.928055908203126,0.0019254684448242188,-0.010952755808830261,-0.0008089840412139893
1771082278953996300,10.937996337890626,-0.00045680999755859375,-0.015614211559295654,-0.0009228289127349854
1771082278963937000,10.94793701171875,-0.00986480712890625,-0.013135075569152832,0.001421421766281128
1771082278973877500,10.95787744140625,-0.0002803802490234375,-0.013153456151485443,-0.003336310386657715
1771082278983818200,10.967818359375,-0.0026302337646484375,-0.010718196630477905,-0.0032034218311309814
1771082278993758700,10.9777587890625,0.0068340301513671875,-0.010776855051517487,-0.0031754672527313232
1771082279003699500,10.987699462890625,-0.0050487518310546875,-0.013188831508159637,0.001560598611831665
1771082279013640200,10.99764013671875,0.0044574737548828125,-0.020167309790849686,-0.0033013224601745605
1771082279023580700,11.00758056640625,0.01851177215576172,-0.01535988599061966,-0.0009174346923828125
1771082279033521400,11.017521484375,0.006435394287109375,-0.01063258945941925,0.006135314702987671
1771082279043462000,11.0274619140625,-0.0030870437622070312,-0.008236490190029144,-0.0010552704334259033
1771082279053402600,11.037402587890625,0.004029273986816406,-0.013042241334915161,-0.0034182071685791016
1771082279063343000,11.047343017578125,0.0016107559204101562,-0.008350692689418793,-0.0010331571102142334
1771082279073283800,11.057283935546875,-0.0031223297119140625,-0.01315741240978241,-0.0010413825511932373
1771082279083224600,11.067224609375,-0.0030679702758789062,-0.008364930748939514,-0.0034037530422210693
1771082279103105800,11.087105712890626,-0.005473136901855469,-0.013149954378604889,-0.0009873807430267334
1771082279113046300,11.09704638671875,-0.00537872314453125,-0.010813787579536438,-0.0009963512420654297
1771082279122987000,11.106987060546874,-0.0005779266357421875,-0.013225160539150238,-0.003359466791152954
1771082279132927700,11.116927734375,-0.0052738189697265625,-0.010884858667850494,-0.0033296942710876465
1771082279142868200,11.1268681640625,0.001880645751953125,-0.015649348497390747,-0.0009453296661376953
1771082279152809000,11.13680908203125,0.004204750061035156,-0.013169638812541962,-0.0009550154209136963
1771082279162749700,11.146749755859375,-0.009990692138671875,-0.015541739761829376,0.0014916658401489258
1771082279172690400,11.1566904296875,-0.002758026123046875,-0.006102815270423889,0.001441359519958496
1771082279182631000,11.166630859375,-0.0027093887329101562,-0.008592694997787476,-0.008025288581848145
1771082279192571600,11.176571533203125,-0.005013465881347656,-0.01339537650346756,-0.00801888108253479
1771082279202512400,11.186512451171875,0.004486083984375,-0.008598923683166504,-0.003100186586380005
1771082279212453000,11.196453125,-0.00029468536376953125,-0.013401493430137634,-0.0007196664810180664
1771082279222393900,11.206393798828126,-0.0026416778564453125,-0.018019244074821472,-0.0007339119911193848
1771082279232334300,11.216334228515626,-0.0025959014892578125,-0.017854318022727966,-0.007809996604919434
1771082279252215800,11.2362158203125,0.0021276473999023438,-0.01531662791967392,0.003988027572631836
1771082279262156500,11.246156494140624,0.004451751708984375,-0.012944348156452179,-0.00797724723815918
1771082279282037800,11.266037841796875,0.0020771026611328125,-0.010711275041103363,-0.005668550729751587
1771082279291978500,11.275978515625,0.004399299621582031,-0.013124354183673859,-0.0008909106254577637
1771082279311859700,11.295859619140625,-0.0005292892456054688,-0.013059265911579132,-0.010250598192214966
1771082279331741200,11.3157412109375,0.0018873214721679688,-0.01780681312084198,-0.0007412135601043701
1771082279341682000,11.325681884765626,-0.00049591064453125,-0.010684430599212646,-0.003108590841293335
1771082279351622700,11.33562255859375,-0.0028400421142578125,-0.015350356698036194,-0.005436509847640991
1771082279361563100,11.345563232421876,0.0019207000732421875,-0.012875616550445557,-0.010181814432144165
1771082279381444600,11.365444580078124,-0.0028467178344726562,-0.017566576600074768,0.0016795992851257324
1771082279391385300,11.37538525390625,0.0019121170043945312,-0.01515679806470871,-0.010145306587219238
1771082279401325800,11.385325927734375,-0.0028257369995117188,-0.015141479671001434,0.0017698109149932861
1771082279411266600,11.3952666015625,0.00899505615234375,-0.017480716109275818,-0.0006394088268280029
1771082279431148000,11.41514794921875,-0.0004367828369140625,-0.015036731958389282,-0.005438268184661865
1771082279451029200,11.435029296875,-0.0005331039428710938,-0.01023905724287033,-0.0007807314395904541
1771082279460970000,11.444969970703125,0.0088958740234375,-0.010305702686309814,-0.0031474530696868896
1771082279470910700,11.45491064453125,-0.0030202865600585938,-0.01272553950548172,-0.0007661283016204834
1771082279480851500,11.4648515625,-0.00296783447265625,-0.01500314474105835,0.0015754997730255127
1771082279490792000,11.4747919921875,-0.005269050598144531,-0.0033207982778549194,-0.003184795379638672
1771082279500732700,11.484732666015624,-0.00047016143798828125,-0.012922823429107666,0.0015522539615631104
1771082279510673400,11.49467333984375,-0.0028133392333984375,-0.012944743037223816,-0.003207653760910034
1771082279520614100,11.5046142578125,0.004302024841308594,-0.015323467552661896,-0.0009264051914215088
1771082279530554600,11.5145546875,-0.0028285980224609375,-0.01776157319545746,-0.0009363889694213867
1771082279540495400,11.524495361328125,0.00193023681640625,-0.010639950633049011,-0.0033005177974700928
1771082279560376800,11.544376953125,-0.00044155120849609375,-0.010580211877822876,-0.005735605955123901
1771082279580258000,11.564258056640625,0.0042476654052734375,-0.015306681394577026,-0.0010455846786499023
1771082279600139300,11.58413916015625,0.0041179656982421875,-0.008106574416160583,-0.0012243390083312988
1771082279620020500,11.6040205078125,-0.0006399154663085938,-0.0129365473985672,-0.0013762116432189941
1771082279639901700,11.623901611328124,0.006374359130859375,-0.012976743280887604,-0.001521378755569458
1771082279649842400,11.633842529296874,-0.007852554321289062,-0.015250168740749359,0.0007309317588806152
1771082279659783200,11.643783203125,-0.003009796142578125,-0.010524705052375793,-0.0016609728336334229
1771082279669723600,11.6537236328125,-0.002956390380859375,-0.01529519259929657,-0.013430207967758179
1771082279679664400,11.663664306640625,-0.0005512237548828125,-0.010467082262039185,-0.0038146376609802246
1771082279699545600,11.683545654296875,-0.0028848648071289062,-0.010373815894126892,0.0011090338230133057
1771082279719426800,11.7034267578125,0.001922607421875,-0.019598927348852158,0.001061171293258667
1771082279729367600,11.713367431640625,0.00424957275390625,-0.019509579986333847,-0.008501023054122925
1771082279749248800,11.733248779296876,-0.005184173583984375,-0.012612640857696533,0.0010690689086914062
1771082279759189200,11.743189208984376,-0.00038623809814453125,-0.007931128144264221,-0.008391380310058594
1771082279769130000,11.7531298828125,-0.00037670135498046875,-0.005681939423084259,0.0034945309162139893
1771082279789011200,11.77301123046875,-0.00035572052001953125,-0.010594867169857025,-0.0014034509658813477
1771082279808892400,11.792892333984375,0.0020990371704101562,-0.008001945912837982,-0.0016096234321594238
1771082279828773600,11.812773681640625,-0.0004405975341796875,-0.015092290937900543,0.0031643807888031006
1771082279848654800,11.83265478515625,-0.0005350112915039062,-0.015103287994861603,-0.0016817450523376465
1771082279858595600,11.842595703125,-0.005232810974121094,-0.014986969530582428,0.0006751418113708496
1771082279868536000,11.8525361328125,-0.00278472900390625,-0.01497737318277359,0.0005373656749725342
1771082279878476800,11.862476806640625,-0.00508880615234375,-0.014863155782222748,-0.00430750846862793
1771082279888417500,11.87241748046875,-0.0026464462280273438,-0.012498445808887482,-0.0019068717956542969
1771082279898358000,11.88235791015625,0.006817817687988281,-0.014881737530231476,-0.006609112024307251
1771082279918239200,11.9022392578125,-0.00042247772216796875,-0.017332464456558228,0.0029543638229370117
1771082279938120400,11.922120361328124,0.0018749237060546875,-0.012358717620372772,-0.006555885076522827
1771082279948061200,11.932061279296875,-0.0005083084106445312,-0.00768144428730011,-0.004117757081985474
1771082279967942400,11.9519423828125,-0.005116462707519531,-0.01242808997631073,-0.0039536356925964355
1771082279987823600,11.97182373046875,0.004399299621582031,-0.010152310132980347,-0.001659393310546875
1771082279997764400,11.981764404296875,0.0019750595092773438,-0.012574702501296997,-0.006365776062011719
1771082280007704800,11.991704833984375,0.0019474029541015625,-0.017311014235019684,-0.0063870251178741455
1771082280017645600,12.0016455078125,-0.005146026611328125,-0.014905497431755066,-0.003951728343963623
1771082280027586300,12.01158642578125,-0.0003490447998046875,-0.012540072202682495,0.0031515955924987793
1771082280037526800,12.02152685546875,-0.00034046173095703125,-0.012568369507789612,-0.0016349554061889648
1771082280047467500,12.031467529296876,-0.007395744323730469,-0.012494295835494995,-0.0016331374645233154
1771082280057408000,12.041407958984376,0.0021467208862304688,-0.017130047082901,0.0007229447364807129
1771082280067348700,12.0513486328125,-0.009657859802246094,-0.005310356616973877,-0.008731722831726074
1771082280077289200,12.061289306640624,-0.0000743865966796875,-0.012522034347057343,0.000703662633895874
1771082280087230000,12.07122998046875,-0.00007152557373046875,-0.012448735535144806,-0.006396383047103882
1771082280097170400,12.08117041015625,-0.000064849853515625,-0.010124243795871735,-0.0017085075378417969
1771082280107111200,12.091111083984375,0.00229644775390625,-0.01019279658794403,-0.006515949964523315
1771082280126992400,12.110992431640625,-0.00001049041748046875,-0.010127253830432892,-0.006452113389968872
1771082280146873900,12.130873779296875,-0.009502410888671875,-0.014691151678562164,0.005325227975845337
1771082280156814300,12.140814453125,-0.0022764205932617188,-0.009873107075691223,0.000400543212890625
1771082280166755000,12.150755126953126,0.000118255615234375,-0.007591553032398224,-0.00669446587562561
1771082280176695800,12.16069580078125,0.0024766921997070312,-0.012410923838615417,0.0027069449424743652
1771082280186636500,12.170636474609376,0.004792213439941406,-0.007735654711723328,-0.006779968738555908
1771082280196577000,12.180576904296874,0.0023632049560546875,-0.017156429588794708,0.0002678036689758301
1771082280206517800,12.190517822265624,-0.0023822784423828125,-0.007690593600273132,0.00023791193962097168
1771082280216458500,12.20045849609375,-0.0023374557495117188,-0.0029892250895500183,-0.0022476911544799805
1771082280226399200,12.210399169921875,0.004765510559082031,-0.01249200850725174,-0.0022356808185577393
1771082280236339700,12.220339599609375,0.011751174926757812,-0.01477351039648056,-0.004578143358230591
1771082280246280400,12.230280517578125,-0.002567291259765625,-0.01711888611316681,0.00018131732940673828
1771082280256221200,12.24022119140625,-0.004876136779785156,-0.010005086660385132,0.00015208125114440918
1771082280266162000,12.250161865234375,0.0022726058959960938,-0.010177522897720337,-0.016355961561203003
1771082280276102700,12.2601025390625,-0.002468109130859375,-0.012599505484104156,-0.004439204931259155
1771082280286043100,12.270043212890625,0.006993293762207031,-0.007918208837509155,0.0003179311752319336
1771082280295983900,12.27998388671875,0.004525184631347656,-0.005669243633747101,-0.006775707006454468
1771082280315865300,12.299865234375,-0.0002918243408203125,-0.010480709373950958,-0.0017933845520019531
1771082280325805800,12.309805908203124,-0.007346153259277344,-0.017606221139431,-0.0017889440059661865
1771082280335746600,12.31974658203125,-0.007221221923828125,-0.012841485440731049,-0.011201739311218262
1771082280355628000,12.3396279296875,0.0022077560424804688,-0.010454848408699036,-0.006430476903915405
1771082280375509200,12.35950927734375,0.0044155120849609375,-0.010441645979881287,-0.0061890482902526855
1771082280395390700,12.379390625,-0.000354766845703125,-0.012960664927959442,0.0033413469791412354
1771082280415272000,12.39927197265625,0.002056121826171875,-0.012963637709617615,0.000983119010925293
1771082280435153400,12.4191533203125,-0.00024318695068359375,-0.01767510175704956,-0.003847658634185791
1771082280455034600,12.43903466796875,0.006754875183105469,-0.012868702411651611,0.0009768903255462646
1771082280474916000,12.458916015625,0.006731986999511719,-0.012852996587753296,-0.0013816654682159424
1771082280484856800,12.46885693359375,0.008975028991699219,-0.010419875383377075,0.0009702146053314209
1771082280494797300,12.47879736328125,-0.005297660827636719,-0.005774922668933868,-0.010842859745025635
1771082280504738000,12.488738037109375,-0.0004978179931640625,-0.01533316820859909,-0.0036247074604034424
1771082280514678800,12.4986787109375,-0.0028409957885742188,-0.01285872608423233,0.0011188685894012451
1771082280524619500,12.50861962890625,-0.005146026611328125,-0.012881718575954437,-0.0036337971687316895
1771082280534560300,12.518560302734375,-0.0027036666870117188,-0.008093826472759247,0.003464221954345703
1771082280544500700,12.528500732421875,-0.00030517578125,-0.008196227252483368,-0.0012256503105163574
1771082280554441500,12.53844140625,-0.0026540756225585938,-0.0153626948595047,0.005934953689575195
1771082280564382000,12.5483818359375,0.002101898193359375,-0.015343941748142242,-0.0036065876483917236
1771082280574322700,12.55832275390625,0.006778717041015625,-0.010616905987262726,-0.008280515670776367
1771082280584263400,12.568263427734376,-0.007460594177246094,-0.010575354099273682,-0.008066058158874512
1771082280594204000,12.578203857421874,-0.000270843505859375,-0.010636396706104279,-0.00795707106590271
1771082280604144600,12.58814453125,0.011507987976074219,-0.008342117071151733,0.0015673041343688965
1771082280614085000,12.598085205078124,-0.0028066635131835938,-0.010794669389724731,-0.0031928420066833496
1771082280633966300,12.61796630859375,-0.00039196014404296875,-0.01308409869670868,-0.0008853375911712646
1771082280643907000,12.627906982421875,-0.0074462890625,-0.020064320415258408,0.0038125813007354736
1771082280653847800,12.637847900390625,0.0044536590576171875,-0.0033880919218063354,-0.003440350294113159
1771082280663788300,12.647788330078125,-0.0073871612548828125,-0.012884221971035004,-0.0011560618877410889
1771082280673729000,12.65772900390625,-0.0025529861450195312,-0.008198179304599762,0.0011920630931854248
1771082280683669500,12.66766943359375,0.0022001266479492188,-0.008196942508220673,-0.008270412683486938
1771082280693610200,12.6776103515625,-0.004897117614746094,-0.013006217777729034,0.0012591779232025146
1771082280703550700,12.68755078125,-0.0048122406005859375,-0.01538103073835373,-0.008204430341720581
1771082280713491500,12.697491455078126,0.004687309265136719,-0.003488585352897644,-0.010447412729263306
1771082280723432000,12.707431884765626,-0.0024499893188476562,-0.010730624198913574,0.008535653352737427
1771082280733372700,12.71737255859375,-0.00240325927734375,-0.010789066553115845,-0.005859702825546265
1771082280743313400,12.7273134765625,-0.000003814697265625,-0.013200841844081879,-0.005889385938644409
1771082280753254000,12.73725390625,0.004708290100097656,-0.010965697467327118,-0.003462374210357666
1771082280763194600,12.747194580078125,0.0022783279418945312,-0.013272635638713837,-0.003430098295211792
1771082280783075800,12.767075927734375,-0.00246429443359375,-0.010929673910140991,-0.0008316636085510254
1771082280793016300,12.777016357421875,-0.0000667572021484375,-0.01569339632987976,-0.0008432269096374512
1771082280802957000,12.78695703125,0.0022935867309570312,-0.013215817511081696,-0.0056642889976501465
1771082280812897800,12.796897705078125,-0.007159233093261719,-0.013232842087745667,-0.0055953264236450195
1771082280822838300,12.80683837890625,-0.0023288726806640625,-0.008540980517864227,-0.005527496337890625
1771082280832779000,12.816779052734375,-0.0022869110107421875,-0.006281614303588867,0.001602083444595337
1771082280842719500,12.826719482421876,0.004815101623535156,-0.015729501843452454,-0.0008043646812438965
1771082280852660200,12.83666015625,0.0023832321166992188,-0.015602737665176392,-0.005524992942810059
1771082280862600700,12.8466005859375,0.00469970703125,-0.010871373116970062,-0.005458354949951172
1771082280872541400,12.85654150390625,-0.0000820159912109375,-0.015636064112186432,0.0015681684017181396
1771082280882482200,12.866482177734374,0.004630088806152344,-0.015510864555835724,0.001516580581665039
1771082280892422700,12.876422607421874,-0.009571075439453125,-0.013033449649810791,0.0014658570289611816
1771082280902363400,12.88636328125,0.00000858306884765625,-0.008342035114765167,-0.008001983165740967
1771082280912303900,12.896303955078125,0.000011444091796875,-0.010794587433338165,-0.005539745092391968
1771082280922244600,12.90624462890625,0.007077217102050781,-0.006146244704723358,0.003945142030715942
1771082280932185000,12.91618505859375,0.0022563934326171875,-0.010989688336849213,0.006106346845626831
1771082280942125800,12.926125732421875,0.0045757293701171875,-0.01810670644044876,-0.0034380555152893066
1771082280952066600,12.936066650390625,0.0068569183349609375,-0.01568792760372162,-0.0010519027709960938
1771082280962007000,12.946007080078125,-0.00502777099609375,-0.01085614413022995,0.006003886461257935
1771082280971947800,12.95594775390625,0.004475593566894531,-0.008558206260204315,-0.003538787364959717
1771082280981888300,12.96588818359375,0.0020503997802734375,-0.011007159948348999,-0.008213847875595093
1771082280991829000,12.9758291015625,0.004372596740722656,-0.013415306806564331,0.0036690831184387207
1771082281001769500,12.98576953125,0.006657600402832031,-0.013426132500171661,-0.0034811794757843018
1771082281011710200,12.995710205078124,-0.005222320556640625,-0.008731067180633545,-0.0034486055374145508
1771082281021650700,13.005650634765624,-0.0004215240478515625,-0.01353144645690918,-0.0058727264404296875
1771082281031591400,13.01559130859375,0.0019426345825195312,-0.011188916862010956,0.0012626349925994873
1771082281041532200,13.0255322265625,-0.00044155120849609375,-0.011242605745792389,-0.003491610288619995
1771082281051472600,13.03547265625,0.00428009033203125,-0.015998244285583496,-0.0035615265369415283
1771082281061413400,13.045413330078125,-0.0004968643188476562,-0.013614609837532043,-0.00588187575340271
1771082281071353900,13.055353759765625,0.004222869873046875,-0.01598218083381653,0.001254439353942871
1771082281081294600,13.065294677734375,0.0065097808837890625,-0.013598814606666565,-0.001146167516708374
1771082281091235000,13.075235107421875,-0.0053653717041015625,-0.013609468936920166,-0.0036086738109588623
1771082281101175800,13.08517578125,0.008852958679199219,-0.015974245965480804,-0.00828254222869873
1771082281111116500,13.095116455078125,0.006354331970214844,-0.013593897223472595,0.003602355718612671
1771082281121057000,13.10505712890625,0.0038995742797851562,-0.011247456073760986,0.001059889793395996
1771082281130997800,13.114997802734376,-0.0008726119995117188,-0.015904001891613007,-0.0013374686241149902
1771082281140938200,13.124938232421876,0.008562088012695312,-0.020584840327501297,-0.0060491859912872314
1771082281150879000,13.13487890625,-0.0009918212890625,-0.013416178524494171,-0.0037214159965515137
1771082281160819500,13.1448193359375,0.00138092041015625,-0.010973677039146423,-0.0013305246829986572
1771082281170760200,13.15476025390625,-0.012764930725097656,-0.006319500505924225,0.0010205209255218506
1771082281180701000,13.164700927734375,0.0015764236450195312,-0.01586867868900299,-0.01079338788986206
1771082281190641400,13.174641357421875,0.00390625,-0.008673831820487976,-0.010639727115631104
1771082281200582100,13.18458203125,-0.0032186508178710938,-0.008766576647758484,-0.001070648431777954
1771082281210522600,13.194522705078125,0.013317108154296875,-0.011212073266506195,-0.005786806344985962
1771082281220463400,13.20446337890625,0.0013265609741210938,-0.01361682265996933,-0.0033614635467529297
1771082281230404000,13.214404052734375,0.003662109375,-0.013729095458984375,-0.0009765625
1771082281240344800,13.2243447265625,-0.0034608840942382812,-0.013737596571445465,-0.003238081932067871
1771082281250285600,13.23428564453125,-0.005755424499511719,-0.013745956122875214,-0.005563825368881226
1771082281260226000,13.24422607421875,-0.005656242370605469,-0.009042687714099884,-0.0007887184619903564
1771082281270166800,13.254166748046876,0.0015039443969726562,-0.01854647696018219,-0.0031552910804748535
1771082281280107500,13.264107421875,-0.0008726119995117188,-0.013766080141067505,0.0015804767608642578
1771082281290048300,13.27404833984375,-0.0032062530517578125,-0.013773955404758453,-0.0032817721366882324
1771082281299988700,13.28398876953125,0.0015573501586914062,-0.011325493454933167,-0.003252476453781128
1771082281309929500,13.293929443359374,-0.0008211135864257812,-0.008917845785617828,-0.007932275533676147
1771082281319870200,13.3038701171875,0.0039043426513671875,-0.006652221083641052,-0.0031168758869171143
1771082281329811000,13.31381103515625,0.003841400146484375,-0.009031042456626892,0.0016182661056518555
1771082281339751400,13.32375146484375,0.0014295578002929688,-0.011472120881080627,-0.0008903145790100098
1771082281349692200,13.333692138671875,-0.008009910583496094,-0.004353426396846771,-0.0009008944034576416
1771082281359633000,13.3436328125,-0.012582778930664062,-0.01854206621646881,-0.010328471660614014
1771082281369573600,13.35357373046875,0.011172294616699219,-0.009053133428096771,-0.005473136901855469
1771082281379514400,13.363514404296875,-0.0031366348266601562,-0.01384814828634262,-0.0006987452507019043
1771082281389454800,13.373454833984376,-0.003082275390625,-0.016107037663459778,-0.005421102046966553
1771082281399395600,13.3833955078125,-0.000675201416015625,-0.008911088109016418,0.004061013460159302
1771082281409336300,13.39333642578125,-0.00537109375,-0.013609446585178375,-0.007802754640579224
