time,seconds_elapsed,z,y,x
1771082268178072000,0.162072021484375,0.001464737462811172,-0.0727042406797409,-0.03169159218668938
1771082268187906800,0.17190673828125,0.004660528618842363,-0.18775272369384766,-0.08815056830644608
1771082268197759700,0.181759765625,0.005725792143493891,-0.23568958044052124,-0.11158636957406998
1771082268207633700,0.191633544921875,0.005725792143493891,-0.22716747224330902,-0.10732531547546387
1771082268217530000,0.201530029296875,0.0035952648613601923,-0.14940322935581207,-0.06897582113742828
1771082268227450400,0.211450439453125,-0.0017310534603893757,0.0007989477599039674,0.0034621069207787514
1771082268237394000,0.221393798828125,-0.003861580742523074,0.1392832249403,0.0684431865811348
1771082268247360000,0.231360107421875,-0.005992108024656773,0.1904158741235733,0.09507478028535843
1771082268257346800,0.241346923828125,-0.004926844500005245,0.1765674501657486,0.08761793375015259
1771082268267351300,0.251351318359375,-0.003861580742523074,0.12117373943328857,0.060986343771219254
1771082268277370400,0.261370361328125,-0.0006657897611148655,0.03382211923599243,0.019441060721874237
1771082268287400200,0.271400146484375,0.001464737462811172,-0.05566002428531647,-0.025300011038780212
1771082268297437000,0.28143701171875,0.0025300011038780212,-0.11851058155298233,-0.05512739345431328
1771082268307476500,0.2914765625,0.0025300011038780212,-0.14407691359519958,-0.06684529036283493
1771082268317483500,0.3014833984375,0.0025300011038780212,-0.13342426717281342,-0.060453712940216064
1771082268327424300,0.31142431640625,0.001464737462811172,-0.08442214131355286,-0.03914843872189522
1771082268347305700,0.3313056640625,-0.002796316985040903,0.07110634446144104,0.036485280841588974
1771082268357246500,0.34124658203125,-0.003861580742523074,0.10945583879947662,0.05566002428531647
1771082268367187000,0.35118701171875,-0.003861580742523074,0.10626004636287689,0.05459476262331009
1771082268377127700,0.361127685546875,-0.002796316985040903,0.0774979293346405,0.040746334940195084
1771082268387068400,0.371068359375,-0.0017310534603893757,0.030626330524683,0.017310533672571182
1771082268397009200,0.381009033203125,0.0003994738799519837,-0.02157158963382244,-0.008255792781710625
1771082268406950000,0.390949951171875,0.0003994738799519837,-0.06205160543322563,-0.028495801612734795
1771082268416890400,0.400890380859375,0.001464737462811172,-0.0822916179895401,-0.03701791167259216
1771082268426831000,0.4108310546875,0.001464737462811172,-0.07909582555294037,-0.035952646285295486
1771082268436771800,0.420771728515625,0.001464737462811172,-0.05352949723601341,-0.023169483989477158
1771082268446712600,0.430712646484375,-0.0006657897611148655,-0.010918952524662018,-0.002929474925622344
1771082268456653000,0.440653076171875,-0.0017310534603893757,0.03169159218668938,0.01837579719722271
1771082268466593800,0.45059375,-0.0017310534603893757,0.05832318589091301,0.03009369783103466
1771082268476534500,0.460534423828125,-0.002796316985040903,0.060453712940216064,0.032224226742982864
1771082268486475300,0.470475341796875,-0.002796316985040903,0.04554001986980438,0.024767380207777023
1771082268496415700,0.480415771484375,-0.0017310534603893757,0.019973693415522575,0.011984216049313545
1771082268506356500,0.4903564453125,-0.0006657897611148655,-0.00985368900001049,-0.0018642114009708166
1771082268516297200,0.500297119140625,0.0003994738799519837,-0.03435475379228592,-0.013582111336290836
1771082268526238000,0.510238037109375,0.001464737462811172,-0.04500738903880119,-0.018908429890871048
1771082268536178700,0.5201787109375,0.0003994738799519837,-0.04181159660220146,-0.01784316636621952
1771082268556060000,0.540059814453125,-0.0006657897611148655,-0.004527370445430279,0.0002663159102667123
1771082268566000600,0.550000732421875,-0.0017310534603893757,0.01784316636621952,0.010918952524662018
1771082268575941400,0.55994140625,-0.0017310534603893757,0.03169159218668938,0.016245270147919655
1771082268585881900,0.5698818359375,-0.0017310534603893757,0.030626330524683,0.01837579719722271
1771082268595822600,0.579822509765625,-0.0017310534603893757,0.019973693415522575,0.013049479573965073
1771082268605763300,0.589763427734375,-0.0017310534603893757,0.007190529722720385,0.005592633970081806
1771082268615704000,0.5997041015625,-0.0006657897611148655,-0.007723161485046148,-0.0018642114009708166
1771082268625644500,0.60964453125,-0.0006657897611148655,-0.019441060721874237,-0.00612526573240757
1771082268635585300,0.619585205078125,0.0003994738799519837,-0.023702116683125496,-0.009321057237684727
1771082268645526000,0.629526123046875,0.0003994738799519837,-0.020506324246525764,-0.007190529722720385
1771082268655466800,0.639466796875,-0.0006657897611148655,-0.010918952524662018,-0.002929474925622344
1771082268665407500,0.649407470703125,-0.0006657897611148655,0.002929474925622344,0.004527370445430279
1771082268675348000,0.659347900390625,-0.0017310534603893757,0.013582111336290836,0.00985368900001049
1771082268685288700,0.669288818359375,-0.0006657897611148655,0.015712639316916466,0.010918952524662018
1771082268695229400,0.6792294921875,-0.0006657897611148655,0.013582111336290836,0.008788425475358963
1771082268705170200,0.689170166015625,-0.0006657897611148655,0.00612526573240757,0.004527370445430279
1771082268715110700,0.699110595703125,-0.0006657897611148655,-0.0023968431632965803,0.0002663159102667123
1771082268725051400,0.709051513671875,0.0003994738799519837,-0.00985368900001049,-0.0018642114009708166
1771082268734992100,0.7189921875,-0.0006657897611148655,-0.013049479573965073,-0.003994738683104515
1771082268744932900,0.728932861328125,-0.0006657897611148655,-0.010918952524662018,-0.002929474925622344
1771082268754873300,0.738873291015625,-0.0006657897611148655,-0.005592633970081806,0.0002663159102667123
1771082268764814000,0.74881396484375,-0.0006657897611148655,0.0007989477599039674,0.0034621069207787514
1771082268774754800,0.7587548828125,-0.0006657897611148655,0.007190529722720385,0.005592633970081806
1771082268784695600,0.768695556640625,-0.0006657897611148655,0.008255792781710625,0.006657897960394621
1771082268794636300,0.77863623046875,-0.0017310534603893757,0.00612526573240757,0.005592633970081806
1771082268804576800,0.78857666015625,-0.0006657897611148655,0.0018642114009708166,0.004527370445430279
1771082268814517500,0.798517578125,-0.0006657897611148655,-0.0023968431632965803,0.0002663159102667123
1771082268824458200,0.808458251953125,-0.0006657897611148655,-0.006657897960394621,-0.0007989477599039674
1771082268844339500,0.82833935546875,-0.0006657897611148655,-0.004527370445430279,0.0002663159102667123
1771082268854280200,0.8382802734375,-0.0006657897611148655,-0.0002663159102667123,0.0023968431632965803
1771082268864221000,0.848220947265625,-0.0006657897611148655,0.002929474925622344,0.0034621069207787514
1771082268874161700,0.85816162109375,-0.0006657897611148655,0.002929474925622344,0.005592633970081806
1771082268884102100,0.86810205078125,-0.0017310534603893757,0.003994738683104515,0.004527370445430279
1771082268894043000,0.87804296875,-0.0006657897611148655,0.0018642114009708166,0.0034621069207787514
1771082268903983600,0.887983642578125,-0.0017310534603893757,-0.001331579522229731,0.001331579522229731
1771082268913924400,0.89792431640625,-0.0006657897611148655,-0.0034621069207787514,0.0002663159102667123
1771082268923865000,0.907864990234375,0.0003994738799519837,-0.004527370445430279,0.001331579522229731
1771082268933805600,0.9178056640625,-0.0006657897611148655,-0.0023968431632965803,0.0002663159102667123
1771082268943746300,0.927746337890625,-0.0006657897611148655,-0.0002663159102667123,0.001331579522229731
1771082268953687000,0.93768701171875,-0.0006657897611148655,-0.0002663159102667123,0.0034621069207787514
1771082268963627800,0.947627685546875,-0.0006657897611148655,0.0018642114009708166,0.0034621069207787514
1771082268973568300,0.957568359375,-0.0006657897611148655,0.0018642114009708166,0.0023968431632965803
1771082268983509000,0.967509033203125,-0.0006657897611148655,0.0018642114009708166,0.0023968431632965803
1771082268993449700,0.97744970703125,-0.0006657897611148655,-0.001331579522229731,0.0023968431632965803
1771082269003390500,0.987390380859375,-0.0006657897611148655,-0.0002663159102667123,0.001331579522229731
1771082269013331200,0.997331298828125,-0.0006657897611148655,-0.0023968431632965803,0.0023968431632965803
1771082269023271700,1.007271728515625,-0.0006657897611148655,-0.001331579522229731,0.001331579522229731
1771082269033212400,1.01721240234375,-0.0006657897611148655,-0.0002663159102667123,0.0023968431632965803
1771082269043153200,1.027153076171875,-0.0017310534603893757,-0.0002663159102667123,0.0023968431632965803
1771082269053094000,1.037093994140625,-0.0006657897611148655,0.0007989477599039674,0.0023968431632965803
1771082269063034400,1.047034423828125,-0.0006657897611148655,0.0007989477599039674,0.0023968431632965803
1771082269072975000,1.05697509765625,-0.0006657897611148655,-0.0002663159102667123,0.0023968431632965803
1771082269082915800,1.066915771484375,-0.0006657897611148655,-0.0002663159102667123,0.0023968431632965803
1771082269092856600,1.076856689453125,-0.0006657897611148655,-0.001331579522229731,0.001331579522229731
1771082269112737800,1.09673779296875,-0.0006657897611148655,-0.001331579522229731,0.0023968431632965803
1771082269122678500,1.106678466796875,-0.0017310534603893757,-0.0002663159102667123,0.0023968431632965803
1771082269132619300,1.116619384765625,-0.0006657897611148655,-0.0002663159102667123,0.0023968431632965803
1771082269142560000,1.12656005859375,-0.0006657897611148655,0.0007989477599039674,0.0034621069207787514
1771082269152500500,1.13650048828125,-0.0006657897611148655,0.0007989477599039674,0.001331579522229731
1771082269162441200,1.146441162109375,-0.0006657897611148655,-0.0002663159102667123,0.001331579522229731
1771082269172382000,1.1563818359375,-0.0006657897611148655,-0.0002663159102667123,0.001331579522229731
1771082269182322700,1.16632275390625,-0.0006657897611148655,-0.001331579522229731,0.0023968431632965803
1771082269192263200,1.17626318359375,-0.0006657897611148655,-0.001331579522229731,0.001331579522229731
1771082269202204000,1.186203857421875,-0.0006657897611148655,-0.001331579522229731,0.0023968431632965803
1771082269212144600,1.19614453125,-0.0006657897611148655,-0.001331579522229731,0.0023968431632965803
1771082269222085400,1.20608544921875,-0.0017310534603893757,0.0007989477599039674,0.0023968431632965803
1771082269232025900,1.21602587890625,-0.0006657897611148655,0.0007989477599039674,0.0023968431632965803
1771082269241966600,1.225966552734375,-0.0017310534603893757,-0.0002663159102667123,0.0023968431632965803
1771082269251907300,1.2359072265625,-0.0006657897611148655,-0.0002663159102667123,0.0023968431632965803
1771082269261848000,1.24584814453125,0.0003994738799519837,-0.0002663159102667123,0.0023968431632965803
1771082269271788800,1.255788818359375,-0.0006657897611148655,-0.001331579522229731,0.001331579522229731
1771082269281729300,1.265729248046875,-0.0006657897611148655,-0.001331579522229731,0.0023968431632965803
1771082269291670000,1.275669921875,-0.0006657897611148655,-0.0002663159102667123,0.0023968431632965803
1771082269301610800,1.28561083984375,-0.0006657897611148655,-0.0002663159102667123,0.0023968431632965803
1771082269311551500,1.295551513671875,-0.0006657897611148655,-0.0002663159102667123,0.0023968431632965803
1771082269321492000,1.305491943359375,-0.0006657897611148655,-0.0002663159102667123,0.0023968431632965803
1771082269331432700,1.3154326171875,0.0003994738799519837,-0.0002663159102667123,0.0034621069207787514
1771082269341373400,1.32537353515625,-0.0006657897611148655,-0.0002663159102667123,0.0023968431632965803
1771082269351314200,1.335314208984375,-0.0006657897611148655,-0.001331579522229731,0.0023968431632965803
1771082269361254700,1.345254638671875,-0.0017310534603893757,-0.001331579522229731,0.001331579522229731
1771082269371195400,1.3551953125,-0.0006657897611148655,-0.0002663159102667123,0.0023968431632965803
1771082269381136100,1.36513623046875,-0.0006657897611148655,-0.0002663159102667123,0.0023968431632965803
1771082269391076900,1.375076904296875,-0.0017310534603893757,-0.0002663159102667123,0.001331579522229731
1771082269401017600,1.385017578125,-0.0006657897611148655,-0.0002663159102667123,0.0023968431632965803
1771082269410958000,1.3949580078125,0.0003994738799519837,-0.0002663159102667123,0.0023968431632965803
1771082269420898800,1.40489892578125,-0.0006657897611148655,-0.0002663159102667123,0.0023968431632965803
1771082269430839600,1.414839599609375,-0.0006657897611148655,-0.0002663159102667123,0.0023968431632965803
1771082269440780300,1.4247802734375,-0.0006657897611148655,-0.0002663159102667123,0.0023968431632965803
1771082269450720800,1.434720703125,-0.0006657897611148655,-0.001331579522229731,0.0023968431632965803
1771082269460661500,1.44466162109375,-0.0006657897611148655,-0.001331579522229731,0.0023968431632965803
1771082269470602200,1.454602294921875,-0.0017310534603893757,-0.001331579522229731,0.0034621069207787514
1771082269480543000,1.46454296875,-0.0006657897611148655,0.0007989477599039674,0.001331579522229731
1771082269490483500,1.4744833984375,-0.0006657897611148655,0.0007989477599039674,0.0023968431632965803
1771082269500424200,1.484424072265625,-0.0017310534603893757,-0.0002663159102667123,0.001331579522229731
1771082269510365000,1.494364990234375,-0.0006657897611148655,-0.001331579522229731,0.0023968431632965803
1771082269520305700,1.5043056640625,-0.0017310534603893757,-0.0002663159102667123,0.0023968431632965803
1771082269530246400,1.514246337890625,-0.0006657897611148655,-0.0002663159102667123,0.0023968431632965803
1771082269540187000,1.524186767578125,-0.0006657897611148655,-0.001331579522229731,0.0023968431632965803
1771082269560068400,1.544068359375,-0.0006657897611148655,-0.0002663159102667123,0.0023968431632965803
1771082269570009000,1.554009033203125,-0.0006657897611148655,-0.0002663159102667123,0.0023968431632965803
1771082269589890300,1.573890380859375,-0.0006657897611148655,-0.0002663159102667123,0.0023968431632965803
1771082269599831000,1.5838310546875,-0.0006657897611148655,-0.0002663159102667123,0.001331579522229731
1771082269609771800,1.593771728515625,-0.0006657897611148655,-0.0002663159102667123,0.0023968431632965803
1771082269619712300,1.603712158203125,-0.0006657897611148655,-0.0002663159102667123,0.0023968431632965803
1771082269629653000,1.613653076171875,-0.0006657897611148655,-0.0002663159102667123,0.0023968431632965803
1771082269639593700,1.62359375,-0.0006657897611148655,-0.0002663159102667123,0.0023968431632965803
1771082269649534500,1.633534423828125,-0.0006657897611148655,-0.0002663159102667123,0.0023968431632965803
1771082269659475200,1.64347509765625,-0.0006657897611148655,0.0007989477599039674,0.0023968431632965803
1771082269669415700,1.653415771484375,-0.0017310534603893757,-0.0002663159102667123,0.001331579522229731
1771082269679356400,1.6633564453125,-0.0006657897611148655,-0.0002663159102667123,0.0023968431632965803
1771082269689297200,1.673297119140625,-0.0006657897611148655,-0.0002663159102667123,0.0023968431632965803
1771082269699238000,1.68323779296875,-0.0006657897611148655,-0.0002663159102667123,0.0023968431632965803
1771082269709178400,1.693178466796875,-0.0006657897611148655,-0.0002663159102667123,0.0023968431632965803
1771082269719119000,1.703119140625,-0.0006657897611148655,-0.0002663159102667123,0.0034621069207787514
1771082269729059800,1.713059814453125,-0.0006657897611148655,-0.001331579522229731,0.0023968431632965803
1771082269739000600,1.72300048828125,-0.0006657897611148655,0.0007989477599039674,0.0023968431632965803
1771082269748941000,1.732941162109375,-0.0006657897611148655,-0.0002663159102667123,0.0023968431632965803
1771082269758881800,1.7428818359375,-0.0006657897611148655,-0.001331579522229731,0.001331579522229731
1771082269768822500,1.752822509765625,-0.0006657897611148655,-0.0002663159102667123,0.0023968431632965803
1771082269778763300,1.76276318359375,-0.0006657897611148655,-0.0002663159102667123,0.0023968431632965803
1771082269788704000,1.7727041015625,-0.0006657897611148655,-0.0002663159102667123,0.0023968431632965803
1771082269798644500,1.78264453125,-0.0006657897611148655,-0.0002663159102667123,0.0023968431632965803
1771082269808585200,1.792585205078125,-0.0006657897611148655,-0.0002663159102667123,0.0023968431632965803
1771082269818526000,1.80252587890625,0.0003994738799519837,-0.0002663159102667123,0.001331579522229731
1771082269828466700,1.812466796875,-0.0006657897611148655,-0.0002663159102667123,0.0023968431632965803
1771082269838407200,1.8224072265625,-0.0006657897611148655,-0.0002663159102667123,0.001331579522229731
1771082269848348000,1.832347900390625,-0.0006657897611148655,-0.001331579522229731,0.0023968431632965803
1771082269858288600,1.84228857421875,-0.0006657897611148655,-0.0002663159102667123,0.001331579522229731
1771082269868229400,1.8522294921875,-0.0006657897611148655,-0.0002663159102667123,0.0023968431632965803
1771082269878169900,1.862169921875,-0.0006657897611148655,-0.001331579522229731,0.0023968431632965803
1771082269888110600,1.872110595703125,-0.0006657897611148655,-0.001331579522229731,0.0023968431632965803
1771082269898051300,1.88205126953125,-0.0006657897611148655,-0.001331579522229731,0.001331579522229731
1771082269917932800,1.901932861328125,-0.0006657897611148655,-0.0002663159102667123,0.0023968431632965803
1771082269927873500,1.91187353515625,0.0003994738799519837,-0.001331579522229731,0.001331579522229731
1771082269937814300,1.921814208984375,-0.0006657897611148655,-0.0002663159102667123,0.001331579522229731
1771082269957695700,1.94169580078125,0.0003994738799519837,-0.0002663159102667123,0.001331579522229731
1771082269967636500,1.951636474609375,-0.0006657897611148655,-0.0002663159102667123,0.0023968431632965803
1771082269977577200,1.9615771484375,-0.0006657897611148655,0.0007989477599039674,0.001331579522229731
1771082269987518000,1.97151806640625,-0.0006657897611148655,-0.001331579522229731,0.0023968431632965803
1771082269997458700,1.981458740234375,-0.0006657897611148655,-0.001331579522229731,0.0023968431632965803
1771082270007399400,1.9913994140625,-0.0006657897611148655,-0.0002663159102667123,0.0023968431632965803
1771082270017340200,2.001340087890625,-0.0006657897611148655,-0.0002663159102667123,0.001331579522229731
1771082270027281000,2.011281005859375,-0.0006657897611148655,-0.0002663159102667123,0.0023968431632965803
1771082270037221600,2.0212216796875,-0.0006657897611148655,-0.001331579522229731,0.0023968431632965803
1771082270047162400,2.031162353515625,-0.0006657897611148655,-0.0002663159102667123,0.0023968431632965803
1771082270057103000,2.04110302734375,-0.0006657897611148655,-0.001331579522229731,0.0023968431632965803
1771082270067043800,2.0510439453125,0.0003994738799519837,-0.001331579522229731,0.0023968431632965803
1771082270076984600,2.060984619140625,0.0003994738799519837,-0.0002663159102667123,0.0023968431632965803
1771082270086925300,2.07092529296875,-0.0006657897611148655,0.0007989477599039674,0.0023968431632965803
1771082270096865800,2.08086572265625,-0.0006657897611148655,-0.001331579522229731,0.001331579522229731
1771082270106806500,2.090806640625,-0.0006657897611148655,-0.001331579522229731,0.001331579522229731
1771082270116747300,2.100747314453125,-0.0006657897611148655,-0.001331579522229731,0.0023968431632965803
1771082270126688000,2.11068798828125,-0.0006657897611148655,-0.001331579522229731,0.0023968431632965803
1771082270136628700,2.120628662109375,-0.0006657897611148655,-0.0002663159102667123,0.0023968431632965803
1771082270146569500,2.130569580078125,-0.0006657897611148655,-0.0002663159102667123,0.0023968431632965803
1771082270156510200,2.14051025390625,-0.0006657897611148655,-0.0002663159102667123,0.0023968431632965803
1771082270166451000,2.150450927734375,-0.0006657897611148655,-0.001331579522229731,0.0023968431632965803
1771082270176391700,2.1603916015625,-0.0006657897611148655,-0.001331579522229731,0.0023968431632965803
1771082270186332400,2.17033251953125,-0.0006657897611148655,-0.0002663159102667123,0.0023968431632965803
1771082270196273000,2.18027294921875,-0.0006657897611148655,-0.0002663159102667123,0.001331579522229731
1771082270216154400,2.200154296875,-0.0006657897611148655,-0.001331579522229731,0.0023968431632965803
1771082270226095000,2.21009521484375,-0.0006657897611148655,-0.0002663159102667123,0.0023968431632965803
1771082270236035600,2.22003564453125,-0.0006657897611148655,0.0007989477599039674,0.0023968431632965803
1771082270245976300,2.229976318359375,-0.0006657897611148655,-0.0002663159102667123,0.0023968431632965803
1771082270255917000,2.2399169921875,-0.0006657897611148655,-0.0002663159102667123,0.0023968431632965803
1771082270265857800,2.24985791015625,-0.0006657897611148655,-0.0002663159102667123,0.0023968431632965803
1771082270275798500,2.259798583984375,-0.0006657897611148655,-0.0002663159102667123,0.0023968431632965803
1771082270285739000,2.269739013671875,-0.0006657897611148655,-0.0002663159102667123,0.0023968431632965803
1771082270295679700,2.2796796875,-0.0006657897611148655,-0.0002663159102667123,0.0023968431632965803
1771082270305620500,2.289620361328125,-0.0006657897611148655,-0.001331579522229731,0.001331579522229731
1771082270315561200,2.299561279296875,-0.0006657897611148655,-0.0002663159102667123,0.0023968431632965803
1771082270325501700,2.309501708984375,-0.0006657897611148655,-0.001331579522229731,0.0023968431632965803
1771082270335442400,2.3194423828125,-0.0006657897611148655,-0.0002663159102667123,0.0023968431632965803
1771082270345383200,2.329383056640625,-0.0006657897611148655,0.0007989477599039674,0.0023968431632965803
1771082270355324000,2.339323974609375,-0.0006657897611148655,-0.0002663159102667123,0.0023968431632965803
1771082270365264400,2.349264404296875,-0.0006657897611148655,-0.0002663159102667123,0.001331579522229731
1771082270375205000,2.359205078125,-0.0017310534603893757,-0.0002663159102667123,0.0023968431632965803
1771082270385145900,2.369145751953125,-0.0006657897611148655,-0.0002663159102667123,0.0023968431632965803
1771082270395086600,2.379086669921875,-0.0017310534603893757,-0.0002663159102667123,0.0023968431632965803
1771082270405027300,2.38902734375,-0.0006657897611148655,-0.0002663159102667123,0.001331579522229731
1771082270414967800,2.3989677734375,-0.0006657897611148655,-0.0002663159102667123,0.0023968431632965803
1771082270424908500,2.408908447265625,-0.0006657897611148655,-0.001331579522229731,0.001331579522229731
1771082270434849300,2.418849365234375,-0.0006657897611148655,-0.0002663159102667123,0.0034621069207787514
1771082270444790000,2.4287900390625,-0.0006657897611148655,-0.0002663159102667123,0.0023968431632965803
1771082270454730500,2.43873046875,-0.0006657897611148655,-0.0002663159102667123,0.0023968431632965803
1771082270464671200,2.448671142578125,-0.0006657897611148655,-0.0002663159102667123,0.001331579522229731
1771082270474612000,2.458612060546875,-0.0006657897611148655,-0.0002663159102667123,0.0023968431632965803
1771082270484552700,2.468552734375,-0.0006657897611148655,-0.001331579522229731,0.0023968431632965803
1771082270494493400,2.478493408203125,-0.0006657897611148655,-0.0002663159102667123,0.0034621069207787514
1771082270504434000,2.488433837890625,-0.0017310534603893757,-0.0002663159102667123,0.0034621069207787514
1771082270514374700,2.498374755859375,-0.0006657897611148655,-0.0002663159102667123,0.0023968431632965803
1771082270524315400,2.5083154296875,-0.0006657897611148655,-0.0002663159102667123,0.0023968431632965803
1771082270534256000,2.518256103515625,-0.0006657897611148655,0.0007989477599039674,0.0023968431632965803
1771082270544196600,2.528196533203125,-0.0017310534603893757,-0.0002663159102667123,0.0023968431632965803
1771082270554137300,2.538137451171875,-0.0006657897611148655,-0.001331579522229731,0.0023968431632965803
1771082270564078000,2.548078125,0.0003994738799519837,-0.0002663159102667123,0.0023968431632965803
1771082270574018800,2.558018798828125,-0.0006657897611148655,-0.0002663159102667123,0.0023968431632965803
1771082270583959300,2.567959228515625,-0.0006657897611148655,-0.0002663159102667123,0.0023968431632965803
1771082270593900000,2.577900146484375,-0.0006657897611148655,-0.0002663159102667123,0.001331579522229731
1771082270603840800,2.5878408203125,-0.0006657897611148655,-0.001331579522229731,0.001331579522229731
1771082270623722200,2.60772216796875,-0.0006657897611148655,-0.0002663159102667123,0.0023968431632965803
1771082270633662700,2.617662841796875,-0.0017310534603893757,-0.0002663159102667123,0.001331579522229731
1771082270643603500,2.627603515625,-0.0006657897611148655,-0.0002663159102667123,0.001331579522229731
1771082270653544200,2.637544189453125,0.0003994738799519837,-0.001331579522229731,0.0023968431632965803
1771082270663485000,2.64748486328125,-0.0006657897611148655,-0.001331579522229731,0.0023968431632965803
1771082270673425400,2.65742529296875,-0.0006657897611148655,-0.0002663159102667123,0.0023968431632965803
1771082270683366100,2.6673662109375,0.0003994738799519837,-0.001331579522229731,0.0023968431632965803
1771082270693307000,2.677306884765625,-0.0006657897611148655,-0.0002663159102667123,0.0023968431632965803
1771082270703247600,2.68724755859375,-0.0006657897611148655,-0.0002663159102667123,0.0034621069207787514
1771082270713188000,2.69718798828125,-0.0006657897611148655,-0.0002663159102667123,0.0023968431632965803
1771082270723128800,2.70712890625,-0.0006657897611148655,-0.0002663159102667123,0.001331579522229731
1771082270733069600,2.717069580078125,0.0003994738799519837,-0.0002663159102667123,0.0023968431632965803
1771082270743010300,2.72701025390625,-0.0006657897611148655,-0.001331579522229731,0.0023968431632965803
1771082270752951000,2.736950927734375,-0.0006657897611148655,-0.0002663159102667123,0.0023968431632965803
1771082270762891500,2.7468916015625,-0.0006657897611148655,-0.0002663159102667123,0.0023968431632965803
1771082270772832300,2.756832275390625,-0.0006657897611148655,-0.0002663159102667123,0.0023968431632965803
1771082270782773000,2.76677294921875,-0.0006657897611148655,-0.0002663159102667123,0.0023968431632965803
1771082270792713700,2.776713623046875,0.0003994738799519837,-0.0002663159102667123,0.0023968431632965803
1771082270802654200,2.786654296875,-0.0006657897611148655,-0.0002663159102667123,0.0023968431632965803
1771082270812595000,2.796594970703125,-0.0006657897611148655,-0.001331579522229731,0.0023968431632965803
1771082270822535700,2.80653564453125,-0.0006657897611148655,-0.0002663159102667123,0.0023968431632965803
1771082270832476400,2.816476318359375,-0.0006657897611148655,0.0007989477599039674,0.0023968431632965803
1771082270842417000,2.8264169921875,-0.0006657897611148655,-0.0002663159102667123,0.001331579522229731
1771082270852357600,2.836357666015625,-0.0006657897611148655,-0.0002663159102667123,0.001331579522229731
1771082270872239000,2.856239013671875,-0.0006657897611148655,-0.0002663159102667123,0.0023968431632965803
1771082270882179800,2.866179931640625,0.0003994738799519837,-0.0002663159102667123,0.0023968431632965803
1771082270902061000,2.88606103515625,-0.0006657897611148655,0.0007989477599039674,0.0023968431632965803
1771082270921942500,2.905942626953125,-0.0006657897611148655,-0.001331579522229731,0.0034621069207787514
1771082270931883000,2.915883056640625,-0.0006657897611148655,-0.0002663159102667123,0.0023968431632965803
1771082270941823700,2.92582373046875,-0.0006657897611148655,-0.001331579522229731,0.0023968431632965803
1771082270951764500,2.935764404296875,0.0003994738799519837,-0.0002663159102667123,0.0023968431632965803
1771082270961705200,2.945705322265625,-0.0006657897611148655,-0.0002663159102667123,0.0034621069207787514
1771082270971645700,2.955645751953125,-0.0006657897611148655,-0.0002663159102667123,0.0023968431632965803
1771082270981586400,2.96558642578125,-0.0006657897611148655,-0.001331579522229731,0.0023968431632965803
1771082270991527200,2.975527099609375,-0.0017310534603893757,-0.001331579522229731,0.0034621069207787514
1771082271001468000,2.985468017578125,-0.0006657897611148655,-0.0002663159102667123,0.0023968431632965803
1771082271011408600,2.99540869140625,-0.0006657897611148655,-0.001331579522229731,0.0023968431632965803
1771082271021349000,3.00534912109375,-0.0006657897611148655,-0.0002663159102667123,0.0023968431632965803
1771082271031289900,3.015289794921875,-0.0006657897611148655,-0.001331579522229731,0.0023968431632965803
1771082271041230600,3.025230712890625,-0.0006657897611148655,-0.0002663159102667123,0.0023968431632965803
1771082271051171300,3.03517138671875,-0.0006657897611148655,-0.0002663159102667123,0.0023968431632965803
1771082271071052500,3.055052490234375,-0.0006657897611148655,-0.0002663159102667123,0.0023968431632965803
1771082271080993300,3.0649931640625,-0.0006657897611148655,-0.0002663159102667123,0.0023968431632965803
1771082271090934000,3.07493408203125,-0.0006657897611148655,-0.0002663159102667123,0.0023968431632965803
1771082271100874500,3.08487451171875,-0.0006657897611148655,-0.0002663159102667123,0.0023968431632965803
1771082271110815200,3.094815185546875,-0.0006657897611148655,0.0007989477599039674,0.0023968431632965803
1771082271120756000,3.104755859375,-0.0006657897611148655,-0.0002663159102667123,0.001331579522229731
1771082271130696700,3.11469677734375,-0.0006657897611148655,-0.0002663159102667123,0.0023968431632965803
1771082271140637400,3.124637451171875,-0.0006657897611148655,-0.0002663159102667123,0.0023968431632965803
1771082271150578000,3.134577880859375,-0.0006657897611148655,-0.0002663159102667123,0.001331579522229731
1771082271160518700,3.1445185546875,-0.0006657897611148655,-0.0002663159102667123,0.0023968431632965803
1771082271170459400,3.15445947265625,-0.0017310534603893757,-0.0002663159102667123,0.0023968431632965803
1771082271180400000,3.164400146484375,-0.0017310534603893757,-0.0002663159102667123,0.0023968431632965803
1771082271190340600,3.174340576171875,-0.0006657897611148655,-0.0002663159102667123,0.001331579522229731
1771082271200281300,3.18428125,-0.0006657897611148655,-0.0002663159102667123,0.001331579522229731
1771082271210222000,3.19422216796875,-0.0006657897611148655,-0.001331579522229731,0.0023968431632965803
1771082271220162800,3.204162841796875,-0.0006657897611148655,-0.0002663159102667123,0.0023968431632965803
1771082271230103300,3.214103271484375,-0.0006657897611148655,-0.0002663159102667123,0.0023968431632965803
1771082271240044000,3.2240439453125,-0.0017310534603893757,-0.001331579522229731,0.0023968431632965803
1771082271249984800,3.23398486328125,-0.0006657897611148655,-0.0002663159102667123,0.0034621069207787514
1771082271259925500,3.243925537109375,-0.0006657897611148655,-0.0002663159102667123,0.0023968431632965803
1771082271269866200,3.2538662109375,-0.0006657897611148655,-0.0002663159102667123,0.0023968431632965803
1771082271279806700,3.263806640625,-0.0017310534603893757,-0.0002663159102667123,0.0034621069207787514
1771082271299688200,3.283688232421875,-0.0006657897611148655,-0.0002663159102667123,0.0034621069207787514
1771082271319569400,3.3035693359375,-0.0006657897611148655,-0.0002663159102667123,0.0023968431632965803
1771082271329510100,3.31351025390625,-0.0006657897611148655,-0.0002663159102667123,0.0023968431632965803
1771082271349391400,3.333391357421875,-0.0006657897611148655,-0.0002663159102667123,0.0023968431632965803
1771082271369272600,3.3532724609375,-0.0017310534603893757,-0.0002663159102667123,0.0023968431632965803
1771082271379213000,3.363213134765625,-0.0006657897611148655,-0.0002663159102667123,0.0023968431632965803
1771082271389153800,3.37315380859375,-0.0006657897611148655,-0.0002663159102667123,0.0023968431632965803
1771082271409035000,3.393034912109375,-0.0006657897611148655,-0.0002663159102667123,0.0023968431632965803
1771082271418975700,3.402975830078125,-0.0006657897611148655,-0.0002663159102667123,0.001331579522229731
1771082271428916200,3.412916259765625,0.0003994738799519837,-0.0002663159102667123,0.0023968431632965803
1771082271438857000,3.42285693359375,-0.0006657897611148655,-0.0002663159102667123,0.0023968431632965803
1771082271448797400,3.43279736328125,-0.0006657897611148655,-0.0002663159102667123,0.0023968431632965803
1771082271458738200,3.44273828125,-0.0006657897611148655,-0.0002663159102667123,0.0023968431632965803
1771082271478619400,3.462619384765625,-0.0006657897611148655,-0.0002663159102667123,0.0023968431632965803
1771082271488560000,3.47256005859375,-0.0017310534603893757,0.0007989477599039674,0.0023968431632965803
1771082271508441300,3.49244140625,-0.0006657897611148655,-0.0002663159102667123,0.0023968431632965803
1771082271518381800,3.5023818359375,-0.0006657897611148655,0.0007989477599039674,0.0023968431632965803
1771082271538263000,3.522262939453125,-0.0006657897611148655,-0.0002663159102667123,0.0023968431632965803
1771082271558144500,3.54214453125,-0.0006657897611148655,-0.001331579522229731,0.0023968431632965803
1771082271578025700,3.562025634765625,-0.0006657897611148655,-0.001331579522229731,0.0023968431632965803
1771082271587966500,3.571966552734375,0.0003994738799519837,-0.001331579522229731,0.0023968431632965803
1771082271607847700,3.59184765625,-0.0006657897611148655,-0.0002663159102667123,0.0023968431632965803
1771082271617788400,3.601788330078125,-0.0017310534603893757,-0.001331579522229731,0.0023968431632965803
1771082271637670000,3.621669921875,-0.0006657897611148655,-0.0002663159102667123,0.0023968431632965803
1771082271657551000,3.641551025390625,-0.0017310534603893757,-0.0002663159102667123,0.001331579522229731
1771082271677432600,3.6614326171875,-0.0006657897611148655,-0.0002663159102667123,0.001331579522229731
1771082271697313800,3.681313720703125,-0.0006657897611148655,-0.001331579522229731,0.0023968431632965803
1771082271717195300,3.7011953125,-0.0006657897611148655,-0.0002663159102667123,0.001331579522229731
1771082271727136000,3.711135986328125,-0.0006657897611148655,-0.001331579522229731,0.0023968431632965803
1771082271737076500,3.721076416015625,-0.0006657897611148655,-0.0002663159102667123,0.001331579522229731
1771082271756958000,3.7409580078125,-0.0006657897611148655,-0.0002663159102667123,0.001331579522229731
1771082271776839400,3.76083935546875,-0.0006657897611148655,-0.0002663159102667123,0.0023968431632965803
1771082271786780000,3.77077978515625,-0.0006657897611148655,-0.0002663159102667123,0.0023968431632965803
1771082271806661400,3.790661376953125,-0.0006657897611148655,-0.0002663159102667123,0.0023968431632965803
1771082271816602000,3.80060205078125,-0.0017310534603893757,-0.0002663159102667123,0.0023968431632965803
1771082271826542600,3.81054248046875,-0.0006657897611148655,-0.0002663159102667123,0.0023968431632965803
1771082271846424000,3.830424072265625,-0.0006657897611148655,-0.0002663159102667123,0.0023968431632965803
1771082271856364800,3.84036474609375,-0.0006657897611148655,-0.0002663159102667123,0.001331579522229731
1771082271876246000,3.86024609375,-0.0006657897611148655,-0.0002663159102667123,0.0023968431632965803
1771082271896127500,3.88012744140625,-0.0006657897611148655,-0.0002663159102667123,0.0023968431632965803
1771082271916008700,3.9000087890625,0.0003994738799519837,-0.0002663159102667123,0.0034621069207787514
1771082271925949400,3.909949462890625,-0.0017310534603893757,0.0007989477599039674,0.0023968431632965803
1771082271935890200,3.91989013671875,-0.0006657897611148655,-0.0002663159102667123,0.0023968431632965803
1771082271945831000,3.929830810546875,-0.0006657897611148655,-0.0002663159102667123,0.0023968431632965803
1771082271955771400,3.939771484375,-0.0017310534603893757,-0.0002663159102667123,0.001331579522229731
1771082271965712100,3.949712158203125,-0.0006657897611148655,-0.0002663159102667123,0.0023968431632965803
1771082271975652900,3.95965283203125,-0.0006657897611148655,-0.0002663159102667123,0.0023968431632965803
1771082271985593600,3.969593505859375,-0.0017310534603893757,0.0007989477599039674,0.0034621069207787514
1771082271995534000,3.9795341796875,-0.0006657897611148655,-0.0002663159102667123,0.0023968431632965803
1771082272005474800,3.989474853515625,-0.0006657897611148655,-0.0002663159102667123,0.0023968431632965803
1771082272025356300,4.009356201171875,-0.0006657897611148655,-0.0002663159102667123,0.001331579522229731
1771082272035297000,4.019297119140625,-0.0017310534603893757,-0.0002663159102667123,0.0023968431632965803
1771082272055178200,4.03917822265625,-0.0017310534603893757,-0.001331579522229731,0.0023968431632965803
1771082272065119000,4.049118896484375,-0.0006657897611148655,0.0007989477599039674,0.0023968431632965803
1771082272075059700,4.059059814453125,-0.0006657897611148655,-0.0002663159102667123,0.0034621069207787514
1771082272094941000,4.07894091796875,-0.0006657897611148655,-0.0002663159102667123,0.0023968431632965803
1771082272104881700,4.088881591796875,-0.0017310534603893757,-0.0002663159102667123,0.0034621069207787514
1771082272114822400,4.098822509765625,-0.0006657897611148655,-0.0002663159102667123,0.0034621069207787514
1771082272124763000,4.108762939453125,-0.0006657897611148655,-0.0002663159102667123,0.0034621069207787514
1771082272144644400,4.128644287109375,-0.0006657897611148655,-0.0002663159102667123,0.0023968431632965803
1771082272154585000,4.138585205078125,-0.0006657897611148655,-0.001331579522229731,0.001331579522229731
1771082272164525800,4.14852587890625,-0.0006657897611148655,-0.0002663159102667123,0.0023968431632965803
1771082272174466300,4.15846630859375,-0.0006657897611148655,-0.001331579522229731,0.0023968431632965803
1771082272184407000,4.168406982421875,-0.0006657897611148655,-0.0002663159102667123,0.0023968431632965803
1771082272194347800,4.17834765625,-0.0006657897611148655,-0.001331579522229731,0.0023968431632965803
1771082272204288500,4.18828857421875,-0.0006657897611148655,-0.0002663159102667123,0.0034621069207787514
1771082272214229000,4.19822900390625,-0.0006657897611148655,-0.0002663159102667123,0.0023968431632965803
1771082272224169700,4.208169677734375,0.0003994738799519837,-0.0002663159102667123,0.001331579522229731
1771082272234110500,4.2181103515625,-0.0006657897611148655,-0.0002663159102667123,0.0023968431632965803
1771082272244051200,4.22805126953125,-0.0006657897611148655,-0.001331579522229731,0.001331579522229731
1771082272253991700,4.23799169921875,-0.0006657897611148655,-0.0002663159102667123,0.001331579522229731
1771082272263932400,4.247932373046875,-0.0006657897611148655,-0.0002663159102667123,0.001331579522229731
1771082272273873200,4.257873046875,-0.0006657897611148655,-0.0002663159102667123,0.001331579522229731
1771082272283814000,4.26781396484375,0.0003994738799519837,-0.0002663159102667123,0.0023968431632965803
1771082272293754600,4.277754638671875,-0.0006657897611148655,-0.0002663159102667123,0.0023968431632965803
1771082272303695000,4.287695068359375,-0.0006657897611148655,-0.0002663159102667123,0.0023968431632965803
1771082272313635800,4.2976357421875,-0.0006657897611148655,-0.001331579522229731,0.0023968431632965803
1771082272333517300,4.317517333984375,-0.0006657897611148655,-0.001331579522229731,0.0023968431632965803
1771082272353398500,4.3373984375,-0.0006657897611148655,-0.0002663159102667123,0.0023968431632965803
1771082272363339300,4.34733935546875,-0.0006657897611148655,-0.0002663159102667123,0.001331579522229731
1771082272373280000,4.357280029296875,-0.0006657897611148655,-0.0002663159102667123,0.0023968431632965803
1771082272383220500,4.367220458984375,-0.0006657897611148655,-0.0002663159102667123,0.0023968431632965803
1771082272403102000,4.38710205078125,-0.0017310534603893757,-0.0002663159102667123,0.0023968431632965803
1771082272422983400,4.4069833984375,-0.0006657897611148655,-0.0002663159102667123,0.001331579522229731
1771082272432924000,4.416923828125,-0.0006657897611148655,0.0007989477599039674,0.001331579522229731
1771082272452805400,4.436805419921875,-0.0006657897611148655,-0.0002663159102667123,0.0023968431632965803
1771082272462746000,4.44674609375,-0.0017310534603893757,0.0007989477599039674,0.0023968431632965803
1771082272472686600,4.4566865234375,-0.0006657897611148655,-0.0002663159102667123,0.0023968431632965803
1771082272482627300,4.46662744140625,-0.0006657897611148655,-0.0002663159102667123,0.0034621069207787514
1771082272502508800,4.4865087890625,-0.0006657897611148655,-0.0002663159102667123,0.0023968431632965803
1771082272512449300,4.49644921875,-0.0006657897611148655,-0.0002663159102667123,0.001331579522229731
1771082272522390000,4.50639013671875,-0.0006657897611148655,-0.0002663159102667123,0.0023968431632965803
1771082272532330800,4.516330810546875,-0.0006657897611148655,0.0007989477599039674,0.0023968431632965803
1771082272542271500,4.526271484375,-0.0017310534603893757,-0.0002663159102667123,0.0023968431632965803
1771082272552212200,4.536212158203125,-0.0006657897611148655,-0.0002663159102667123,0.0023968431632965803
1771082272562152700,4.546152587890625,0.0003994738799519837,-0.001331579522229731,0.0023968431632965803
1771082272572093400,4.556093505859375,-0.0006657897611148655,-0.001331579522229731,0.0023968431632965803
1771082272582034200,4.5660341796875,-0.0006657897611148655,-0.0002663159102667123,0.0023968431632965803
1771082272591975000,4.575974853515625,-0.0006657897611148655,-0.0002663159102667123,0.0023968431632965803
1771082272601915400,4.585915283203125,0.0003994738799519837,-0.0002663159102667123,0.0023968431632965803
1771082272611856100,4.595856201171875,-0.0006657897611148655,-0.0002663159102667123,0.001331579522229731
1771082272621796900,4.605796875,-0.0006657897611148655,-0.001331579522229731,0.0023968431632965803
1771082272631737600,4.615737548828125,-0.0006657897611148655,-0.001331579522229731,0.0034621069207787514
1771082272641678300,4.62567822265625,-0.0006657897611148655,-0.0002663159102667123,0.0023968431632965803
1771082272651618800,4.635618896484375,-0.0006657897611148655,-0.0002663159102667123,0.0023968431632965803
1771082272661559600,4.6455595703125,0.0003994738799519837,-0.0002663159102667123,0.0023968431632965803
1771082272671500300,4.655500244140625,-0.0006657897611148655,-0.0002663159102667123,0.0023968431632965803
1771082272681441000,4.66544091796875,-0.0006657897611148655,-0.0002663159102667123,0.0023968431632965803
1771082272701322200,4.685322265625,-0.0006657897611148655,-0.0002663159102667123,0.0023968431632965803
1771082272711263000,4.695262939453125,-0.0006657897611148655,-0.0002663159102667123,0.0023968431632965803
1771082272721203700,4.70520361328125,-0.0006657897611148655,-0.001331579522229731,0.0023968431632965803
1771082272731144200,4.715144287109375,-0.0006657897611148655,-0.0002663159102667123,0.001331579522229731
1771082272741085000,4.7250849609375,-0.0006657897611148655,0.0007989477599039674,0.0023968431632965803
1771082272751025700,4.735025634765625,-0.0006657897611148655,-0.0002663159102667123,0.0023968431632965803
1771082272760966400,4.74496630859375,-0.0017310534603893757,-0.0002663159102667123,0.0023968431632965803
1771082272770907100,4.7549072265625,-0.0006657897611148655,-0.001331579522229731,0.0023968431632965803
1771082272780847600,4.76484765625,-0.0006657897611148655,-0.0002663159102667123,0.0023968431632965803
1771082272790788400,4.774788330078125,-0.0006657897611148655,-0.001331579522229731,0.0023968431632965803
1771082272800729000,4.78472900390625,-0.0006657897611148655,-0.001331579522229731,0.0023968431632965803
1771082272810669800,4.794669921875,-0.0006657897611148655,-0.0002663159102667123,0.0023968431632965803
1771082272820610300,4.8046103515625,-0.0006657897611148655,-0.0002663159102667123,0.0034621069207787514
1771082272830551000,4.814551025390625,-0.0006657897611148655,-0.001331579522229731,0.0023968431632965803
1771082272840491800,4.82449169921875,-0.0006657897611148655,-0.0002663159102667123,0.001331579522229731
1771082272850432500,4.8344326171875,0.0003994738799519837,-0.0002663159102667123,0.001331579522229731
1771082272870313700,4.854313720703125,-0.0006657897611148655,-0.001331579522229731,0.0023968431632965803
1771082272880254500,4.86425439453125,-0.0006657897611148655,-0.0002663159102667123,0.0023968431632965803
1771082272890195200,4.8741953125,-0.0017310534603893757,-0.0002663159102667123,0.0023968431632965803
1771082272900136000,4.884135986328125,-0.0006657897611148655,-0.0002663159102667123,0.001331579522229731
1771082272910076400,4.894076416015625,-0.0006657897611148655,-0.001331579522229731,0.0034621069207787514
1771082272920017200,4.90401708984375,-0.0006657897611148655,-0.0002663159102667123,0.0023968431632965803
1771082272929958000,4.9139580078125,-0.0006657897611148655,-0.0002663159102667123,0.001331579522229731
1771082272939898600,4.923898681640625,0.0003994738799519837,0.0007989477599039674,0.0023968431632965803
1771082272949839000,4.933839111328125,-0.0006657897611148655,-0.001331579522229731,0.0023968431632965803
1771082272959779800,4.94377978515625,-0.0006657897611148655,-0.0002663159102667123,0.0023968431632965803
1771082272969720600,4.953720458984375,-0.0006657897611148655,-0.001331579522229731,0.0023968431632965803
1771082272989601800,4.973601806640625,-0.0017310534603893757,-0.001331579522229731,0.001331579522229731
1771082272999542500,4.98354248046875,-0.0006657897611148655,-0.001331579522229731,0.001331579522229731
1771082273009483300,4.993483154296875,-0.0006657897611148655,-0.0002663159102667123,0.0023968431632965803
1771082273019424000,5.003424072265625,-0.0017310534603893757,-0.0002663159102667123,0.001331579522229731
1771082273029364700,5.01336474609375,-0.0017310534603893757,-0.0002663159102667123,0.0023968431632965803
1771082273039305200,5.02330517578125,-0.0006657897611148655,-0.0002663159102667123,0.0023968431632965803
1771082273049246000,5.033245849609375,-0.0006657897611148655,-0.0002663159102667123,0.0023968431632965803
1771082273059186700,5.043186767578125,-0.0006657897611148655,-0.0002663159102667123,0.0023968431632965803
1771082273069127400,5.05312744140625,-0.0006657897611148655,-0.001331579522229731,0.0023968431632965803
1771082273079068000,5.06306787109375,-0.0006657897611148655,-0.0002663159102667123,0.0023968431632965803
1771082273089008600,5.073008544921875,-0.0006657897611148655,-0.0002663159102667123,0.0023968431632965803
1771082273098949400,5.082949462890625,-0.0006657897611148655,-0.001331579522229731,0.001331579522229731
1771082273108890000,5.09289013671875,-0.0006657897611148655,-0.0002663159102667123,0.0023968431632965803
1771082273118830600,5.10283056640625,-0.0006657897611148655,-0.0002663159102667123,0.001331579522229731
1771082273128771300,5.112771240234375,-0.0006657897611148655,-0.0002663159102667123,0.0023968431632965803
1771082273138712000,5.122712158203125,-0.0006657897611148655,0.0007989477599039674,0.0034621069207787514
1771082273148652800,5.13265283203125,-0.0006657897611148655,-0.0002663159102667123,0.0034621069207787514
1771082273158593500,5.142593505859375,0.0003994738799519837,-0.001331579522229731,0.0023968431632965803
1771082273168534000,5.152533935546875,-0.0006657897611148655,-0.0002663159102667123,0.0034621069207787514
1771082273188415500,5.17241552734375,-0.0006657897611148655,-0.0002663159102667123,0.0023968431632965803
1771082273208296700,5.192296630859375,-0.0006657897611148655,-0.0002663159102667123,0.0023968431632965803
1771082273218237400,5.202237548828125,-0.0006657897611148655,-0.001331579522229731,0.0023968431632965803
1771082273238119000,5.222118896484375,-0.0006657897611148655,-0.001331579522229731,0.001331579522229731
1771082273248059400,5.232059326171875,-0.0006657897611148655,-0.0002663159102667123,0.0023968431632965803
1771082273258000100,5.242000244140625,-0.0006657897611148655,0.0007989477599039674,0.0023968431632965803
1771082273267940900,5.25194091796875,-0.0006657897611148655,-0.001331579522229731,0.0023968431632965803
1771082273277881600,5.261881591796875,-0.0006657897611148655,0.0007989477599039674,0.001331579522229731
1771082273287822300,5.271822265625,-0.0006657897611148655,-0.001331579522229731,0.0023968431632965803
1771082273297762800,5.2817626953125,-0.0006657897611148655,-0.001331579522229731,0.0023968431632965803
1771082273307703600,5.29170361328125,-0.0006657897611148655,-0.0002663159102667123,0.001331579522229731
1771082273317644000,5.30164404296875,-0.0006657897611148655,0.0007989477599039674,0.0023968431632965803
1771082273327584800,5.311584716796875,-0.0006657897611148655,-0.0002663159102667123,0.0023968431632965803
1771082273337525500,5.321525390625,-0.0006657897611148655,-0.0002663159102667123,0.0023968431632965803
1771082273347466000,5.331466064453125,-0.0006657897611148655,-0.0002663159102667123,0.0023968431632965803
1771082273357406700,5.34140673828125,-0.0006657897611148655,-0.0002663159102667123,0.0023968431632965803
1771082273367347200,5.35134716796875,-0.0006657897611148655,-0.0002663159102667123,0.0023968431632965803
1771082273377288000,5.361287841796875,-0.0006657897611148655,-0.0002663159102667123,0.0023968431632965803
1771082273387228400,5.371228515625,-0.0006657897611148655,-0.0002663159102667123,0.0023968431632965803
1771082273397169200,5.381169189453125,-0.0006657897611148655,0.0007989477599039674,0.0023968431632965803
1771082273407110000,5.39110986328125,0.0003994738799519837,-0.0002663159102667123,0.0023968431632965803
1771082273417050400,5.40105029296875,-0.0006657897611148655,-0.0002663159102667123,0.001331579522229731
1771082273426991000,5.4109912109375,-0.0006657897611148655,-0.0002663159102667123,0.0023968431632965803
1771082273436931600,5.420931640625,-0.0006657897611148655,-0.0002663159102667123,0.0023968431632965803
1771082273446872300,5.430872314453125,-0.0006657897611148655,-0.0002663159102667123,0.0023968431632965803
1771082273456812800,5.440812744140625,-0.0006657897611148655,-0.0002663159102667123,0.0023968431632965803
1771082273466753500,5.45075341796875,-0.0006657897611148655,-0.001331579522229731,0.001331579522229731
1771082273476694300,5.4606943359375,-0.0006657897611148655,-0.0002663159102667123,0.0023968431632965803
1771082273486634800,5.470634765625,0.0003994738799519837,-0.0002663159102667123,0.0023968431632965803
1771082273496575500,5.480575439453125,-0.0006657897611148655,-0.0002663159102667123,0.0023968431632965803
1771082273506516000,5.490515869140625,-0.0006657897611148655,-0.0002663159102667123,0.0023968431632965803
1771082273516456700,5.500456787109375,-0.0006657897611148655,-0.0002663159102667123,0.0023968431632965803
1771082273526397200,5.510397216796875,0.0003994738799519837,-0.0002663159102667123,0.0023968431632965803
1771082273536338000,5.520337890625,-0.0006657897611148655,0.0007989477599039674,0.0023968431632965803
1771082273546278400,5.5302783203125,-0.0006657897611148655,-0.001331579522229731,0.0023968431632965803
1771082273556219100,5.54021923828125,-0.0006657897611148655,-0.001331579522229731,0.0023968431632965803
1771082273566160000,5.550159912109375,-0.0006657897611148655,-0.001331579522229731,0.0023968431632965803
1771082273576100400,5.560100341796875,-0.0017310534603893757,-0.0002663159102667123,0.001331579522229731
1771082273586041000,5.570041015625,-0.0006657897611148655,-0.0002663159102667123,0.0023968431632965803
1771082273595981600,5.579981689453125,-0.0006657897611148655,0.0007989477599039674,0.0023968431632965803
1771082273605922300,5.58992236328125,-0.0006657897611148655,-0.0002663159102667123,0.0023968431632965803
1771082273615863000,5.599863037109375,-0.0006657897611148655,-0.0002663159102667123,0.0023968431632965803
1771082273625803500,5.609803466796875,0.0003994738799519837,-0.0002663159102667123,0.001331579522229731
1771082273635744300,5.619744140625,-0.0006657897611148655,-0.0002663159102667123,0.0023968431632965803
1771082273645685000,5.62968505859375,-0.0006657897611148655,-0.0002663159102667123,0.001331579522229731
1771082273655625700,5.639625732421875,-0.0006657897611148655,-0.0002663159102667123,0.0023968431632965803
1771082273665566200,5.649566162109375,-0.0017310534603893757,-0.0002663159102667123,0.0023968431632965803
1771082273675507000,5.6595068359375,-0.0006657897611148655,-0.0002663159102667123,0.0023968431632965803
1771082273685447700,5.66944775390625,-0.0017310534603893757,-0.0002663159102667123,0.0023968431632965803
1771082273705329200,5.6893291015625,-0.0006657897611148655,-0.0002663159102667123,0.001331579522229731
1771082273715269600,5.69926953125,-0.0006657897611148655,-0.001331579522229731,0.0023968431632965803
1771082273735151000,5.719151123046875,0.0003994738799519837,-0.0002663159102667123,0.001331579522229731
1771082273755032300,5.7390322265625,-0.0006657897611148655,-0.0002663159102667123,0.0023968431632965803
1771082273774913800,5.758913818359375,-0.0006657897611148655,-0.0002663159102667123,0.001331579522229731
1771082273794795300,5.778795166015625,-0.0006657897611148655,-0.0002663159102667123,0.001331579522229731
1771082273814676500,5.798676513671875,-0.0006657897611148655,-0.0002663159102667123,0.0023968431632965803
1771082273824617200,5.8086171875,-0.0006657897611148655,-0.001331579522229731,0.0023968431632965803
1771082273834558000,5.818557861328125,-0.0006657897611148655,-0.0002663159102667123,0.0023968431632965803
1771082273854439200,5.838439208984375,-0.0006657897611148655,-0.0002663159102667123,0.0023968431632965803
1771082273864380000,5.8483798828125,-0.0006657897611148655,-0.0002663159102667123,0.001331579522229731
1771082273874320600,5.858320556640625,-0.0006657897611148655,-0.0002663159102667123,0.0023968431632965803
1771082273884261000,5.86826123046875,-0.0006657897611148655,-0.001331579522229731,0.0023968431632965803
1771082273904142600,5.888142578125,-0.0006657897611148655,-0.0002663159102667123,0.0023968431632965803
1771082273914083300,5.898083251953125,-0.0006657897611148655,-0.0002663159102667123,0.0023968431632965803
1771082273924024000,5.908024169921875,-0.0006657897611148655,-0.0002663159102667123,0.0023968431632965803
1771082273943905300,5.9279052734375,-0.0017310534603893757,-0.0002663159102667123,0.0023968431632965803
1771082273953846000,5.937845947265625,-0.0006657897611148655,-0.001331579522229731,0.0023968431632965803
1771082273963786800,5.947786865234375,-0.0006657897611148655,-0.001331579522229731,0.001331579522229731
1771082273973727200,5.957727294921875,0.0003994738799519837,-0.0002663159102667123,0.001331579522229731
1771082273983668000,5.96766796875,-0.0006657897611148655,-0.0002663159102667123,0.0023968431632965803
1771082273993608700,5.977608642578125,0.0003994738799519837,0.0007989477599039674,0.001331579522229731
1771082274013490000,5.997489990234375,0.0003994738799519837,-0.0002663159102667123,0.0023968431632965803
1771082274023430700,6.0074306640625,-0.0006657897611148655,-0.0002663159102667123,0.0023968431632965803
1771082274033371400,6.017371337890625,-0.0006657897611148655,-0.0002663159102667123,0.001331579522229731
1771082274043312000,6.02731201171875,-0.0006657897611148655,-0.0002663159102667123,0.0023968431632965803
1771082274053252900,6.0372529296875,-0.0006657897611148655,-0.0002663159102667123,0.0034621069207787514
1771082274063193300,6.047193359375,-0.0006657897611148655,-0.001331579522229731,0.001331579522229731
1771082274073134000,6.057134033203125,-0.0006657897611148655,-0.001331579522229731,0.0023968431632965803
1771082274083074800,6.06707470703125,-0.0006657897611148655,-0.0002663159102667123,0.0023968431632965803
1771082274093015600,6.077015625,-0.0006657897611148655,0.0007989477599039674,0.0023968431632965803
1771082274102956000,6.0869560546875,-0.0006657897611148655,-0.0002663159102667123,0.0023968431632965803
1771082274112896800,6.096896728515625,-0.0006657897611148655,0.0007989477599039674,0.001331579522229731
1771082274122837500,6.10683740234375,-0.0006657897611148655,-0.0002663159102667123,0.001331579522229731
1771082274132778200,6.1167783203125,-0.0006657897611148655,-0.0002663159102667123,0.0023968431632965803
1771082274142718700,6.12671875,-0.0006657897611148655,-0.0002663159102667123,0.0023968431632965803
1771082274152659500,6.136659423828125,-0.0006657897611148655,-0.0002663159102667123,0.0034621069207787514
1771082274162600200,6.14660009765625,-0.0006657897611148655,-0.0002663159102667123,0.0034621069207787514
1771082274172541000,6.156541015625,-0.0006657897611148655,-0.0002663159102667123,0.0023968431632965803
1771082274182481700,6.166481689453125,-0.0006657897611148655,-0.0002663159102667123,0.0023968431632965803
1771082274192422100,6.176422119140625,-0.0006657897611148655,-0.0002663159102667123,0.0023968431632965803
1771082274202363000,6.18636279296875,-0.0006657897611148655,-0.0002663159102667123,0.0023968431632965803
1771082274212303600,6.1963037109375,-0.0006657897611148655,-0.0002663159102667123,0.0023968431632965803
1771082274222244400,6.206244384765625,-0.0006657897611148655,-0.0002663159102667123,0.001331579522229731
1771082274232184800,6.216184814453125,-0.0006657897611148655,-0.0002663159102667123,0.0023968431632965803
1771082274242125600,6.22612548828125,-0.0006657897611148655,-0.0002663159102667123,0.0023968431632965803
1771082274252066300,6.23606640625,-0.0017310534603893757,-0.001331579522229731,0.001331579522229731
1771082274262007000,6.246007080078125,-0.0006657897611148655,-0.0002663159102667123,0.0023968431632965803
1771082274271947500,6.255947509765625,-0.0006657897611148655,-0.0002663159102667123,0.0023968431632965803
1771082274281888300,6.26588818359375,-0.0006657897611148655,-0.001331579522229731,0.001331579522229731
1771082274291829000,6.2758291015625,-0.0006657897611148655,-0.0002663159102667123,0.0023968431632965803
1771082274301769700,6.285769775390625,-0.0006657897611148655,-0.0002663159102667123,0.0023968431632965803
1771082274311710500,6.29571044921875,-0.0006657897611148655,-0.001331579522229731,0.0023968431632965803
1771082274321651000,6.30565087890625,-0.0006657897611148655,-0.0002663159102667123,0.0023968431632965803
1771082274331591700,6.315591796875,-0.0006657897611148655,0.0007989477599039674,0.0023968431632965803
1771082274341532400,6.325532470703125,-0.0006657897611148655,-0.0002663159102667123,0.0023968431632965803
1771082274351473200,6.33547314453125,-0.0006657897611148655,-0.001331579522229731,0.0023968431632965803
1771082274361413600,6.34541357421875,-0.0006657897611148655,-0.0002663159102667123,0.0034621069207787514
1771082274371354400,6.355354248046875,-0.0006657897611148655,-0.0002663159102667123,0.0023968431632965803
1771082274381295000,6.365295166015625,-0.0006657897611148655,-0.0002663159102667123,0.0023968431632965803
1771082274391235800,6.37523583984375,-0.0006657897611148655,-0.001331579522229731,0.0023968431632965803
1771082274401176300,6.38517626953125,-0.0006657897611148655,-0.0002663159102667123,0.0023968431632965803
1771082274411117000,6.395116943359375,-0.0017310534603893757,-0.0002663159102667123,0.0023968431632965803
1771082274421057800,6.405057861328125,-0.0017310534603893757,-0.0002663159102667123,0.0023968431632965803
1771082274430998500,6.41499853515625,-0.0006657897611148655,-0.0002663159102667123,0.0023968431632965803
1771082274440939300,6.424939208984375,-0.0017310534603893757,-0.001331579522229731,0.001331579522229731
1771082274450879700,6.434879638671875,-0.0006657897611148655,-0.001331579522229731,0.001331579522229731
1771082274460820500,6.444820556640625,-0.0006657897611148655,-0.0002663159102667123,0.001331579522229731
1771082274470761200,6.45476123046875,0.0003994738799519837,-0.0002663159102667123,0.001331579522229731
1771082274480702000,6.464701904296875,-0.0006657897611148655,-0.0002663159102667123,0.001331579522229731
1771082274490642400,6.474642333984375,-0.0006657897611148655,-0.0002663159102667123,0.0023968431632965803
1771082274500583200,6.484583251953125,0.0003994738799519837,-0.001331579522229731,0.0023968431632965803
1771082274510524000,6.49452392578125,-0.0006657897611148655,-0.001331579522229731,0.0023968431632965803
1771082274520464600,6.504464599609375,-0.0006657897611148655,-0.0002663159102667123,0.001331579522229731
1771082274530405000,6.514405029296875,-0.0006657897611148655,-0.001331579522229731,0.0023968431632965803
1771082274540345900,6.524345947265625,-0.0006657897611148655,-0.0002663159102667123,0.0023968431632965803
1771082274550286600,6.53428662109375,-0.0006657897611148655,-0.0002663159102667123,0.0023968431632965803
1771082274560227300,6.544227294921875,-0.0006657897611148655,-0.0002663159102667123,0.0023968431632965803
1771082274570167800,6.554167724609375,-0.0006657897611148655,-0.0002663159102667123,0.0023968431632965803
1771082274580108500,6.564108642578125,-0.0006657897611148655,-0.0002663159102667123,0.0023968431632965803
1771082274590049000,6.574049072265625,-0.0006657897611148655,-0.0002663159102667123,0.0023968431632965803
1771082274599989800,6.58398974609375,-0.0006657897611148655,-0.0002663159102667123,0.0023968431632965803
1771082274619871000,6.60387109375,-0.0006657897611148655,-0.0002663159102667123,0.001331579522229731
1771082274629811700,6.613811767578125,-0.0006657897611148655,-0.0002663159102667123,0.001331579522229731
1771082274639752200,6.623752197265625,-0.0006657897611148655,-0.0002663159102667123,0.001331579522229731
1771082274649693000,6.63369287109375,-0.0006657897611148655,-0.001331579522229731,0.0023968431632965803
1771082274659633400,6.64363330078125,0.0003994738799519837,-0.0002663159102667123,0.001331579522229731
1771082274669574100,6.65357421875,-0.0006657897611148655,-0.0002663159102667123,0.001331579522229731
1771082274679515000,6.663514892578125,-0.0006657897611148655,-0.0002663159102667123,0.001331579522229731
1771082274689455400,6.673455322265625,-0.0006657897611148655,-0.0002663159102667123,0.0023968431632965803
1771082274699396000,6.68339599609375,-0.0006657897611148655,-0.001331579522229731,0.001331579522229731
1771082274709336600,6.693336669921875,-0.0006657897611148655,-0.0002663159102667123,0.0023968431632965803
1771082274719277300,6.70327734375,-0.0006657897611148655,-0.0002663159102667123,0.0023968431632965803
1771082274729217800,6.7132177734375,0.0003994738799519837,-0.0002663159102667123,0.0023968431632965803
1771082274739158500,6.723158447265625,-0.0006657897611148655,-0.0002663159102667123,0.0023968431632965803
1771082274749099300,6.733099365234375,-0.0006657897611148655,-0.0002663159102667123,0.001331579522229731
1771082274759039700,6.743039794921875,-0.0006657897611148655,-0.001331579522229731,0.0023968431632965803
1771082274768980500,6.75298046875,-0.0006657897611148655,-0.0002663159102667123,0.0023968431632965803
1771082274778921000,6.7629208984375,-0.0006657897611148655,-0.001331579522229731,0.0034621069207787514
1771082274788861700,6.77286181640625,-0.0006657897611148655,-0.0002663159102667123,0.0023968431632965803
1771082274798802200,6.78280224609375,0.0003994738799519837,0.0007989477599039674,0.0023968431632965803
1771082274808743000,6.792742919921875,-0.0006657897611148655,-0.001331579522229731,0.0023968431632965803
1771082274818683600,6.80268359375,-0.0006657897611148655,-0.001331579522229731,0.0023968431632965803
1771082274828624100,6.8126240234375,-0.0006657897611148655,-0.0002663159102667123,0.0023968431632965803
1771082274838564900,6.82256494140625,-0.0017310534603893757,-0.0002663159102667123,0.0023968431632965803
1771082274848505300,6.83250537109375,0.0003994738799519837,-0.0002663159102667123,0.0023968431632965803
1771082274858446000,6.842446044921875,-0.0006657897611148655,-0.0002663159102667123,0.001331579522229731
1771082274868386600,6.852386474609375,-0.0017310534603893757,-0.001331579522229731,0.0023968431632965803
1771082274878327300,6.862327392578125,-0.0006657897611148655,-0.0002663159102667123,0.0023968431632965803
1771082274888267800,6.872267822265625,-0.0006657897611148655,-0.0002663159102667123,0.0023968431632965803
1771082274898208500,6.88220849609375,-0.0006657897611148655,-0.001331579522229731,0.0023968431632965803
1771082274908149200,6.892149169921875,-0.0006657897611148655,-0.001331579522229731,0.0023968431632965803
1771082274918089700,6.90208984375,-0.0006657897611148655,-0.0002663159102667123,0.001331579522229731
1771082274928030500,6.912030517578125,-0.0006657897611148655,-0.0002663159102667123,0.0023968431632965803
1771082274937971200,6.92197119140625,-0.0017310534603893757,-0.0002663159102667123,0.0023968431632965803
1771082274947912000,6.931911865234375,-0.0006657897611148655,0.0007989477599039674,0.0034621069207787514
1771082274957852400,6.941852294921875,-0.0006657897611148655,-0.0002663159102667123,0.0023968431632965803
1771082274967793200,6.951793212890625,-0.0006657897611148655,-0.0002663159102667123,0.001331579522229731
1771082274977734000,6.96173388671875,-0.0006657897611148655,-0.0002663159102667123,0.0023968431632965803
1771082274987674600,6.971674560546875,-0.0006657897611148655,-0.0002663159102667123,0.0023968431632965803
1771082274997615400,6.981615478515625,-0.0006657897611148655,-0.0002663159102667123,0.0034621069207787514
1771082275007555800,6.991555908203125,-0.0006657897611148655,-0.0002663159102667123,0.0023968431632965803
1771082275017496600,7.00149658203125,-0.0006657897611148655,-0.0002663159102667123,0.001331579522229731
1771082275027437300,7.011437255859375,-0.0006657897611148655,-0.0002663159102667123,0.0023968431632965803
1771082275037378000,7.0213779296875,-0.0006657897611148655,-0.0002663159102667123,0.001331579522229731
1771082275047318500,7.031318603515625,-0.0006657897611148655,-0.001331579522229731,0.0023968431632965803
1771082275057259300,7.04125927734375,-0.0017310534603893757,-0.0002663159102667123,0.0023968431632965803
1771082275067200000,7.051199951171875,0.0003994738799519837,-0.0002663159102667123,0.0023968431632965803
1771082275077140700,7.061140625,-0.0017310534603893757,-0.0002663159102667123,0.0023968431632965803
1771082275087081200,7.071081298828125,-0.0006657897611148655,-0.0002663159102667123,0.001331579522229731
1771082275097022000,7.08102197265625,-0.0006657897611148655,-0.0002663159102667123,0.0023968431632965803
1771082275106962700,7.090962646484375,-0.0006657897611148655,-0.0002663159102667123,0.001331579522229731
1771082275116903400,7.1009033203125,-0.0006657897611148655,-0.0002663159102667123,0.001331579522229731
1771082275136784600,7.12078466796875,-0.0006657897611148655,-0.001331579522229731,0.001331579522229731
1771082275146725400,7.130725341796875,-0.0017310534603893757,-0.001331579522229731,0.001331579522229731
1771082275156666000,7.140666015625,-0.0006657897611148655,-0.0002663159102667123,0.0023968431632965803
1771082275166606800,7.15060693359375,-0.0006657897611148655,-0.0002663159102667123,0.0023968431632965803
1771082275176547300,7.16054736328125,-0.0006657897611148655,-0.0002663159102667123,0.001331579522229731
1771082275186488000,7.170488037109375,0.0003994738799519837,-0.0002663159102667123,0.0023968431632965803
1771082275196428800,7.1804287109375,-0.0006657897611148655,-0.001331579522229731,0.001331579522229731
1771082275206369500,7.19036962890625,-0.0006657897611148655,-0.0002663159102667123,0.0023968431632965803
1771082275216310000,7.20031005859375,-0.0017310534603893757,-0.0002663159102667123,0.0023968431632965803
1771082275226250800,7.210250732421875,-0.0006657897611148655,-0.0002663159102667123,0.001331579522229731
1771082275236191500,7.22019140625,-0.0006657897611148655,-0.001331579522229731,0.001331579522229731
1771082275246132200,7.23013232421875,-0.0006657897611148655,-0.001331579522229731,0.0023968431632965803
1771082275256073000,7.240072998046875,-0.0017310534603893757,-0.0002663159102667123,0.0023968431632965803
1771082275266013400,7.250013427734375,-0.0006657897611148655,-0.0002663159102667123,0.0023968431632965803
1771082275275954200,7.2599541015625,-0.0006657897611148655,-0.001331579522229731,0.0023968431632965803
1771082275285895000,7.26989501953125,-0.0006657897611148655,-0.0002663159102667123,0.0023968431632965803
1771082275295835600,7.279835693359375,-0.0006657897611148655,-0.0002663159102667123,0.001331579522229731
1771082275305776000,7.289776123046875,-0.0006657897611148655,-0.0002663159102667123,0.0023968431632965803
1771082275315716900,7.299716796875,-0.0006657897611148655,-0.0002663159102667123,0.0034621069207787514
1771082275325657600,7.30965771484375,-0.0006657897611148655,-0.001331579522229731,0.0023968431632965803
1771082275335598300,7.319598388671875,-0.0006657897611148655,-0.0002663159102667123,0.0023968431632965803
1771082275345538800,7.329538818359375,-0.0006657897611148655,-0.0002663159102667123,0.0023968431632965803
1771082275355479600,7.3394794921875,-0.0006657897611148655,-0.001331579522229731,0.0023968431632965803
1771082275365420300,7.349420166015625,-0.0006657897611148655,-0.0002663159102667123,0.0023968431632965803
1771082275375361000,7.359361083984375,-0.0006657897611148655,-0.0002663159102667123,0.0023968431632965803
1771082275385301800,7.3693017578125,-0.0006657897611148655,-0.001331579522229731,0.0023968431632965803
1771082275395242200,7.3792421875,-0.0006657897611148655,-0.0002663159102667123,0.0034621069207787514
1771082275405183000,7.389182861328125,-0.0006657897611148655,-0.0002663159102667123,0.0023968431632965803
1771082275415123700,7.399123779296875,-0.0006657897611148655,-0.0002663159102667123,0.001331579522229731
1771082275425064400,7.409064453125,-0.0006657897611148655,-0.0002663159102667123,0.001331579522229731
1771082275435005000,7.4190048828125,-0.0006657897611148655,-0.0002663159102667123,0.0023968431632965803
1771082275444945700,7.428945556640625,-0.0006657897611148655,-0.0002663159102667123,0.0023968431632965803
1771082275454886400,7.438886474609375,-0.0006657897611148655,-0.0002663159102667123,0.0023968431632965803
1771082275464827100,7.4488271484375,-0.0006657897611148655,-0.001331579522229731,0.0023968431632965803
1771082275474767600,7.458767578125,-0.0006657897611148655,-0.0002663159102667123,0.001331579522229731
1771082275484708400,7.468708251953125,-0.0006657897611148655,-0.0002663159102667123,0.0023968431632965803
1771082275494649000,7.478649169921875,-0.0006657897611148655,-0.001331579522229731,0.0023968431632965803
1771082275504589800,7.48858984375,-0.0006657897611148655,-0.0002663159102667123,0.0034621069207787514
1771082275514530600,7.498530517578125,-0.0006657897611148655,-0.0002663159102667123,0.0023968431632965803
1771082275524471000,7.508470947265625,-0.0006657897611148655,-0.0002663159102667123,0.001331579522229731
1771082275534411800,7.518411865234375,-0.0006657897611148655,-0.001331579522229731,0.0023968431632965803
1771082275544352500,7.5283525390625,-0.0006657897611148655,-0.0002663159102667123,0.0023968431632965803
1771082275554293200,7.538293212890625,-0.0006657897611148655,-0.0002663159102667123,0.0023968431632965803
1771082275564233700,7.548233642578125,-0.0006657897611148655,-0.0002663159102667123,0.0023968431632965803
1771082275574174500,7.558174560546875,-0.0006657897611148655,-0.001331579522229731,0.0023968431632965803
1771082275584115200,7.568115234375,0.0003994738799519837,-0.0002663159102667123,0.0023968431632965803
1771082275594056000,7.578055908203125,-0.0006657897611148655,-0.0002663159102667123,0.0023968431632965803
1771082275603996400,7.587996337890625,-0.0006657897611148655,-0.0002663159102667123,0.0023968431632965803
1771082275613937200,7.597937255859375,-0.0006657897611148655,-0.001331579522229731,0.0023968431632965803
1771082275623878000,7.6078779296875,-0.0017310534603893757,-0.0002663159102667123,0.0023968431632965803
1771082275633818600,7.617818603515625,-0.0006657897611148655,-0.0002663159102667123,0.001331579522229731
1771082275643759400,7.62775927734375,-0.0006657897611148655,0.0007989477599039674,0.0034621069207787514
1771082275653699800,7.637699951171875,-0.0006657897611148655,-0.0002663159102667123,0.0023968431632965803
1771082275663640600,7.647640625,-0.0006657897611148655,-0.0002663159102667123,0.0023968431632965803
1771082275673581300,7.657581298828125,-0.0006657897611148655,-0.0002663159102667123,0.0034621069207787514
1771082275683521800,7.667521728515625,-0.0006657897611148655,-0.001331579522229731,0.001331579522229731
1771082275693462500,7.677462646484375,-0.0006657897611148655,0.0007989477599039674,0.0023968431632965803
1771082275703403300,7.6874033203125,-0.0017310534603893757,-0.0002663159102667123,0.0023968431632965803
1771082275713343700,7.69734375,-0.0006657897611148655,-0.0002663159102667123,0.0023968431632965803
1771082275723284500,7.707284423828125,-0.0006657897611148655,-0.0002663159102667123,0.0023968431632965803
1771082275733225000,7.717224853515625,-0.0006657897611148655,-0.0002663159102667123,0.0023968431632965803
1771082275743165700,7.727165771484375,-0.0017310534603893757,0.0007989477599039674,0.0023968431632965803
1771082275753106200,7.737106201171875,-0.0006657897611148655,-0.0002663159102667123,0.001331579522229731
1771082275763047000,7.747046875,0.0003994738799519837,-0.0002663159102667123,0.0023968431632965803
1771082275772987600,7.756987548828125,-0.0006657897611148655,0.0007989477599039674,0.0023968431632965803
1771082275782928100,7.76692822265625,-0.0006657897611148655,-0.001331579522229731,0.001331579522229731
1771082275792868900,7.776868896484375,-0.0006657897611148655,0.0007989477599039674,0.001331579522229731
1771082275802809300,7.786809326171875,-0.0006657897611148655,-0.001331579522229731,0.0034621069207787514
1771082275812750000,7.79675,0.0003994738799519837,-0.0002663159102667123,0.001331579522229731
1771082275822690600,7.806690673828125,-0.0006657897611148655,-0.0002663159102667123,0.001331579522229731
1771082275832631300,7.81663134765625,-0.0006657897611148655,-0.0002663159102667123,0.0023968431632965803
1771082275852512500,7.836512451171875,-0.0006657897611148655,-0.0002663159102667123,0.0023968431632965803
1771082275872393700,7.856393798828125,-0.0006657897611148655,-0.0002663159102667123,0.0023968431632965803
1771082275892275000,7.87627490234375,-0.0006657897611148655,-0.0002663159102667123,0.0023968431632965803
1771082275912156200,7.89615625,-0.0006657897611148655,-0.0002663159102667123,0.0034621069207787514
1771082275932037600,7.91603759765625,-0.0006657897611148655,-0.0002663159102667123,0.0023968431632965803
1771082275951918800,7.9359189453125,-0.0006657897611148655,-0.001331579522229731,0.0023968431632965803
1771082275971800000,7.955800048828125,-0.0006657897611148655,-0.0002663159102667123,0.0034621069207787514
1771082275991681300,7.975681396484375,-0.0006657897611148655,-0.001331579522229731,0.0023968431632965803
1771082276011562500,7.9955625,-0.0006657897611148655,-0.0002663159102667123,0.0023968431632965803
1771082276031443700,8.015443603515624,-0.0006657897611148655,-0.001331579522229731,0.0023968431632965803
1771082276041384400,8.025384521484375,0.0003994738799519837,-0.001331579522229731,0.0023968431632965803
1771082276061265700,8.045265625,-0.0006657897611148655,-0.0002663159102667123,0.0023968431632965803
1771082276081147100,8.065147216796875,-0.0006657897611148655,-0.0002663159102667123,0.0023968431632965803
1771082276101028400,8.0850283203125,-0.0006657897611148655,-0.0002663159102667123,0.0023968431632965803
1771082276110969000,8.094968994140626,-0.0017310534603893757,0.0007989477599039674,0.001331579522229731
1771082276120909800,8.104909912109376,-0.0006657897611148655,-0.0002663159102667123,0.0023968431632965803
1771082276130850600,8.1148505859375,-0.0006657897611148655,-0.001331579522229731,0.0023968431632965803
1771082276140791000,8.124791015625,-0.0006657897611148655,-0.001331579522229731,0.0023968431632965803
1771082276160672500,8.144672607421874,-0.0006657897611148655,-0.0002663159102667123,0.001331579522229731
1771082276170613200,8.15461328125,-0.0006657897611148655,-0.0002663159102667123,0.0023968431632965803
1771082276190494500,8.174494384765625,-0.0006657897611148655,-0.001331579522229731,0.0023968431632965803
1771082276200435200,8.184435302734375,-0.0006657897611148655,-0.0002663159102667123,0.0023968431632965803
1771082276210376000,8.1943759765625,-0.0017310534603893757,-0.0002663159102667123,0.0023968431632965803
1771082276220316400,8.20431640625,-0.0006657897611148655,-0.001331579522229731,0.0023968431632965803
1771082276240198000,8.224197998046876,-0.0006657897611148655,-0.0002663159102667123,0.0023968431632965803
1771082276250138600,8.234138671875,-0.0006657897611148655,-0.001331579522229731,0.0023968431632965803
1771082276270019800,8.254019775390624,0.0003994738799519837,-0.0002663159102667123,0.001331579522229731
1771082276279960600,8.263960693359374,-0.0006657897611148655,0.0007989477599039674,0.001331579522229731
1771082276299842000,8.283842041015625,-0.0006657897611148655,-0.0002663159102667123,0.0023968431632965803
1771082276319723300,8.30372314453125,-0.0006657897611148655,-0.001331579522229731,0.0034621069207787514
1771082276339604700,8.323604736328125,-0.0006657897611148655,-0.0002663159102667123,0.0023968431632965803
1771082276349545500,8.33354541015625,-0.0006657897611148655,-0.001331579522229731,0.0023968431632965803
1771082276359486000,8.34348583984375,-0.0006657897611148655,-0.001331579522229731,0.0023968431632965803
1771082276369426700,8.3534267578125,-0.0017310534603893757,0.0007989477599039674,0.0023968431632965803
1771082276379367400,8.363367431640626,-0.0006657897611148655,-0.0002663159102667123,0.0034621069207787514
1771082276389308200,8.37330810546875,-0.0017310534603893757,-0.0002663159102667123,0.0023968431632965803
1771082276399248600,8.38324853515625,-0.0006657897611148655,-0.0002663159102667123,0.0034621069207787514
1771082276409189400,8.393189453125,-0.0006657897611148655,-0.0002663159102667123,0.001331579522229731
1771082276419130000,8.403130126953124,-0.0006657897611148655,-0.0002663159102667123,0.0023968431632965803
1771082276429070800,8.41307080078125,-0.0006657897611148655,-0.0002663159102667123,0.0023968431632965803
1771082276439011300,8.42301123046875,-0.0006657897611148655,-0.0002663159102667123,0.0023968431632965803
1771082276448952000,8.4329521484375,-0.0017310534603893757,0.0007989477599039674,0.0023968431632965803
1771082276468833500,8.45283349609375,-0.0006657897611148655,-0.001331579522229731,0.0023968431632965803
1771082276488714800,8.47271484375,0.0003994738799519837,-0.0002663159102667123,0.001331579522229731
1771082276508596200,8.49259619140625,-0.0006657897611148655,-0.001331579522229731,0.0023968431632965803
1771082276518537000,8.502536865234376,-0.0017310534603893757,-0.0002663159102667123,0.0023968431632965803
1771082276528477400,8.5124775390625,-0.0006657897611148655,-0.0002663159102667123,0.0023968431632965803
1771082276538418200,8.522418212890624,-0.0006657897611148655,-0.0002663159102667123,0.001331579522229731
1771082276548359000,8.53235888671875,-0.0006657897611148655,-0.001331579522229731,0.0023968431632965803
1771082276558299600,8.542299560546875,0.0003994738799519837,-0.0002663159102667123,0.0023968431632965803
1771082276568240000,8.552240234375,-0.0006657897611148655,-0.001331579522229731,0.0023968431632965803
1771082276578180900,8.562180908203125,-0.0006657897611148655,-0.0002663159102667123,0.001331579522229731
1771082276588121600,8.57212158203125,-0.0006657897611148655,-0.001331579522229731,0.0023968431632965803
1771082276598062300,8.582062255859375,-0.0006657897611148655,-0.001331579522229731,0.0023968431632965803
1771082276608003000,8.592003173828125,-0.0006657897611148655,-0.0002663159102667123,0.0023968431632965803
1771082276617943600,8.601943603515625,-0.0006657897611148655,-0.001331579522229731,0.001331579522229731
1771082276627884300,8.61188427734375,-0.0006657897611148655,-0.0002663159102667123,0.0023968431632965803
1771082276637825000,8.621824951171876,-0.0006657897611148655,-0.0002663159102667123,0.0023968431632965803
1771082276647765800,8.631765869140626,0.0003994738799519837,-0.0002663159102667123,0.0023968431632965803
1771082276657706200,8.641706298828124,-0.0006657897611148655,-0.001331579522229731,0.001331579522229731
1771082276667647000,8.65164697265625,-0.0006657897611148655,-0.0002663159102667123,0.0023968431632965803
1771082276677587700,8.661587646484374,-0.0006657897611148655,-0.0002663159102667123,0.001331579522229731
1771082276697469000,8.681468994140625,-0.0006657897611148655,-0.0002663159102667123,0.0023968431632965803
1771082276707409700,8.69140966796875,-0.0006657897611148655,0.0007989477599039674,0.0023968431632965803
1771082276717350100,8.70135009765625,-0.0006657897611148655,-0.0002663159102667123,0.0023968431632965803
1771082276727291000,8.711290771484375,-0.0017310534603893757,-0.0002663159102667123,0.001331579522229731
1771082276737231600,8.721231689453125,-0.0017310534603893757,-0.001331579522229731,0.001331579522229731
1771082276747172000,8.731172119140625,-0.0006657897611148655,-0.0002663159102667123,0.0023968431632965803
1771082276757112800,8.74111279296875,-0.0006657897611148655,-0.0002663159102667123,0.0023968431632965803
1771082276767053300,8.75105322265625,-0.0006657897611148655,-0.0002663159102667123,0.0034621069207787514
1771082276776994000,8.760994140625,-0.0006657897611148655,-0.0002663159102667123,0.001331579522229731
1771082276786934500,8.7709345703125,-0.0006657897611148655,-0.0002663159102667123,0.0023968431632965803
1771082276796875300,8.780875244140624,-0.0006657897611148655,-0.0002663159102667123,0.001331579522229731
1771082276806815700,8.790815673828124,-0.0006657897611148655,-0.0002663159102667123,0.0023968431632965803
1771082276816756500,8.800756591796874,-0.0006657897611148655,-0.0002663159102667123,0.0023968431632965803
1771082276826697200,8.810697265625,-0.0006657897611148655,0.0007989477599039674,0.001331579522229731
1771082276836637700,8.8206376953125,-0.0006657897611148655,-0.0002663159102667123,0.0023968431632965803
1771082276846578400,8.830578369140625,-0.0006657897611148655,-0.0002663159102667123,0.0023968431632965803
1771082276856519000,8.840518798828125,-0.0006657897611148655,-0.0002663159102667123,0.0023968431632965803
1771082276866459600,8.850459716796875,-0.0017310534603893757,-0.0002663159102667123,0.0023968431632965803
1771082276876400000,8.860400146484375,-0.0006657897611148655,-0.0002663159102667123,0.0023968431632965803
1771082276886340900,8.8703408203125,0.0003994738799519837,-0.0002663159102667123,0.0023968431632965803
1771082276896281600,8.880281494140625,-0.0006657897611148655,-0.0002663159102667123,0.0023968431632965803
1771082276906222000,8.89022216796875,-0.0006657897611148655,-0.001331579522229731,0.0023968431632965803
1771082276916162800,8.900162841796876,-0.0006657897611148655,-0.0002663159102667123,0.001331579522229731
1771082276926103300,8.910103271484376,-0.0006657897611148655,-0.0002663159102667123,0.001331579522229731
1771082276936044000,8.9200439453125,-0.0006657897611148655,-0.0002663159102667123,0.001331579522229731
1771082276945984500,8.929984619140624,-0.0006657897611148655,-0.0002663159102667123,0.0023968431632965803
1771082276955925200,8.93992529296875,-0.0006657897611148655,-0.001331579522229731,0.0023968431632965803
1771082276965866000,8.949865966796875,-0.0006657897611148655,-0.0002663159102667123,0.001331579522229731
1771082276975806500,8.959806396484375,-0.0017310534603893757,-0.0002663159102667123,0.001331579522229731
1771082276985747200,8.969747314453125,-0.0006657897611148655,-0.001331579522229731,0.001331579522229731
1771082276995687700,8.979687744140625,-0.0006657897611148655,-0.0002663159102667123,0.001331579522229731
1771082277005628400,8.98962841796875,-0.0006657897611148655,-0.0002663159102667123,0.001331579522229731
1771082277015569000,8.99956884765625,-0.0006657897611148655,-0.0002663159102667123,0.001331579522229731
1771082277025509600,9.009509521484375,-0.0006657897611148655,-0.0002663159102667123,0.001331579522229731
1771082277035450400,9.019450439453125,-0.0006657897611148655,-0.0002663159102667123,0.0023968431632965803
1771082277045390800,9.029390869140625,-0.0006657897611148655,-0.001331579522229731,0.0023968431632965803
1771082277055331600,9.03933154296875,-0.0006657897611148655,-0.0002663159102667123,0.001331579522229731
1771082277065272000,9.04927197265625,-0.0006657897611148655,-0.0002663159102667123,0.0023968431632965803
1771082277075212800,9.059212890625,-0.0006657897611148655,-0.0002663159102667123,0.001331579522229731
1771082277085153300,9.0691533203125,-0.0006657897611148655,-0.001331579522229731,0.0023968431632965803
1771082277095094000,9.079093994140624,-0.0006657897611148655,-0.0002663159102667123,0.001331579522229731
1771082277105034500,9.089034423828124,-0.0006657897611148655,-0.001331579522229731,0.0023968431632965803
1771082277114975200,9.098975341796875,-0.0006657897611148655,-0.0002663159102667123,0.0023968431632965803
1771082277124916000,9.108916015625,-0.0006657897611148655,-0.0002663159102667123,0.001331579522229731
1771082277134856700,9.118856689453125,-0.0006657897611148655,-0.0002663159102667123,0.001331579522229731
1771082277144797400,9.12879736328125,-0.0006657897611148655,-0.0002663159102667123,0.0023968431632965803
1771082277154738000,9.138738037109375,-0.0006657897611148655,-0.0002663159102667123,0.0023968431632965803
1771082277174619400,9.158619384765625,0.0003994738799519837,0.0007989477599039674,0.001331579522229731
1771082277184560000,9.16856005859375,-0.0006657897611148655,-0.0002663159102667123,0.0023968431632965803
1771082277194500600,9.17850048828125,-0.0006657897611148655,-0.0002663159102667123,0.0023968431632965803
1771082277214382000,9.198382080078124,-0.0017310534603893757,-0.0002663159102667123,0.001331579522229731
1771082277234263300,9.21826318359375,-0.0006657897611148655,-0.001331579522229731,0.0023968431632965803
1771082277254144800,9.238144775390625,-0.0017310534603893757,-0.0002663159102667123,0.0023968431632965803
1771082277264085500,9.24808544921875,-0.0006657897611148655,-0.0002663159102667123,0.0023968431632965803
1771082277283966700,9.267966796875,-0.0006657897611148655,-0.0002663159102667123,0.001331579522229731
1771082277303848200,9.28784814453125,-0.0006657897611148655,0.0007989477599039674,0.0023968431632965803
1771082277313789000,9.297788818359376,-0.0017310534603893757,-0.001331579522229731,0.001331579522229731
1771082277333670100,9.317670166015626,-0.0006657897611148655,-0.0002663159102667123,0.001331579522229731
1771082277353551600,9.337551513671874,-0.0006657897611148655,-0.0002663159102667123,0.001331579522229731
1771082277373432800,9.357432861328125,-0.0006657897611148655,-0.001331579522229731,0.0023968431632965803
1771082277383373600,9.36737353515625,0.0003994738799519837,-0.0002663159102667123,0.001331579522229731
1771082277393314300,9.377314208984375,-0.0006657897611148655,-0.001331579522229731,0.0023968431632965803
1771082277403255000,9.387255126953125,0.0003994738799519837,-0.0002663159102667123,0.001331579522229731
1771082277413195500,9.397195556640625,-0.0006657897611148655,-0.0002663159102667123,0.0023968431632965803
1771082277423136300,9.40713623046875,-0.0017310534603893757,-0.0002663159102667123,0.001331579522229731
1771082277433077000,9.417076904296875,-0.0006657897611148655,-0.0002663159102667123,0.0023968431632965803
1771082277443017700,9.427017822265626,-0.0006657897611148655,-0.001331579522229731,0.001331579522229731
1771082277452958200,9.436958251953126,-0.0006657897611148655,-0.0002663159102667123,0.0023968431632965803
1771082277462899000,9.44689892578125,-0.0006657897611148655,-0.0002663159102667123,0.0023968431632965803
1771082277472839700,9.456839599609374,-0.0017310534603893757,-0.001331579522229731,0.0023968431632965803
1771082277482780400,9.466780517578124,-0.0006657897611148655,-0.001331579522229731,0.0023968431632965803
1771082277492721000,9.476720947265624,-0.0006657897611148655,-0.0002663159102667123,0.0023968431632965803
1771082277502661600,9.48666162109375,-0.0006657897611148655,-0.0002663159102667123,0.0023968431632965803
1771082277512602400,9.496602294921875,-0.0006657897611148655,-0.001331579522229731,0.001331579522229731
1771082277532483800,9.51648388671875,-0.0006657897611148655,-0.0002663159102667123,0.0023968431632965803
1771082277542424300,9.52642431640625,-0.0006657897611148655,-0.0002663159102667123,0.0023968431632965803
1771082277562305800,9.546305908203125,-0.0006657897611148655,-0.0002663159102667123,0.001331579522229731
1771082277582187000,9.56618701171875,-0.0006657897611148655,-0.0002663159102667123,0.0023968431632965803
1771082277602068500,9.586068359375,-0.0006657897611148655,-0.0002663159102667123,0.001331579522229731
1771082277621950000,9.605949951171874,-0.0006657897611148655,-0.0002663159102667123,0.0023968431632965803
1771082277641831200,9.6258310546875,-0.0006657897611148655,-0.0002663159102667123,0.0023968431632965803
1771082277661712400,9.64571240234375,-0.0006657897611148655,-0.0002663159102667123,0.0023968431632965803
1771082277681593900,9.66559375,-0.0006657897611148655,-0.0002663159102667123,0.0023968431632965803
1771082277701475000,9.68547509765625,-0.0006657897611148655,-0.0002663159102667123,0.0023968431632965803
1771082277721356300,9.705356201171876,-0.0006657897611148655,-0.0002663159102667123,0.0023968431632965803
1771082277741237500,9.725237548828124,-0.0006657897611148655,-0.0002663159102667123,0.0023968431632965803
1771082277751178000,9.735177978515624,-0.0006657897611148655,-0.001331579522229731,0.0023968431632965803
1771082277761118700,9.74511865234375,-0.0006657897611148655,0.0007989477599039674,0.0023968431632965803
1771082277771059500,9.7550595703125,-0.0006657897611148655,-0.0002663159102667123,0.001331579522229731
1771082277790940700,9.774940673828125,-0.0006657897611148655,-0.0002663159102667123,0.001331579522229731
1771082277810822000,9.79482177734375,-0.0006657897611148655,-0.001331579522229731,0.0023968431632965803
1771082277830703000,9.814703125,-0.0006657897611148655,-0.0002663159102667123,0.0023968431632965803
1771082277840643800,9.824643798828125,-0.0006657897611148655,-0.0002663159102667123,0.0023968431632965803
1771082277860525000,9.844525146484376,-0.0006657897611148655,-0.0002663159102667123,0.0023968431632965803
1771082277870465500,9.854465576171876,-0.0006657897611148655,-0.0002663159102667123,0.0023968431632965803
1771082277880406300,9.86440625,-0.0006657897611148655,-0.0002663159102667123,0.0023968431632965803
1771082277890346800,9.8743466796875,0.0003994738799519837,-0.0002663159102667123,0.001331579522229731
1771082277900287500,9.88428759765625,-0.0006657897611148655,-0.0002663159102667123,0.001331579522229731
1771082277920168700,9.904168701171875,-0.0006657897611148655,-0.001331579522229731,0.0023968431632965803
1771082277940050000,9.9240498046875,0.0003994738799519837,-0.001331579522229731,0.0023968431632965803
1771082277949990700,9.93399072265625,-0.0006657897611148655,-0.0002663159102667123,0.001331579522229731
1771082277969872000,9.953871826171875,-0.0017310534603893757,-0.0002663159102667123,0.001331579522229731
1771082277989753000,9.973753173828126,-0.0006657897611148655,-0.001331579522229731,0.0023968431632965803
1771082278009634300,9.99363427734375,-0.0006657897611148655,-0.001331579522229731,0.001331579522229731
1771082278019575000,10.003574951171874,-0.0006657897611148655,-0.0002663159102667123,0.0023968431632965803
1771082278029515500,10.013515625,-0.0006657897611148655,-0.0002663159102667123,0.0023968431632965803
1771082278049396700,10.033396728515624,-0.0006657897611148655,-0.001331579522229731,0.0034621069207787514
1771082278069278200,10.0532783203125,-0.0006657897611148655,-0.0002663159102667123,0.0023968431632965803
1771082278089159400,10.073159423828125,-0.0006657897611148655,0.0007989477599039674,0.0023968431632965803
1771082278099100000,10.083099853515625,-0.0006657897611148655,-0.0002663159102667123,0.0023968431632965803
1771082278109040600,10.09304052734375,-0.0006657897611148655,-0.0002663159102667123,0.0023968431632965803
1771082278118981000,10.102981201171875,-0.0006657897611148655,-0.001331579522229731,0.001331579522229731
1771082278128921900,10.112921875,-0.0006657897611148655,-0.001331579522229731,0.001331579522229731
1771082278138862600,10.122862548828126,-0.0006657897611148655,-0.0002663159102667123,0.0023968431632965803
1771082278148803300,10.13280322265625,-0.0006657897611148655,-0.0002663159102667123,0.001331579522229731
1771082278158744000,10.142744140625,-0.0006657897611148655,-0.0002663159102667123,0.0023968431632965803
1771082278178625300,10.162625244140624,-0.0006657897611148655,-0.0002663159102667123,0.001331579522229731
1771082278198506800,10.1825068359375,-0.0006657897611148655,-0.0002663159102667123,0.0034621069207787514
1771082278218388000,10.202387939453125,-0.0006657897611148655,-0.0002663159102667123,0.0023968431632965803
1771082278228328700,10.21232861328125,-0.0006657897611148655,-0.0002663159102667123,0.001331579522229731
1771082278248210000,10.2322099609375,-0.0006657897611148655,-0.0002663159102667123,0.001331579522229731
1771082278268091400,10.25209130859375,-0.0006657897611148655,-0.0002663159102667123,0.0023968431632965803
1771082278278032100,10.2620322265625,-0.0006657897611148655,-0.001331579522229731,0.0023968431632965803
1771082278287972900,10.271972900390624,0.0003994738799519837,-0.0002663159102667123,0.0023968431632965803
1771082278307854000,10.29185400390625,-0.0006657897611148655,-0.0002663159102667123,0.001331579522229731
1771082278317794800,10.301794921875,-0.0006657897611148655,-0.0002663159102667123,0.0023968431632965803
1771082278327735600,10.311735595703125,-0.0006657897611148655,-0.0002663159102667123,0.0023968431632965803
1771082278337676000,10.321676025390625,-0.0006657897611148655,-0.0002663159102667123,0.0023968431632965803
1771082278347616800,10.33161669921875,-0.0006657897611148655,-0.0002663159102667123,0.0034621069207787514
1771082278357557500,10.3415576171875,-0.0006657897611148655,-0.001331579522229731,0.0023968431632965803
1771082278377438700,10.361438720703125,-0.0006657897611148655,-0.001331579522229731,0.0023968431632965803
1771082278397320200,10.3813203125,-0.0017310534603893757,-0.0002663159102667123,0.0034621069207787514
1771082278417201700,10.40120166015625,-0.0017310534603893757,0.0007989477599039674,0.001331579522229731
1771082278427142100,10.41114208984375,-0.0006657897611148655,-0.001331579522229731,0.0023968431632965803
1771082278437083000,10.421082763671874,-0.0017310534603893757,-0.0002663159102667123,0.0023968431632965803
1771082278447023600,10.431023681640625,-0.0006657897611148655,-0.0002663159102667123,0.0023968431632965803
1771082278456964400,10.44096435546875,-0.0006657897611148655,-0.0002663159102667123,0.0023968431632965803
1771082278466904800,10.45090478515625,-0.0006657897611148655,-0.001331579522229731,0.0034621069207787514
1771082278476845600,10.460845458984375,-0.0006657897611148655,-0.0002663159102667123,0.001331579522229731
1771082278486786300,10.470786376953125,0.0003994738799519837,-0.0002663159102667123,0.0023968431632965803
1771082278496727000,10.48072705078125,-0.0006657897611148655,0.0007989477599039674,0.001331579522229731
1771082278506667500,10.49066748046875,-0.0006657897611148655,0.0007989477599039674,0.0023968431632965803
1771082278516608300,10.500608154296875,-0.0006657897611148655,-0.001331579522229731,0.001331579522229731
1771082278526549000,10.510549072265626,-0.0006657897611148655,-0.0002663159102667123,0.001331579522229731
1771082278536489700,10.52048974609375,-0.0006657897611148655,-0.0002663159102667123,0.0023968431632965803
1771082278546430500,10.530430419921874,-0.0006657897611148655,-0.0002663159102667123,0.0023968431632965803
1771082278556371000,10.540370849609374,-0.0006657897611148655,-0.0002663159102667123,0.0023968431632965803
1771082278566311700,10.550311767578124,-0.0017310534603893757,-0.0002663159102667123,0.0023968431632965803
1771082278576252400,10.56025244140625,-0.0006657897611148655,-0.001331579522229731,0.0034621069207787514
1771082278586193200,10.570193115234375,-0.0017310534603893757,-0.0002663159102667123,0.0023968431632965803
1771082278596133600,10.580133544921875,-0.0006657897611148655,-0.001331579522229731,0.0023968431632965803
1771082278606074400,10.590074462890625,-0.0006657897611148655,-0.0002663159102667123,0.0034621069207787514
1771082278616015000,10.60001513671875,-0.0006657897611148655,0.0007989477599039674,0.0023968431632965803
1771082278625955600,10.60995556640625,-0.0006657897611148655,-0.001331579522229731,0.001331579522229731
1771082278635896300,10.619896240234375,-0.0006657897611148655,-0.0002663159102667123,0.0034621069207787514
1771082278645837000,10.629837158203125,-0.0006657897611148655,-0.0002663159102667123,0.0023968431632965803
1771082278655777500,10.639777587890626,-0.0006657897611148655,-0.0002663159102667123,0.0023968431632965803
1771082278665718300,10.64971826171875,-0.0006657897611148655,-0.0002663159102667123,0.001331579522229731
1771082278675658800,10.65965869140625,-0.0006657897611148655,-0.001331579522229731,0.0023968431632965803
1771082278685599500,10.669599609375,-0.0006657897611148655,-0.001331579522229731,0.0023968431632965803
1771082278695540000,10.6795400390625,0.0003994738799519837,-0.001331579522229731,0.0023968431632965803
1771082278705480700,10.689480712890624,-0.0006657897611148655,-0.0002663159102667123,0.0023968431632965803
1771082278715421400,10.69942138671875,-0.0006657897611148655,-0.0002663159102667123,0.001331579522229731
1771082278725362000,10.70936181640625,-0.0006657897611148655,-0.0002663159102667123,0.0023968431632965803
1771082278735302700,10.719302734375,-0.0006657897611148655,-0.0002663159102667123,0.0023968431632965803
1771082278745243100,10.7292431640625,-0.0006657897611148655,0.0007989477599039674,0.0034621069207787514
1771082278755183900,10.739183837890625,-0.0006657897611148655,-0.0002663159102667123,0.0023968431632965803
1771082278765124400,10.749124267578125,-0.0006657897611148655,-0.0002663159102667123,0.0023968431632965803
1771082278775065000,10.759065185546875,-0.0006657897611148655,-0.0002663159102667123,0.0023968431632965803
1771082278785005800,10.769005859375,-0.0006657897611148655,-0.0002663159102667123,0.0023968431632965803
1771082278794946300,10.7789462890625,-0.0017310534603893757,-0.0002663159102667123,0.0023968431632965803
1771082278804887000,10.788886962890626,-0.0006657897611148655,-0.0002663159102667123,0.0023968431632965803
1771082278814827500,10.79882763671875,-0.0006657897611148655,-0.001331579522229731,0.001331579522229731
1771082278824768300,10.808768310546874,-0.0006657897611148655,-0.0002663159102667123,0.001331579522229731
1771082278834708700,10.818708740234374,-0.0006657897611148655,-0.0002663159102667123,0.001331579522229731
1771082278844649500,10.8286494140625,-0.0006657897611148655,-0.0002663159102667123,0.001331579522229731
1771082278854590200,10.838590087890625,-0.0006657897611148655,-0.0002663159102667123,0.0023968431632965803
1771082278864530700,10.84853076171875,-0.0006657897611148655,-0.001331579522229731,0.0023968431632965803
1771082278874471400,10.858471435546875,0.0003994738799519837,-0.0002663159102667123,0.0023968431632965803
1771082278884412000,10.868411865234375,-0.0006657897611148655,-0.001331579522229731,0.0023968431632965803
1771082278894352600,10.8783525390625,-0.0006657897611148655,-0.0002663159102667123,0.0023968431632965803
1771082278904293000,10.888293212890625,-0.0006657897611148655,-0.0002663159102667123,0.001331579522229731
1771082278914233900,10.89823388671875,-0.0006657897611148655,-0.0002663159102667123,0.0023968431632965803
1771082278924174300,10.90817431640625,-0.0006657897611148655,-0.0002663159102667123,0.0023968431632965803
1771082278934115000,10.918114990234375,-0.0006657897611148655,0.0007989477599039674,0.001331579522229731
1771082278944055800,10.928055908203126,-0.0006657897611148655,-0.0002663159102667123,0.0023968431632965803
1771082278953996300,10.937996337890626,-0.0006657897611148655,-0.001331579522229731,0.001331579522229731
1771082278963937000,10.94793701171875,-0.0006657897611148655,-0.0002663159102667123,0.001331579522229731
1771082278973877500,10.95787744140625,-0.0006657897611148655,-0.0002663159102667123,0.0023968431632965803
1771082278983818200,10.967818359375,-0.0017310534603893757,0.0007989477599039674,0.001331579522229731
1771082278993758700,10.9777587890625,-0.0006657897611148655,-0.0002663159102667123,0.0023968431632965803
1771082279003699500,10.987699462890625,-0.0006657897611148655,-0.0002663159102667123,0.0023968431632965803
1771082279013640200,10.99764013671875,-0.0006657897611148655,-0.001331579522229731,0.001331579522229731
1771082279023580700,11.00758056640625,-0.0006657897611148655,-0.0002663159102667123,0.0023968431632965803
1771082279033521400,11.017521484375,-0.0006657897611148655,-0.0002663159102667123,0.0023968431632965803
1771082279043462000,11.0274619140625,-0.0006657897611148655,-0.0002663159102667123,0.001331579522229731
1771082279053402600,11.037402587890625,0.0003994738799519837,-0.0002663159102667123,0.0023968431632965803
1771082279063343000,11.047343017578125,0.0003994738799519837,-0.0002663159102667123,0.0023968431632965803
1771082279073283800,11.057283935546875,-0.0006657897611148655,-0.0002663159102667123,0.0023968431632965803
1771082279083224600,11.067224609375,-0.0006657897611148655,-0.0002663159102667123,0.001331579522229731
1771082279093165000,11.0771650390625,-0.0006657897611148655,-0.0002663159102667123,0.0023968431632965803
1771082279103105800,11.087105712890626,-0.0006657897611148655,-0.0002663159102667123,0.0023968431632965803
1771082279113046300,11.09704638671875,-0.0006657897611148655,-0.0002663159102667123,0.0023968431632965803
1771082279122987000,11.106987060546874,-0.0006657897611148655,-0.0002663159102667123,0.0023968431632965803
1771082279132927700,11.116927734375,0.0003994738799519837,-0.0002663159102667123,0.0023968431632965803
1771082279142868200,11.1268681640625,-0.0006657897611148655,-0.0002663159102667123,0.0023968431632965803
1771082279152809000,11.13680908203125,-0.0006657897611148655,-0.0002663159102667123,0.001331579522229731
1771082279162749700,11.146749755859375,-0.0006657897611148655,0.0007989477599039674,0.0023968431632965803
1771082279172690400,11.1566904296875,-0.0006657897611148655,-0.0002663159102667123,0.0023968431632965803
1771082279182631000,11.166630859375,-0.0006657897611148655,-0.0002663159102667123,0.0023968431632965803
1771082279192571600,11.176571533203125,-0.0006657897611148655,-0.001331579522229731,0.0023968431632965803
1771082279202512400,11.186512451171875,-0.0006657897611148655,0.0007989477599039674,0.001331579522229731
1771082279212453000,11.196453125,-0.0006657897611148655,-0.0002663159102667123,0.0023968431632965803
1771082279222393900,11.206393798828126,0.0003994738799519837,-0.0002663159102667123,0.001331579522229731
1771082279232334300,11.216334228515626,-0.0006657897611148655,-0.0002663159102667123,0.001331579522229731
1771082279252215800,11.2362158203125,0.0003994738799519837,-0.001331579522229731,0.0023968431632965803
1771082279262156500,11.246156494140624,-0.0006657897611148655,-0.001331579522229731,0.0023968431632965803
1771082279282037800,11.266037841796875,-0.0006657897611148655,-0.001331579522229731,0.0023968431632965803
1771082279291978500,11.275978515625,-0.0006657897611148655,-0.0002663159102667123,0.0023968431632965803
1771082279311859700,11.295859619140625,-0.0006657897611148655,-0.0002663159102667123,0.001331579522229731
1771082279331741200,11.3157412109375,-0.0006657897611148655,-0.0002663159102667123,0.0023968431632965803
1771082279351622700,11.33562255859375,-0.0006657897611148655,-0.0002663159102667123,0.001331579522229731
1771082279361563100,11.345563232421876,-0.0006657897611148655,-0.001331579522229731,0.001331579522229731
1771082279381444600,11.365444580078124,-0.0006657897611148655,-0.0002663159102667123,0.001331579522229731
1771082279391385300,11.37538525390625,-0.0006657897611148655,-0.0002663159102667123,0.0023968431632965803
1771082279401325800,11.385325927734375,-0.0006657897611148655,-0.0002663159102667123,0.0023968431632965803
1771082279411266600,11.3952666015625,-0.0006657897611148655,-0.0002663159102667123,0.0023968431632965803
1771082279431148000,11.41514794921875,-0.0006657897611148655,-0.0002663159102667123,0.0023968431632965803
1771082279451029200,11.435029296875,-0.0006657897611148655,-0.001331579522229731,0.001331579522229731
1771082279460970000,11.444969970703125,-0.0006657897611148655,-0.0002663159102667123,0.0023968431632965803
1771082279470910700,11.45491064453125,-0.0006657897611148655,-0.0002663159102667123,0.0023968431632965803
1771082279480851500,11.4648515625,-0.0006657897611148655,-0.0002663159102667123,0.001331579522229731
1771082279490792000,11.4747919921875,-0.0006657897611148655,-0.0002663159102667123,0.0034621069207787514
1771082279500732700,11.484732666015624,-0.0017310534603893757,-0.0002663159102667123,0.0023968431632965803
1771082279510673400,11.49467333984375,-0.0006657897611148655,-0.0002663159102667123,0.0023968431632965803
1771082279520614100,11.5046142578125,-0.0017310534603893757,-0.001331579522229731,0.0023968431632965803
1771082279530554600,11.5145546875,-0.0006657897611148655,-0.0002663159102667123,0.0034621069207787514
1771082279540495400,11.524495361328125,-0.0006657897611148655,-0.0002663159102667123,0.0023968431632965803
1771082279560376800,11.544376953125,-0.0006657897611148655,-0.0002663159102667123,0.0023968431632965803
1771082279580258000,11.564258056640625,-0.0006657897611148655,-0.0002663159102667123,0.0023968431632965803
1771082279600139300,11.58413916015625,-0.0006657897611148655,-0.001331579522229731,0.001331579522229731
1771082279620020500,11.6040205078125,-0.0006657897611148655,-0.001331579522229731,0.0023968431632965803
1771082279639901700,11.623901611328124,-0.0006657897611148655,-0.0002663159102667123,0.0023968431632965803
1771082279649842400,11.633842529296874,-0.0006657897611148655,-0.001331579522229731,0.001331579522229731
1771082279659783200,11.643783203125,-0.0006657897611148655,-0.0002663159102667123,0.0023968431632965803
1771082279669723600,11.6537236328125,-0.0006657897611148655,-0.0002663159102667123,0.0023968431632965803
1771082279679664400,11.663664306640625,-0.0006657897611148655,-0.0002663159102667123,0.001331579522229731
1771082279699545600,11.683545654296875,-0.0006657897611148655,-0.0002663159102667123,0.0023968431632965803
1771082279719426800,11.7034267578125,-0.0006657897611148655,-0.0002663159102667123,0.001331579522229731
1771082279729367600,11.713367431640625,-0.0006657897611148655,-0.001331579522229731,0.0023968431632965803
1771082279749248800,11.733248779296876,-0.0017310534603893757,-0.0002663159102667123,0.0034621069207787514
1771082279759189200,11.743189208984376,-0.0006657897611148655,-0.0002663159102667123,0.0023968431632965803
1771082279769130000,11.7531298828125,-0.0006657897611148655,-0.0002663159102667123,0.0023968431632965803
1771082279789011200,11.77301123046875,-0.0006657897611148655,-0.001331579522229731,0.0023968431632965803
1771082279808892400,11.792892333984375,-0.0006657897611148655,-0.001331579522229731,0.001331579522229731
1771082279828773600,11.812773681640625,-0.0006657897611148655,0.0007989477599039674,0.0023968431632965803
1771082279848654800,11.83265478515625,-0.0006657897611148655,-0.0002663159102667123,0.0023968431632965803
1771082279858595600,11.842595703125,-0.0006657897611148655,-0.0002663159102667123,0.001331579522229731
1771082279868536000,11.8525361328125,-0.0017310534603893757,-0.001331579522229731,0.0023968431632965803
1771082279878476800,11.862476806640625,-0.0006657897611148655,-0.001331579522229731,0.001331579522229731
1771082279888417500,11.87241748046875,-0.0006657897611148655,-0.0002663159102667123,0.0023968431632965803
1771082279898358000,11.88235791015625,-0.0006657897611148655,-0.0002663159102667123,0.0023968431632965803
1771082279918239200,11.9022392578125,-0.0006657897611148655,-0.0002663159102667123,0.0023968431632965803
1771082279938120400,11.922120361328124,-0.0006657897611148655,-0.001331579522229731,0.001331579522229731
1771082279948061200,11.932061279296875,-0.0006657897611148655,-0.0002663159102667123,0.0023968431632965803
1771082279967942400,11.9519423828125,-0.0006657897611148655,-0.0002663159102667123,0.0023968431632965803
1771082279987823600,11.97182373046875,-0.0017310534603893757,-0.001331579522229731,0.001331579522229731
1771082279997764400,11.981764404296875,-0.0006657897611148655,-0.0002663159102667123,0.0023968431632965803
1771082280007704800,11.991704833984375,-0.0006657897611148655,-0.001331579522229731,0.0023968431632965803
1771082280017645600,12.0016455078125,-0.0006657897611148655,-0.0002663159102667123,0.0023968431632965803
1771082280027586300,12.01158642578125,-0.0006657897611148655,-0.0002663159102667123,0.0023968431632965803
1771082280037526800,12.02152685546875,-0.0006657897611148655,-0.0002663159102667123,0.0023968431632965803
1771082280047467500,12.031467529296876,-0.0006657897611148655,-0.0002663159102667123,0.001331579522229731
1771082280057408000,12.041407958984376,-0.0006657897611148655,-0.0002663159102667123,0.001331579522229731
1771082280067348700,12.0513486328125,-0.0006657897611148655,-0.0002663159102667123,0.0023968431632965803
1771082280077289200,12.061289306640624,-0.0006657897611148655,-0.001331579522229731,0.0023968431632965803
1771082280087230000,12.07122998046875,-0.0006657897611148655,-0.0002663159102667123,0.001331579522229731
1771082280097170400,12.08117041015625,-0.0006657897611148655,-0.001331579522229731,0.0023968431632965803
1771082280107111200,12.091111083984375,-0.0006657897611148655,-0.001331579522229731,0.0023968431632965803
1771082280126992400,12.110992431640625,-0.0006657897611148655,-0.001331579522229731,0.001331579522229731
1771082280146873900,12.130873779296875,-0.0006657897611148655,-0.0002663159102667123,0.001331579522229731
1771082280156814300,12.140814453125,-0.0006657897611148655,-0.001331579522229731,0.001331579522229731
1771082280166755000,12.150755126953126,-0.0006657897611148655,-0.0002663159102667123,0.0023968431632965803
1771082280176695800,12.16069580078125,-0.0006657897611148655,-0.001331579522229731,0.0023968431632965803
1771082280186636500,12.170636474609376,-0.0017310534603893757,-0.0002663159102667123,0.0023968431632965803
1771082280196577000,12.180576904296874,0.0003994738799519837,-0.001331579522229731,0.001331579522229731
1771082280206517800,12.190517822265624,-0.0006657897611148655,-0.0002663159102667123,0.0023968431632965803
1771082280216458500,12.20045849609375,-0.0006657897611148655,-0.001331579522229731,0.001331579522229731
1771082280226399200,12.210399169921875,-0.0006657897611148655,-0.0002663159102667123,0.001331579522229731
1771082280236339700,12.220339599609375,-0.0006657897611148655,-0.0002663159102667123,0.001331579522229731
1771082280246280400,12.230280517578125,-0.0006657897611148655,-0.0002663159102667123,0.0023968431632965803
1771082280256221200,12.24022119140625,0.0003994738799519837,-0.0002663159102667123,0.0023968431632965803
1771082280266162000,12.250161865234375,-0.0006657897611148655,-0.0002663159102667123,0.0034621069207787514
1771082280276102700,12.2601025390625,-0.0006657897611148655,-0.001331579522229731,0.0023968431632965803
1771082280286043100,12.270043212890625,-0.0006657897611148655,-0.0002663159102667123,0.0023968431632965803
1771082280305924600,12.289924560546876,-0.0006657897611148655,0.0007989477599039674,0.0023968431632965803
1771082280315865300,12.299865234375,-0.0006657897611148655,-0.0002663159102667123,0.001331579522229731
1771082280335746600,12.31974658203125,-0.0006657897611148655,-0.0002663159102667123,0.0023968431632965803
1771082280355628000,12.3396279296875,-0.0006657897611148655,-0.0002663159102667123,0.0023968431632965803
1771082280375509200,12.35950927734375,-0.0017310534603893757,-0.0002663159102667123,0.001331579522229731
1771082280395390700,12.379390625,-0.0006657897611148655,-0.001331579522229731,0.0023968431632965803
1771082280415272000,12.39927197265625,-0.0006657897611148655,-0.0002663159102667123,0.0023968431632965803
1771082280435153400,12.4191533203125,-0.0006657897611148655,-0.0002663159102667123,0.0023968431632965803
1771082280455034600,12.43903466796875,-0.0006657897611148655,-0.0002663159102667123,0.001331579522229731
1771082280474916000,12.458916015625,-0.0006657897611148655,-0.0002663159102667123,0.0023968431632965803
1771082280484856800,12.46885693359375,-0.0006657897611148655,-0.0002663159102667123,0.001331579522229731
1771082280494797300,12.47879736328125,-0.0006657897611148655,-0.0002663159102667123,0.0023968431632965803
1771082280504738000,12.488738037109375,-0.0006657897611148655,-0.0002663159102667123,0.0023968431632965803
1771082280514678800,12.4986787109375,-0.0006657897611148655,-0.0002663159102667123,0.001331579522229731
1771082280524619500,12.50861962890625,-0.0006657897611148655,-0.0002663159102667123,0.0023968431632965803
1771082280534560300,12.518560302734375,-0.0006657897611148655,-0.0002663159102667123,0.001331579522229731
1771082280544500700,12.528500732421875,-0.0006657897611148655,0.0007989477599039674,0.0023968431632965803
1771082280554441500,12.53844140625,-0.0017310534603893757,0.0007989477599039674,0.0023968431632965803
1771082280564382000,12.5483818359375,-0.0006657897611148655,-0.0002663159102667123,0.0023968431632965803
1771082280574322700,12.55832275390625,-0.0006657897611148655,-0.0002663159102667123,0.0023968431632965803
1771082280584263400,12.568263427734376,-0.0006657897611148655,0.0007989477599039674,0.001331579522229731
1771082280594204000,12.578203857421874,-0.0006657897611148655,-0.0002663159102667123,0.0023968431632965803
1771082280604144600,12.58814453125,-0.0006657897611148655,-0.0002663159102667123,0.0023968431632965803
1771082280614085000,12.598085205078124,-0.0006657897611148655,-0.0002663159102667123,0.0023968431632965803
1771082280633966300,12.61796630859375,-0.0006657897611148655,-0.001331579522229731,0.0023968431632965803
1771082280643907000,12.627906982421875,-0.0006657897611148655,-0.0002663159102667123,0.001331579522229731
1771082280653847800,12.637847900390625,-0.0017310534603893757,-0.001331579522229731,0.001331579522229731
1771082280663788300,12.647788330078125,-0.0006657897611148655,-0.001331579522229731,0.001331579522229731
1771082280673729000,12.65772900390625,-0.0006657897611148655,-0.0002663159102667123,0.0023968431632965803
1771082280683669500,12.66766943359375,-0.0006657897611148655,-0.0002663159102667123,0.001331579522229731
1771082280693610200,12.6776103515625,-0.0006657897611148655,-0.0002663159102667123,0.0023968431632965803
1771082280703550700,12.68755078125,-0.0006657897611148655,-0.0002663159102667123,0.0023968431632965803
1771082280713491500,12.697491455078126,-0.0006657897611148655,-0.0002663159102667123,0.001331579522229731
1771082280723432000,12.707431884765626,-0.0006657897611148655,-0.0002663159102667123,0.0023968431632965803
1771082280733372700,12.71737255859375,-0.0006657897611148655,-0.001331579522229731,0.0023968431632965803
1771082280743313400,12.7273134765625,-0.0006657897611148655,-0.001331579522229731,0.0023968431632965803
1771082280753254000,12.73725390625,-0.0006657897611148655,-0.0002663159102667123,0.0034621069207787514
1771082280763194600,12.747194580078125,-0.0006657897611148655,-0.0002663159102667123,0.001331579522229731
1771082280783075800,12.767075927734375,-0.0017310534603893757,0.0007989477599039674,0.001331579522229731
1771082280793016300,12.777016357421875,-0.0006657897611148655,-0.0002663159102667123,0.0023968431632965803
1771082280802957000,12.78695703125,-0.0017310534603893757,-0.001331579522229731,0.001331579522229731
1771082280812897800,12.796897705078125,-0.0006657897611148655,-0.0002663159102667123,0.0023968431632965803
1771082280822838300,12.80683837890625,-0.0006657897611148655,-0.0002663159102667123,0.0023968431632965803
1771082280832779000,12.816779052734375,-0.0006657897611148655,-0.0002663159102667123,0.0023968431632965803
1771082280842719500,12.826719482421876,-0.0006657897611148655,-0.0002663159102667123,0.001331579522229731
1771082280852660200,12.83666015625,-0.0006657897611148655,-0.0002663159102667123,0.001331579522229731
1771082280862600700,12.8466005859375,-0.0006657897611148655,-0.0002663159102667123,0.0023968431632965803
1771082280872541400,12.85654150390625,-0.0006657897611148655,-0.001331579522229731,0.0023968431632965803
1771082280882482200,12.866482177734374,-0.0006657897611148655,-0.0002663159102667123,0.001331579522229731
1771082280892422700,12.876422607421874,-0.0006657897611148655,-0.0002663159102667123,0.001331579522229731
1771082280902363400,12.88636328125,0.0003994738799519837,-0.0002663159102667123,0.0023968431632965803
1771082280912303900,12.896303955078125,-0.0006657897611148655,-0.0002663159102667123,0.0023968431632965803
1771082280922244600,12.90624462890625,-0.0017310534603893757,-0.0002663159102667123,0.0023968431632965803
1771082280932185000,12.91618505859375,-0.0006657897611148655,-0.001331579522229731,0.0023968431632965803
1771082280942125800,12.926125732421875,-0.0006657897611148655,-0.0002663159102667123,0.0023968431632965803
1771082280952066600,12.936066650390625,-0.0006657897611148655,-0.0002663159102667123,0.0023968431632965803
1771082280962007000,12.946007080078125,-0.0017310534603893757,-0.0002663159102667123,0.001331579522229731
1771082280971947800,12.95594775390625,-0.0006657897611148655,-0.0002663159102667123,0.0023968431632965803
1771082280981888300,12.96588818359375,-0.0006657897611148655,-0.0002663159102667123,0.0023968431632965803
1771082280991829000,12.9758291015625,-0.0006657897611148655,-0.0002663159102667123,0.0023968431632965803
1771082281001769500,12.98576953125,0.0003994738799519837,-0.0002663159102667123,0.0023968431632965803
1771082281011710200,12.995710205078124,-0.0006657897611148655,-0.0002663159102667123,0.0023968431632965803
1771082281021650700,13.005650634765624,-0.0006657897611148655,-0.001331579522229731,0.0023968431632965803
1771082281031591400,13.01559130859375,-0.0006657897611148655,-0.0002663159102667123,0.0023968431632965803
1771082281041532200,13.0255322265625,-0.0017310534603893757,-0.0002663159102667123,0.0023968431632965803
1771082281051472600,13.03547265625,0.0003994738799519837,-0.001331579522229731,0.0023968431632965803
1771082281061413400,13.045413330078125,-0.0006657897611148655,-0.0002663159102667123,0.0023968431632965803
1771082281071353900,13.055353759765625,-0.0017310534603893757,-0.0002663159102667123,0.0023968431632965803
1771082281081294600,13.065294677734375,-0.0006657897611148655,-0.0002663159102667123,0.0023968431632965803
1771082281091235000,13.075235107421875,-0.0006657897611148655,-0.001331579522229731,0.0023968431632965803
1771082281101175800,13.08517578125,-0.0006657897611148655,-0.0002663159102667123,0.0023968431632965803
1771082281111116500,13.095116455078125,-0.0017310534603893757,-0.0002663159102667123,0.0023968431632965803
1771082281121057000,13.10505712890625,0.0003994738799519837,-0.001331579522229731,0.0023968431632965803
1771082281130997800,13.114997802734376,-0.0006657897611148655,-0.0002663159102667123,0.001331579522229731
1771082281140938200,13.124938232421876,-0.0006657897611148655,-0.0002663159102667123,0.0023968431632965803
1771082281150879000,13.13487890625,-0.0006657897611148655,-0.001331579522229731,0.0023968431632965803
1771082281160819500,13.1448193359375,-0.0006657897611148655,-0.0002663159102667123,0.001331579522229731
1771082281170760200,13.15476025390625,-0.0006657897611148655,-0.0002663159102667123,0.0023968431632965803
1771082281180701000,13.164700927734375,-0.0006657897611148655,-0.0002663159102667123,0.0023968431632965803
1771082281190641400,13.174641357421875,0.0003994738799519837,-0.0002663159102667123,0.001331579522229731
1771082281200582100,13.18458203125,-0.0006657897611148655,-0.0002663159102667123,0.0023968431632965803
1771082281210522600,13.194522705078125,-0.0006657897611148655,-0.0002663159102667123,0.0023968431632965803
1771082281220463400,13.20446337890625,-0.0006657897611148655,-0.0002663159102667123,0.0023968431632965803
1771082281230404000,13.214404052734375,-0.0006657897611148655,-0.0002663159102667123,0.0034621069207787514
1771082281240344800,13.2243447265625,-0.0006657897611148655,0.0007989477599039674,0.0023968431632965803
